"code","nro_aplicante","nro_bloque","nro_trial_bloque","nro_trial_global","show_game_type","choice_order","rival","pay_individual","pay_competitive","question","answer_left_text","answer_right_text","correct_answer","outcome_individual","outcome_competitive","outcome_rival","game_type","answer","social_time","rt_game_type","feedback_delay","show_question","answer_time","rt_answer_global","feedback_delay_2","show_jitter","jitter_time","show_outcome","outcome_time","outcome_participant_real","show_final_jitter","second_jitter_time","inicio_descanso"
"00001","","0","1","1","10.564538002","direct","1","1","2","¿Cuánto pesa una moneda 
de un peso uruguayo?","4.5 g","3.5 g","left","1","1","1","individual","right","1.37693309784","11.9415168762","3.62306690216","15.7063019276","3.14118599892","18.8475499153","2.85881400108","21.7514648438","22.7539460659","22.8020808697","25.8050420284","0","25.8192019463","28.8260419369",""
"00001","","0","2","2","28.9715120792","inverse","3","1","3","¿Quién escribió Pinocho?","Malluti","Collodi","right","1","1","0","competitive","left","2.28096699715","31.2525548935","2.71903300285","34.1306710243","2.75585603714","36.8865709305","3.24414396286","40.1822428703","41.1850068569","41.2671198845","44.2699480057","0","44.2845959663","47.2914688587",""
"00001","","1","1","3","751.933845997","direct","3","1","4","¿Cuántos centímetros corresponden
al talle 36 del calzado?","23","24","","0","0","1","competitive","right","2.27365708351","754.207545996","2.72634291649","757.087621927","4.25788903236","761.345553875","1.74211096764","763.138242006","764.166538","764.238721848","767.241698027","0","767.256839991","769.419342041","47.3059060574"
"00001","","1","2","4","769.559578896","inverse","3","1","2","¿Cuántas metros mide la Intendencia
Municipal de Montevideo? ","84","78","","0","0","1","competitive","left","2.43693900108","771.996578932","2.56306099892","774.727452993","3.88608312607","778.613605022","2.11391687393","780.780073881","782.657935858","782.731384039","785.734351873","0","785.749904871","787.842665911",""
"00001","","1","3","5","787.987287045","direct","1","1","3","¿Cuántas La Pasiva
 hay en uruguay?","15","11","","1","1","1","individual","right","2.04127311707","790.028629065","2.95872688293","793.122760057","3.25278997421","796.375609875","2.74721002579","799.173373938","800.785021067","800.82404995","803.827022076","1","803.842256069","808.117946863",""
"00001","","1","4","6","808.243620872","inverse","3","1","3","¿De que color es la camiseta de uruguay?","blanca","celeste","right","1","1","1","competitive","right","1.80589199066","810.049574852","3.19410800934","813.399837017","3.81364011765","817.213537931","2.18635988235","819.448760033","820.653523922","820.733682871","823.736662865","1","823.750544071","827.201952934",""
"00001","","1","5","7","827.33839488","direct","2","1","1","¿Cuánto metros mide
la torre Eiffel?","333","324","","1","1","1","competitive","right","2.28511595726","829.623574018","2.71488404274","832.524448872","2.60804891586","835.132565022","3.39195108414","838.576721907","840.098155975","840.177778959","843.180757046","1","843.194875956","850.231565952",""
"00001","","1","6","8","850.384423971","inverse","3","1","4","¿Cuantas ciudades existen
 en todo el uruguay?","63","72","","0","0","1","competitive","right","1.82003688812","852.204529047","3.17996311188","855.537694931","4.96380400658","860.50156188","1.03619599342","861.589366913","862.644171","862.722642899","865.723350048","0","865.739758015","873.366327047",""
"00001","","1","7","9","873.508965015","direct","1","1","1","¿Cuantos estados tiene África?","52","54","","1","1","0","individual","left","1.6065299511","875.115536928","3.3934700489","878.649986029","3.55345606804","882.203500032","2.44654393196","884.700835943","886.564866066","886.602020025","889.604989052","1","889.619071007","895.380089998",""
"00001","","1","8","10","895.521327972","inverse","4","1","4","¿En qué año nació
 Stephen Hawking?","1952","1942","","0","0","1","individual","left","2.23223590851","897.753608942","2.76776409149","900.677850008","2.52665305138","903.204568863","3.47334694862","906.728237867","908.172524929","908.212916851","911.215883017","0","911.230833054","917.330196857",""
"00001","","1","9","11","917.467174053","direct","2","1","3","¿Cuánto años tenía Artigas
 cuando se fue a Paraguay?","56","57","","1","1","1","competitive","left","2.39337801933","919.860615969","2.60662198067","922.620234966","4.79724192619","927.417546988","1.20275807381","928.657161951","930.206681967","930.290767908","933.293745995","1","933.30812788","939.355418921",""
"00001","","1","10","12","939.513311863","inverse","1","1","2","¿Cuantos milímetros 
mide una hoja A2?","420x592","420x594","","0","0","1","competitive","right","2.26769089699","941.781075954","2.73230910301","944.682590008","4.24594020844","948.928575039","1.75405979156","950.718252897","952.285928965","952.368790865","955.369957924","0","955.386417866","962.46004796",""
"00001","","1","11","13","962.642052889","direct","3","1","3","¿Cuál es la menor temperatura 
registrada en Uruguay?","-5.4","-7.4","","0","0","1","competitive","right","2.26850390434","964.910621881","2.73149609566","967.794136047","3.79742097855","971.591616869","2.20257902145","973.829948902","975.511968851","975.581126928","978.584122896","0","978.598164082","982.331405878",""
"00001","","1","12","14","982.468384027","inverse","2","1","2","¿Cuantos años hace que 
se fundó facebook?","18","17","","0","0","0","competitive","left","2.26217508316","984.730629921","2.73782491684","987.619566917","3.85097789764","991.470604897","2.14902210236","993.657089949","995.029778004","995.107243061","998.110245943","0","998.12530303","1000.89994192",""
"00001","","1","13","15","1001.06037688","direct","1","1","4","¿Cuál animal es más
 pesado en promedio?","Rinoceronte","Hipopotamo","","0","0","0","competitive","right","1.89516687393","1002.9556129","3.10483312607","1006.21570587","3.98081207275","1010.19657803","2.01918792725","1012.24902201","1013.32826495","1013.40066099","1016.40363288","0","1016.417804","1020.25793505",""
"00001","","1","14","16","1020.3862009","inverse","1","1","2","¿Qué personaje de dragon ball 
murió más veces?","Chaoz","Krillin","","1","1","0","competitive","right","2.20470786095","1022.59097099","2.79529213905","1025.54231787","3.58322191238","1029.12560105","2.41677808762","1031.59333897","1033.05114007","1033.12774587","1036.13072491","1","1036.14497495","1043.91790891",""
"00001","","1","15","17","1044.06237292","direct","3","1","2","La universidad de oxford. 
existe desde:","1096","1249","","1","1","0","individual","left","2.1941139698","1046.25653386","2.8058860302","1049.23469996","4.45081114769","1053.68557906","1.54918885231","1055.27165794","1056.32045507","1056.37335801","1059.37395406","1","1059.39017892","1066.08102107",""
"00001","","1","16","18","1066.20798898","inverse","3","1","1","¿Qué escritor latino ganó antes
 el premio nobel?"," García Marquez","Neruda","","0","0","1","individual","left","2.05355381966","1068.26160598","2.94644618034","1071.38112187","3.63040590286","1075.01158905","2.36959409714","1077.43091297","1079.17088985","1079.21608901","1082.21905994","0","1082.23342991","1085.69396496",""
"00001","","1","17","19","1085.84814787","direct","4","1","3","¿Cuántos dientes tiene un
 tiburón blanco?","6000","3000","","0","0","1","competitive","right","2.6303999424","1088.47859097","2.3696000576","1091.00609493","4.17439103127","1095.18054605","1.82560896873","1097.04278588","1098.08178806","1098.15977788","1101.16276407","0","1101.17718506","1105.986866",""
"00001","","1","18","20","1106.1482749","inverse","4","1","1","¿Cuánto mide el paralelo Ecuador?","40.000km","70.000km","","0","0","1","individual","right","1.86534190178","1108.0136869","3.13465809822","1111.31974292","2.88783383369","1114.20763588","3.11216616631","1117.36938787","1119.3254869","1119.37103486","1122.37399197","0","1122.38933706","1125.98993206",""
"00001","","1","19","21","1126.12379789","direct","4","1","2","¿Cuál fue el primer libro 
de Stephen King?","Carrie","The Stand","","1","1","1","individual","right","1.78871703148","1127.91255689","3.21128296852","1131.27918601","3.27929496765","1134.55852008","2.72070503235","1137.33004999","1139.07416701","1139.11439395","1142.11735201","1","1142.13232398","1146.60673094",""
"00001","","1","20","22","1146.78246808","inverse","2","1","3","¿Qué civilización practicaba
 la momificación?","Grecia","Egipto","right","0","0","1","competitive","right","1.49309587479","1148.27562499","3.50690412521","1151.94026399","3.60530400276","1155.54562688","2.39469599724","1157.98987389","1159.92917585","1160.00794387","1163.00995588","1","1163.025244","1167.25396705",""
"00001","","1","21","23","1167.39322996","direct","4","1","4","¿Cuántos millones de visitas
 recibe google por minuto?","3.0","4.5","","0","0","1","competitive","right","1.50034880638","1168.89362693","3.49965119362","1172.53475595","3.23780608177","1175.77262092","2.76219391823","1178.58514285","1180.10001707","1180.1688199","1183.17179799","0","1183.18692303","1190.30595398",""
"00001","","1","22","24","1190.44232607","inverse","1","1","3","La máquina de fax. se inventó en:","1843","1960","","0","0","1","competitive","left","1.55015802383","1191.99254799","3.44984197617","1195.59577894","3.35785198212","1198.95370197","2.64214801788","1201.64671397","1202.88882303","1202.96466589","1205.96760988","0","1205.98168087","1209.21797395",""
"00001","","1","23","25","1209.35209608","direct","2","1","4","En la verdadera historia de los
 300 espartanos. habían:","300 soldados","4300 soldados","","1","1","1","competitive","right","1.9114780426","1211.26364589","3.0885219574","1214.50639701","4.82603812218","1219.33248997","1.17396187782","1220.55688691","1221.81789303","1221.89049888","1224.89342999","1","1224.90829587","1228.71006799",""
"00001","","1","24","26","1228.84288287","inverse","1","1","4","¿Cuántos milímetros crece
 el pelo por día?","0.4","0.04","","0","0","0","competitive","left","1.04866504669","1229.89159107","3.95133495331","1233.97978187","3.2727599144","1237.25260186","2.7272400856","1240.03162694","1241.79233694","1241.86612797","1244.86909389","0","1244.88326502","1251.61834192",""
"00001","","1","25","27","1251.75560689","direct","4","1","1","¿Cuánto mide la baldosa gris 
clásica de Montevideo?","22x22 cm.","20x20 cm.","","1","1","1","individual","right","1.47896790504","1253.23463798","3.52103209496","1256.91163301","4.41495299339","1261.32662892","1.58504700661","1262.96209288","1264.95734501","1264.99617696","1267.99914598","1","1268.013273","1273.55602908",""
"00001","","1","26","28","1273.70171404","inverse","2","1","2","¿Cuántas películas de rápidos
 y furiosos hay?","10","11","","1","1","0","competitive","right","1.70985507965","1275.41163206","3.29014492035","1278.85624695","3.52031993866","1282.37662888","2.47968006134","1284.90689492","1286.26491094","1286.34114504","1289.34412694","1","1289.35827208","1291.39294291",""
"00001","","1","27","29","1291.54388499","direct","3","1","1","¿Cuántos masters 1000
 ganó Del Potro?","1","2","","1","1","1","individual","left","1.96570420265","1293.5096519","3.03429579735","1296.69787908","4.11866092682","1300.81660604","1.88133907318","1302.749367","1304.50397992","1304.55061293","1307.55358601","1","1307.56768703","1314.96404099",""
"00001","","1","28","30","1315.10207391","inverse","2","1","4","¿Cuántos meses dura el 
embarazo de una leona?","3 meses","4 meses","","0","0","1","competitive","right","2.03051495552","1317.13265896","2.96948504448","1320.25711489","4.08138799667","1324.33854389","1.91861200333","1326.31011701","1327.42119408","1327.49464202","1330.49760604","0","1330.51173306","1337.23421001",""
"00001","","1","29","31","1337.3794589","direct","1","1","1","¿En qué año fue creado
 el sandwich?","1762","1653","","1","1","0","competitive","right","2.1251180172","1339.50464892","2.8748819828","1342.53535295","3.63418292999","1346.16959906","2.36581707001","1348.57280302","1350.17134786","1350.23985195","1353.24282193","1","1353.25785804","1356.72848606",""
"00001","","1","30","32","1356.86139202","inverse","4","1","2","El nombre de la moneda de Vietnam es:","Dinar","Dong","","0","0","1","individual","left","1.70218420029","1358.56363702","3.29781579971","1362.01536894","2.95519089699","1364.97062087","3.04480910301","1368.06580496","1369.49780607","1369.53417301","1372.53713703","0","1372.55134988","1378.71977806",""
"00001","","1","31","33","1378.85194397","direct","2","1","1","¿cuantos aleteos puede dar 
un colibrí por segundo?","120","50","","0","0","0","individual","right","2.77061080933","1381.62263107","2.22938919067","1384.00734496","3.66720294952","1387.67458892","2.33279705048","1390.04431891","1391.77669096","1391.8290329","1394.83201885","0","1394.84538293","1399.05392504",""
"00001","","1","32","34","1399.21442795","inverse","4","1","3","¿Qué altura promedio tienen
 los hombres uruguayos?","1.73 m","1.72 m","","1","1","1","individual","right","1.66613006592","1400.88062692","3.33386993408","1404.38765597","3.67985391617","1408.06756806","2.32014608383","1410.43726206","1411.69965696","1411.73909402","1414.73956394","1","1414.75595403","1419.23188901",""
"00001","","2","1","35","1598.95245504","direct","1","1","1","¿En qué año nació 
el actor Bradd Pitt?","1967","1963","","1","1","1","competitive","left","2.0001411438","1600.95266104","2.9998588562","1604.12306404","3.01245808601","1607.13558507","2.98754191399","1610.15675902","1611.25261998","1611.32489896","1614.32785702","1","1614.34175491","1620.269346","1419.24664307"
"00001","","2","2","36","1620.4470129","inverse","2","1","1","¿Cual es el segundo 
monte más alto?","Kanchenjunga","K2","","1","1","1","competitive","left","1.8006169796","1622.24769092","3.1993830204","1625.61805487","3.71651697159","1629.33461094","2.28348302841","1631.66804385","1633.12038088","1633.20281696","1636.20575786","1","1636.22021198","1639.64995003",""
"00001","","2","3","37","1639.7886579","direct","3","1","1","¿Cuándo finalizó la construcción
 del Palacio Legislativo?","1925","1917","","0","0","1","individual","left","2.64688587189","1642.43561292","2.35311412811","1644.94411588","3.44247102737","1648.38664794","2.55752897263","1650.977911","1652.61959505","1652.66285396","1655.66582799","0","1655.67998886","1661.37753105",""
"00001","","2","4","38","1661.51501799","inverse","3","1","3","¿Cuántos integrantes tenía
 en su inicio  el cuarteto de nos?","3","4","","1","1","1","competitive","right","2.48755216599","1664.00261688","2.51244783401","1666.68533301","4.35029911995","1671.03569508","1.64970088005","1672.72264194","1673.85573006","1673.92420506","1676.92717791","1","1676.94131303","1682.59114099",""
"00001","","2","5","39","1682.727669","direct","2","1","3","¿Qué valor tiene el número pi?","3.14","4.18","left","0","0","1","competitive","left","1.54491114616","1684.2726419","3.45508885384","1687.88286495","2.56572818756","1690.44863605","3.43427181244","1693.93265986","1695.38687801","1695.46767902","1698.46995902","1","1698.48531103","1705.4063139",""
"00001","","2","6","40","1705.53676391","inverse","2","1","2","¿Cuál es la esperanza de vida
 en Uruguay?","75","77","","1","1","0","competitive","left","2.21378397942","1707.75058985","2.78621602058","1710.70992589","2.53563404083","1713.24561787","3.46436595917","1716.76138902","1718.41521907","1718.49650407","1721.49945593","1","1721.51347589","1727.97647095",""
"00001","","2","7","41","1728.116153","direct","1","1","2","¿Cuantos pisos tiene la torre 
de las comunicaciones?","26","32","","1","1","0","competitive","left","1.69748902321","1729.81368804","3.30251097679","1733.273247","3.24328017235","1736.51656699","2.75671982765","1739.30624104","1741.13503194","1741.20841694","1744.21138501","1","1744.22547889","1746.37168789",""
"00001","","2","8","42","1746.51171708","inverse","2","1","4","¿En qué país sudamericano 
no hay McDonalds?","Bolivia","Venezuela","","0","0","1","competitive","left","1.53189110756","1748.04365897","3.46810889244","1751.665905","3.97767400742","1755.6436379","2.02232599258","1757.71665597","1759.02589297","1759.10030007","1762.10331297","0","1762.11821699","1768.47789288",""
"00001","","2","9","43","1768.61974001","direct","3","1","1","¿En qué año empieza
 la Edad Media?","476","512","","1","1","1","individual","right","1.41784620285","1770.03764796","3.58215379715","1773.77371407","2.96986413002","1776.74363899","3.03013586998","1779.82554603","1781.22934103","1781.27706003","1784.28003502","1","1784.29419589","1787.28192186",""
"00001","","2","10","44","1787.42963696","inverse","3","1","4","¿Hace cuántos años surgió
 el ser humano?","200mil","300mil","","0","0","0","competitive","right","1.73690080643","1789.16658092","3.26309919357","1792.56970692","3.99787187576","1796.56763887","2.00212812424","1798.62072992","1800.50589895","1800.58818007","1803.59116793","0","1803.60661292","1806.91708994",""
"00001","","2","11","45","1807.05717301","direct","3","1","4","¿Cuántas cuadras tiene
 actualmente 18 de julio? ","36","33","","0","0","1","competitive","left","1.82233500481","1808.879565","3.17766499519","1812.21332288","4.10716700554","1816.32054496","1.89283299446","1818.24702287","1819.94927597","1820.03093886","1823.03391504","0","1823.049052","1827.774441",""
"00001","","2","12","46","1827.916224","inverse","1","1","4","¿Qué juego de equipo se 
considera mas rápido?","Lacrosse","Badminton","","0","0","0","competitive","left","1.42532920837","1829.34159708","3.57467079163","1833.07250786","3.01509404182","1836.08766007","2.98490595818","1839.12447691","1840.36757088","1840.44221401","1843.44519091","0","1843.4591589","1851.45432091",""
"00001","","2","13","47","1851.59414291","direct","1","1","3","¿Qué promedio de edad 
vive una jirafa? ","25","20","","0","0","1","competitive","right","1.17550992966","1852.76971793","3.82449007034","1856.73614502","2.28739118576","1859.023592","3.71260881424","1862.78628707","1864.54777884","1864.62179899","1867.62480688","0","1867.63886786","1873.59456801",""
"00001","","2","14","48","1873.77801704","inverse","1","1","2","¿Cuántos grandes lagos hay?","7","5","","0","0","1","competitive","left","1.51558804512","1875.293648","3.48441195488","1878.91464305","3.29892301559","1882.21360993","2.70107698441","1884.94732094","1886.23945189","1886.31592107","1889.31890607","0","1889.33337402","1897.15474105",""
"00001","","2","15","49","1897.287184","direct","3","1","2","¿Cuántos discos de estudio
 grabó Johhny Cash? ","54","43","","1","1","0","individual","right","1.61133909225","1898.89856291","3.38866090775","1902.443748","3.50689911842","1905.95069289","2.49310088158","1908.49380088","1909.77244306","1909.81210399","1912.81508088","1","1912.82951903","1919.47786593",""
"00001","","2","16","50","1919.61322498","inverse","4","1","1","¿Cuántos barrios tiene
 Montevideo? ","71","62","","0","0","1","individual","right","1.52343797684","1921.13673687","3.47656202316","1924.75485992","2.39275884628","1927.1476779","3.60724115372","1930.80450392","1931.81155896","1931.85612988","1934.85795093","0","1934.87405801","1940.33607888",""
"00001","","2","17","51","1940.47520304","direct","3","1","3","¿Qué edad tiene Homero Simpson?","36","42","","0","0","1","competitive","right","2.1663980484","1942.64167404","2.8336019516","1945.64803004","2.84756708145","1948.49563789","3.15243291855","1951.68158293","1953.05756903","1953.13300085","1956.13596392","0","1956.15004802","1960.53791189",""
"00001","","2","18","52","1960.68758798","inverse","4","1","2","¿Cuántos países con monarquía 
hay en europa actualmente? ","6","10","","1","1","1","individual","left","1.35404896736","1962.04168296","3.64595103264","1965.82491589","3.41265392303","1969.2376349","2.58734607697","1971.85927105","1973.29755092","1973.34407401","1976.345927","1","1976.36129308","1982.51795602",""
"00001","","2","19","53","1982.64638996","direct","2","1","3","¿Cuántos capítulos de
 Friends existen? ","236","228","","1","1","1","competitive","left","1.66629600525","1984.312747","3.33370399475","1987.80365205","3.18498706818","1990.98869896","2.81501293182","1993.85461402","1995.16018796","1995.23874998","1998.24173999","1","1998.25606394","2000.631706",""
"00001","","2","20","54","2000.75850487","inverse","1","1","3","¿Cuántas óperas compuso Mozart? ","27","22","","1","1","1","competitive","right","1.97242999077","2002.73102593","3.02757000923","2005.91296196","3.801653862","2009.71467686","2.198346138","2011.9635129","2013.25566006","2013.33153987","2016.33449793","1","2016.34964991","2023.66110492",""
"00001","","2","21","55","2023.83666706","direct","4","1","3","¿Cuántos mundiales de fútbol 
femenino ha realizado FIFA? ","9","7","","1","1","1","individual","right","1.60493898392","2025.441679","3.39506101608","2028.99120307","3.60040092468","2032.591645","2.39959907532","2035.03996301","2036.28378487","2036.32454705","2039.32748199","1","2039.34166503","2045.44197607",""
"00001","","2","22","56","2045.58027005","inverse","3","1","2","¿Cuál es la temperatura 
media anual en Montevideo? ","17.5","16.3","","0","0","1","individual","left","1.75136399269","2047.33169603","3.24863600731","2050.71952987","4.16305589676","2054.88262701","1.83694410324","2056.77056503","2058.70913792","2058.75421","2061.75717497","0","2061.77262688","2068.34215903",""
"00001","","2","23","57","2068.47359705","direct","2","1","2","¿En qué año se estrenó el
 videojuego The Sims? ","2000","2002","","0","0","0","competitive","right","2.09603309631","2070.56968093","2.90396690369","2073.62827706","3.86335611343","2077.4916749","2.13664388657","2079.66506386","2081.52591085","2081.60023999","2084.60322094","0","2084.61752391","2092.01117587",""
"00001","","2","24","58","2092.15195489","inverse","2","1","1","¿Cuál es la canción con 
mas covers? ","Yesterday","Stand by me","","0","0","0","individual","left","1.93269896507","2094.08475399","3.06730103493","2097.32666397","3.81595301628","2101.14265704","2.18404698372","2103.37771988","2104.77611208","2104.81185985","2107.81483603","0","2107.82887602","2111.99966908",""
"00001","","2","25","59","2112.13183784","direct","1","1","4","¿Cuánto duró la guerra
 de los 100 años?","116","123","","0","0","0","competitive","right","2.15978193283","2114.29172707","2.84021806717","2117.30311489","3.49148488045","2120.79464102","2.50851511955","2123.35467505","2124.83547306","2124.90553403","2127.90846705","0","2127.92339396","2130.2431829",""
"00001","","2","26","60","2130.39271498","inverse","4","1","4","¿Qué color tiene la  bandera de Brasil?","Amarillo","Naranja","left","0","0","1","competitive","left","1.9379131794","2132.33067703","3.0620868206","2135.54675293","2.86084794998","2138.40764499","3.13915205002","2141.58006501","2143.14651489","2143.21496105","2146.21796298","1","2146.23234487","2149.265131",""
"00001","","2","27","61","2149.43614602","direct","4","1","3","¿Qué carabela de 
Colon no volvió del viaje?","Santa María","La pinta","","0","0","1","competitive","right","2.52244520187","2151.95865607","2.47755479813","2154.60473204","4.26778316498","2158.87255502","1.73221683502","2160.65707898","2162.14815307","2162.22437096","2165.22738504","0","2165.24236608","2167.34178305",""
"00001","","2","28","62","2167.47680902","inverse","4","1","4","¿Cuántos huesos tiene
 un adulto humano?","217","206","","0","0","1","competitive","right","2.23281502724","2169.70974493","2.76718497276","2172.64628887","2.83332085609","2175.47965002","3.16667914391","2178.69737005","2179.9684279","2180.04923892","2183.0499239","0","2183.06622887","2190.901932",""
"00001","","2","29","63","2191.05475402","direct","1","1","1","¿Qué país africano fue 
fundado por esclavos?","Liberia","Chad","","0","0","0","competitive","right","1.88490915298","2192.93975687","3.11509084702","2196.22638202","3.32620000839","2199.55262303","2.67379999161","2202.259799","2204.25144792","2204.32735705","2207.32990193","0","2207.34531808","2215.33618093",""
"00001","","2","30","64","2215.480515","inverse","4","1","2","¿A cuánto asciende la cima
 del monte Everest?","7.990 mts","8.848 mts","","0","0","1","individual","left","1.69411206245","2217.17466998","3.30588793755","2220.64019704","3.78641200066","2224.42667198","2.21358799934","2226.69155288","2227.876405","2227.92500591","2230.92798591","0","2230.94218802","2238.12622595",""
"00001","","2","31","65","2238.28072596","direct","4","1","1","¿Cuál es el país mas chico?","Sealand","Luxemburgo","","1","1","1","individual","right","1.49785900116","2239.77865505","3.50214099884","2243.4350419","3.02052998543","2246.45563197","2.97947001457","2249.48523498","2251.34871602","2251.3865149","2254.38942003","1","2254.40435195","2257.52591586",""
"00001","","2","32","66","2257.67406201","inverse","2","1","4","¿Cuántas pirámides hay en Egipto?","10000","11000","","1","1","1","competitive","right","2.10952019691","2259.78364587","2.89047980309","2262.82835889","3.72717690468","2266.55559397","2.27282309532","2268.86297989","2269.896523","2269.96368694","2272.96661496","1","2272.98167491","2278.09070206",""
"00001","","3","1","67","2423.82557607","direct","2","1","2","¿Cuál es el quinto país con 
mas extensión?","Canadá","Brasil","","1","1","0","competitive","left","2.33401989937","2426.15964293","2.66598010063","2428.98148394","4.40417695045","2433.38572097","1.59582304955","2435.03152585","2436.36482501","2436.44980907","2439.45281291","1","2439.46688104","2447.19326186","2278.10518408"
"00001","","3","2","68","2447.36948895","inverse","1","1","2","¿Qué rasgo facial no tiene
 la Mona Lisa?","Cejas","Pómulos","","0","0","1","competitive","left","1.62517619133","2448.99471188","3.37482380867","2452.52676988","5.04391598701","2457.57074594","0.956084012985","2458.57533097","2460.32573986","2460.40957785","2463.41254592","0","2463.42682004","2469.69815707",""
"00001","","3","3","69","2469.8284719","direct","4","1","3","¿Cuál es el país con 
mayor población?","Esados Unidos","China","right","0","0","1","individual","right","1.73617386818","2471.56471491","3.26382613182","2474.97133994","2.04229784012","2477.01368189","3.95770215988","2481.02140999","2482.66739297","2482.70626187","2485.70922494","1","2485.72345304","2489.09078693",""
"00001","","3","4","70","2489.225528","inverse","1","1","1","La palabra dinosaurio significa","Lagarto Terrible","Lagarto Dragón","","1","1","0","competitive","right","2.63713216782","2491.86273599","2.36286783218","2494.39529896","4.95333886147","2499.34870696","1.04666113853","2500.44925499","2501.61956191","2501.69918299","2504.70216703","1","2504.71735907","2507.57914996",""
"00001","","3","5","71","2507.70190597","direct","2","1","3","¿Qué es el membrillero?","Arbol","Arbusto","","0","0","0","competitive","left","1.52875685692","2509.23072505","3.47124314308","2512.85735893","4.08825397491","2516.94567394","1.91174602509","2518.9073689","2520.86146498","2520.94174004","2523.94472504","0","2523.95960307","2530.42360902",""
"00001","","3","6","72","2530.5618279","inverse","3","1","3","¿Alrededor de qué planeta orbita 
el satélite Europa?","Jupiter","Saturno","","1","1","1","competitive","right","1.98380994797","2532.54567099","3.01619005203","2535.73541808","4.17519807816","2539.91068292","1.82480192184","2541.76775789","2543.31253195","2543.38528299","2546.38596296","1","2546.40353608","2548.608706",""
"00001","","3","7","73","2548.73834491","direct","3","1","1","¿Donde fue el mundial de 
fútbol de 1954?","Suiza","Suecia","","1","1","1","individual","left","1.36528682709","2550.10370493","3.63471317291","2553.89452195","3.48410081863","2557.37866807","2.51589918137","2559.945647","2561.19826198","2561.24658585","2564.24953604","1","2564.26399899","2568.17576885",""
"00001","","3","8","74","2568.3161509","inverse","1","1","4","¿Cuál de los 7 enanitos
no tenía barba?","Bashful","Mudito","","1","1","0","competitive","right","1.99648094177","2570.31268096","3.00351905823","2573.47060585","4.05907201767","2577.52974987","1.94092798233","2579.50601888","2581.08615899","2581.15703702","2584.16001797","1","2584.17394304","2589.10195494",""
"00001","","3","9","75","2589.24207306","direct","3","1","2","¿Cual red social es
mas utilizada mundialmente?","Instagram","Facebook","","1","1","0","individual","left","1.65061116219","2590.89275694","3.34938883781","2594.416291","2.77735114098","2597.19370103","3.22264885902","2600.44909906","2602.36646199","2602.41761994","2605.42057085","1","2605.4354229","2608.36990285",""
"00001","","3","10","76","2608.521209","inverse","4","1","1","¿Cuándo se inició la copa
 América de fútbol?","1916","1923","","1","1","1","individual","right","1.98544311523","2610.50669599","3.01455688477","2613.6907649","3.43486094475","2617.12568402","2.56513905525","2619.74335098","2621.64077497","2621.67705488","2624.67791486","1","2624.69523501","2627.35138202",""
"00001","","3","11","77","2627.48064089","direct","3","1","4","¿Cuántos presidentes de EEUU
han muerto asesinados?","3","4","","0","0","1","competitive","left","1.80998492241","2629.29068804","3.19001507759","2632.63610101","3.23757314682","2635.87371492","2.76242685318","2638.68594193","2640.16985297","2640.23748493","2643.240484","0","2643.25438094","2646.898489",""
"00001","","3","12","78","2647.05685091","inverse","2","1","4","¿Cuántas veces participó EEUU
 en la copa América?","4","5","","0","0","1","competitive","left","1.55882191658","2648.61574006","3.44117808342","2652.21205187","4.51953291893","2656.73162293","1.48046708107","2658.26104593","2659.7051549","2659.77886796","2662.78139687","0","2662.79585505","2668.91303492",""
"00001","","3","13","79","2669.06715894","direct","4","1","1","¿Cuál de estos países 
no formaba la URSS?","Azeribayán","Afganistán","","0","0","1","individual","right","1.80958890915","2670.87681508","3.19041109085","2674.24014902","3.81853413582","2678.05872107","2.18146586418","2680.29046893","2681.60350108","2681.64218092","2684.64515591","0","2684.65931988","2692.64147305",""
"00001","","3","14","80","2692.77750301","inverse","1","1","1","¿En qué año se inauguró
 el teatro Solís?","1867","1856","","0","0","0","competitive","left","1.85718512535","2694.63473296","3.14281487465","2697.93635488","3.72336792946","2701.65978694","2.27663207054","2703.98612189","2705.04244685","2705.12077188","2708.12377","0","2708.13789487","2714.78568292",""
"00001","","3","15","81","2714.93973398","direct","1","1","4","¿A qué velocidad vuela 
el avión más rápido?","3529","3874","","0","0","0","competitive","right","1.6459171772","2716.58569694","3.3540828228","2720.09758496","3.30508995056","2723.40273499","2.69491004944","2726.14774895","2727.90190887","2727.98253989","2730.98548889","0","2731.00068307","2733.11090994",""
"00001","","3","16","82","2733.25201607","inverse","3","1","4","¿De qué año es la primer 
película cinematográfica?","1897","1888","","0","0","0","competitive","left","1.43262314796","2734.68470788","3.56737685204","2738.40391397","4.0637409687","2742.46769595","1.9362590313","2744.44038296","2745.57337999","2745.64084601","2748.64191103","0","2748.6582799","2754.06591105",""
"00001","","3","17","83","2754.19256306","direct","2","1","3","¿Cuántos países 
tiene nuestro planeta?","191","194","","1","1","1","competitive","left","1.25716710091","2755.44979906","3.74283289909","2759.3334229","4.6621799469","2763.9956429","1.3378200531","2765.38463092","2766.74182606","2766.81939292","2769.82192802","1","2769.83645892","2773.07475686",""
"00001","","3","18","84","2773.20494199","inverse","2","1","2","¿Cuántos habitantes
 tiene Buenos Aires?","2.9000.000","3650000","","0","0","0","competitive","right","1.80273294449","2775.00773787","3.19726705551","2778.37772489","4.31195688248","2782.68972206","1.68804311752","2784.42816496","2785.82542801","2785.89535308","2788.89833808","0","2788.91242099","2794.74180794",""
"00001","","3","19","85","2794.88160205","direct","2","1","1","¿Cuántos kilos forman una tonelada?","1000","1500","left","1","1","1","individual","left","1.64306902885","2796.52471805","3.35693097115","2800.03874207","2.92795801163","2802.96674299","3.07204198837","2806.07138801","2807.95873499","2808.00704503","2811.00999308","1","2811.02462387","2816.98203707",""
"00001","","3","20","86","2817.12597299","inverse","4","1","4","¿Cuántos estados tiene la 
República del Perú? ","24","23","","0","0","1","individual","right","1.42176198959","2818.54780293","3.57823801041","2822.26436687","3.58434796333","2825.84877586","2.41565203667","2828.31662893","2829.33881998","2829.38377094","2832.38673592","0","2832.40083194","2837.34613705",""
"00001","","3","21","87","2837.48592806","direct","3","1","3","¿En qué año nació Cristóbal Colón? ","1451","1447","","0","0","1","individual","left","1.93579506874","2839.42177296","3.06420493126","2842.66003895","2.84866905212","2845.50874686","3.15133094788","2848.71002603","2850.55592895","2850.59587193","2853.59883094","0","2853.61294794","2857.84092999",""
"00001","","3","22","88","2857.98098898","inverse","4","1","4","¿Cuánto mide la 
Montaña Aconcagua? ","6234","6962","","0","0","1","competitive","left","1.1787109375","2859.15974689","3.8212890625","2863.13720107","4.04347896576","2867.180722","1.95652103424","2869.17147994","2870.46078992","2870.53965902","2873.54193902","0","2873.55602908","2880.73964286",""
"00001","","3","23","89","2880.87974501","direct","2","1","4","¿Cuánto mide el punto
 más profundo del océano? ","12508","11003","","0","0","1","competitive","right","1.28094410896","2882.16073704","3.71905589104","2886.03293395","3.68473291397","2889.71771097","2.31526708603","2892.0829699","2893.33449292","2893.41779208","2896.42079592","0","2896.43522787","2900.64149189",""
"00001","","3","24","90","2900.76957297","inverse","1","1","3","¿Cuántos álbumes ha publicado 
el cantante Jaime Roos? ","41","34","","0","0","1","competitive","left","1.23011112213","2901.99972987","3.76988887787","2905.90585685","3.60879397392","2909.51469588","2.39120602608","2911.9422009","2913.43115902","2913.51002908","2916.51300001","0","2916.52717304","2922.72191286",""
"00001","","3","25","91","2922.895257","direct","4","1","3","¿En qué año nació el 
ex-presidente Jorge Battle? ","1921","1927","","1","1","1","individual","right","1.65442204475","2924.54972196","3.34557795525","2928.05389905","3.70272302628","2931.75666189","2.29727697372","2934.10494685","2935.83559585","2935.87252498","2938.87542295","1","2938.88956904","2942.3755939",""
"00001","","3","26","92","2942.50856185","inverse","1","1","3","¿Cuántas presidencias 
constitucionales  hubo en Uruguay? ","41","42","","0","0","1","competitive","right","0.931164979935","2943.4397769","4.06883502007","2947.66352701","3.3741850853","2951.03775692","2.6258149147","2953.71496201","2954.91794491","2954.99916506","2958.00216198","0","2958.01635003","2963.79999185",""
"00001","","3","27","93","2963.93465185","direct","1","1","2","¿Quién escribió mas sinfonías?","Mozart","Haydn","","1","1","0","competitive","left","1.59904313087","2965.533746","3.40095686913","2969.09274292","2.8419418335","2971.93475103","3.1580581665","2975.14251995","2976.35999203","2976.44390297","2979.44688988","1","2979.46130705","2983.212713",""
"00001","","3","28","94","2983.36312795","inverse","4","1","2","¿En qué año nació Michael Jackson?","1958","1953","","1","1","1","individual","left","1.75957202911","2985.12277198","3.24042797089","2988.51814198","3.06253790855","2991.58074093","2.93746209145","2994.55172396","2996.52993894","2996.57023787","2999.57319593","1","2999.5886569","3005.44993186",""
"00001","","3","29","95","3005.58994889","direct","3","1","2","¿En qué año entró en vigencia 
la ley antitabaco en Uruguay?","2005","2006","","1","1","1","individual","right","1.59578204155","3007.18577385","3.40421795845","3010.74733806","4.3823390007","3015.12971807","1.6176609993","3016.79768395","3018.39244485","3018.43181801","3021.4347899","1","3021.448946","3026.78293395",""
"00001","","3","30","96","3026.91724801","inverse","3","1","1","¿Cuándo se subió el 
primer video a youtube?","2004","2005","","0","0","1","individual","left","1.2694439888","3028.18673491","3.7305560112","3032.05707693","3.41261792183","3035.46976304","2.58738207817","3038.10739899","3039.41306496","3039.45921993","3042.46195197","0","3042.47592497","3050.23151493",""
"00001","","3","31","97","3050.38234305","direct","2","1","1","¿Cuántos habitantes tiene India?","1200 millones","1300 millones","","0","0","0","individual","right","1.99835109711","3052.38073707","3.00164890289","3055.53540206","3.50224399567","3059.03768396","2.49775600433","3061.58597898","3063.55558395","3063.60479903","3066.60774994","0","3066.62171698","3072.66922092",""
"00001","","3","32","98","3072.80665994","inverse","4","1","2","¿A qué edad murió Bob Marley?","36","37","","0","0","1","individual","right","1.50801491737","3074.31473994","3.49198508263","3077.96478987","3.98186588287","3081.946697","2.01813411713","3084.01412892","3085.91199088","3085.94773793","3088.95067787","0","3088.96575999","3092.06596994",""
"00001","","4","1","99","3275.06417704","direct","2","1","1","¿Cuantos años dirigió la selección 
uruguaya Tabarez?","15 años","13 años","","0","0","0","individual","left","2.48050403595","3277.54472399","2.51949596405","3280.232687","4.06504321098","3284.29779196","1.93495678902","3286.28576207","3287.47687697","3287.52125001","3290.52192092","0","3290.53796387","3297.60994101","3092.08121204"
"00001","","4","2","100","3297.739501","inverse","4","1","1","¿Cuantas teclas tiene un teclado 
de computadora generalmente? ","Entre 99 y 108","Entre 109 y 113","","1","1","1","individual","left","1.35125517845","3299.09082985","3.64874482155","3302.91159201","5.14010596275","3308.05176497","0.859894037247","3308.96408892","3309.96685886","3310.01506591","3313.01803493","1","3313.03242493","3315.403929",""
"00001","","4","3","101","3315.55022502","direct","1","1","1","¿Cuál Departamento tiene
 mayor superficie?","Río Negro","Soriano","","0","0","0","competitive","right","1.6685090065","3317.21880293","3.3314909935","3320.6898489","3.66386795044","3324.35375595","2.33613204956","3326.74048591","3328.45395994","3328.52491999","3331.52786899","0","3331.54211593","3335.86820292",""
"00001","","4","4","102","3336.01033306","inverse","3","1","2","¿Cuál es el apellido de las 
hermanastras  de  cenicienta?","Tremaine","Truman","","0","0","1","individual","right","2.16035103798","3338.170748","2.83964896202","3341.18327689","4.07845592499","3345.26178002","1.92154407501","3347.21782589","3349.08733702","3349.13506293","3352.13799286","0","3352.15307403","3354.84903193",""
"00001","","4","5","103","3354.98803902","direct","4","1","4","¿Cuál película ganó un
 Oscar a mejor película?","Alto Impacto","Cache","","0","0","1","competitive","left","2.75768995285","3357.74579191","2.24231004715","3360.17350888","2.91215395927","3363.08570194","3.08784604073","3366.21033287","3367.329705","3367.41194606","3370.41391587","0","3370.429106","3372.69368386",""
"00001","","4","6","104","3372.83063602","inverse","1","1","3","¿A cuántos centímetros
equivale la medida pié?","25","30","","0","0","1","competitive","left","1.82212495804","3374.65283489","3.17787504196","3377.98539996","4.69924592972","3382.68469","1.30075407028","3384.03732896","3385.07733393","3385.15362501","3388.15658307","0","3388.17077088","3393.57173204",""
"00001","","4","7","105","3393.70650506","direct","2","1","2","¿Qué departamento es mas grande?","Cerro Largo","Paysandú","","0","0","0","competitive","right","1.83122801781","3395.53777385","3.16877198219","3398.89638686","2.95235800743","3401.84878707","3.04764199257","3404.94635987","3406.54594088","3406.63174486","3409.63472605","0","3409.64885592","3413.75883198",""
"00001","","4","8","106","3413.90117097","inverse","2","1","3","¿Quién pintó la Mona Lisa?","Picasso","Da Vinci","right","0","0","1","competitive","left","0.941581010818","3414.84279585","4.05841898918","3419.05570602","3.12301301956","3422.17878604","2.87698698044","3425.10709691","3426.7129159","3426.79204607","3429.79502988","0","3429.80902886","3431.97135806",""
"00001","","4","9","107","3432.12754703","direct","4","1","3","¿Cuántos litros hay en un galon?","3.54","3.78","","1","1","1","individual","right","1.5601580143","3433.687747","3.4398419857","3437.28351808","3.98921298981","3441.27279186","2.01078701019","3443.33351803","3444.85142899","3444.901016","3447.90395308","1","3447.91862392","3453.71093106",""
"00001","","4","10","108","3453.85358286","inverse","4","1","1","¿Cuántas teclas tiene
 un piano moderno?","80","88","","0","0","1","individual","left","1.85015797615","3455.70378685","3.14984202385","3459.0275929","3.78404092789","3462.81167293","2.21595907211","3465.07793307","3466.08644295","3466.12877703","3469.13170791","0","3469.14564896","3475.94343591",""
"00001","","4","11","109","3476.08123493","direct","4","1","3","¿Cuántos países hay en África?","54","62","","0","0","1","individual","left","2.17649197578","3478.257797","2.82350802422","3481.23906589","3.39073109627","3484.62987185","2.60926890373","3487.28965688","3488.98020196","3489.02387595","3492.026829","0","3492.04184484","3499.84658098",""
"00001","","4","12","110","3499.99324703","inverse","1","1","3","¿En qué siglo se crearon
 las primeras pistolas?","XV","XIII","","1","1","1","competitive","left","1.22447991371","3501.21779108","3.77552008629","3505.13461804","3.82311105728","3508.95778894","2.17688894272","3511.18482995","3513.13273907","3513.20327497","3516.20625997","1","3516.22032905","3519.45342088",""
"00001","","4","13","111","3519.58936","direct","3","1","4","¿En qué año se estrenó 
la serie friends?","1994","1995","","0","0","1","competitive","left","1.30236101151","3520.89179206","3.69763898849","3524.74418497","3.05447888374","3527.79872298","2.94552111626","3530.79379296","3532.66915393","3532.74526691","3535.74825001","0","3535.76348305","3540.76954007",""
"00001","","4","14","112","3540.93118501","inverse","3","1","4","¿En qué año nació Hitler?","1889","1887","","0","0","1","competitive","right","1.88457012177","3542.81582594","3.11542987823","3546.08871984","2.50303506851","3548.59179902","3.49696493149","3552.13859701","3553.252985","3553.339607","3556.34256506","0","3556.35683799","3561.38382697",""
"00001","","4","15","113","3561.54279804","direct","1","1","4","¿Cuánto pesa un elefante Africano?","6000 kilos","5400 kilos","","0","0","0","competitive","right","1.36491298676","3562.90775299","3.63508701324","3566.69911194","3.13560700417","3569.83475995","2.86439299583","3572.74997687","3574.10587788","3574.18406296","3577.18705201","0","3577.20214105","3583.90919995",""
"00001","","4","16","114","3584.0535059","inverse","1","1","2","¿Qué porcentaje de 
la población es zurda?","10%","7%","","1","1","0","competitive","right","1.53019404411","3585.58376789","3.46980595589","3589.21078396","4.19592404366","3593.40676689","1.80407595634","3595.25903106","3596.50233293","3596.57692003","3599.57991385","1","3599.59413099","3605.5738709",""
"00001","","4","17","115","3605.71220589","direct","1","1","2","¿En qué año se estrenó
Volver al futuro?","1984","1985","","0","0","1","competitive","left","1.50655388832","3607.21883392","3.49344611168","3610.85588098","3.83985686302","3614.69578195","2.16014313698","3616.906111","3618.46789789","3618.54033303","3621.54195499","0","3621.55844307","3628.64591503",""
"00001","","4","18","116","3628.79294586","inverse","3","1","2","¿Cuántos jugadores hay en un 
equipo de baseball?","9","8","","1","1","0","individual","left","1.52879309654","3630.3218019","3.47120690346","3633.95117998","3.35960078239","3637.31083989","2.64039921761","3639.98395991","3641.59821296","3641.63599706","3644.63896585","1","3644.65308499","3649.63032699",""
"00001","","4","19","117","3649.80468488","direct","2","1","1","¿Cuántos Oscar ganó
 la película titanic?","13","11","","1","1","1","individual","left","2.56405496597","3652.36880302","2.43594503403","3654.97677803","2.70192313194","3657.67875504","3.29807686806","3661.02809405","3662.33015704","3662.38038707","3665.38336086","1","3665.39754105","3670.00021505",""
"00001","","4","20","118","3670.13175201","inverse","4","1","4","¿En qué año comenzó
la segunda guerra mundial?","1939","1976","left","0","0","1","competitive","left","2.86296319962","3672.99477887","2.13703680038","3675.28752804","5.67919301987","3680.96678805","0.320806980133","3681.32354403","3683.12338495","3683.20742893","3686.21043205","1","3686.224545","3690.20995808",""
"00001","","4","21","119","3690.34253693","direct","2","1","4","¿Cuántos biomas hay en Uruguay?","5","4","","0","0","1","competitive","left","1.48222398758","3691.82480693","3.51777601242","3695.49955606","3.68921399117","3699.1888299","2.31078600883","3701.54967189","3703.34703302","3703.41772485","3706.42069006","0","3706.43488908","3712.68430996",""
"00001","","4","22","120","3712.81957507","inverse","2","1","3","¿Cuándo murió Pablo Escobar?","1993","1997","","1","1","1","competitive","left","1.08419203758","3713.90383291","3.91580796242","3717.96090007","3.99988913536","3721.96082997","2.00011086464","3724.01083207","3725.79362798","3725.86184096","3728.86482692","1","3728.88021207","3734.58386898",""
"00001","","4","23","121","3734.71478605","direct","1","1","4","¿Qué serie ha ganado mas premios?","Friends","Murphy Brown","","1","1","0","competitive","left","1.075922966","3735.79077196","3.924077034","3739.85450697","3.53619980812","3743.39076686","2.46380019188","3745.90580201","3747.25791287","3747.34061599","3750.34357786","1","3750.35758495","3755.91791296",""
"00001","","4","24","122","3756.07520294","inverse","4","1","2","¿Cuántas fichas tiene el dominó?","26","28","","1","1","1","individual","left","1.27556800842","3757.35083604","3.72443199158","3761.23126006","3.45551013947","3764.68683696","2.54448986053","3767.28304505","3768.33836889","3768.38384795","3771.38682103","1","3771.40120292","3776.64430904",""
"00001","","4","25","123","3776.78579092","direct","2","1","4","¿Cuántos son los dientes de leche?","20","25","","0","0","1","competitive","right","1.11097288132","3777.89681005","3.88902711868","3781.92640805","3.83032894135","3785.756778","2.16967105865","3787.96007705","3789.67045307","3789.74540687","3792.74592185","0","3792.76329303","3794.90900302",""
"00001","","4","26","124","3795.047369","inverse","3","1","3","¿Cuántos gramos son una onza?","22","28","","0","0","1","competitive","left","2.63140702248","3797.67884994","2.36859297752","3800.201401","2.29030299187","3802.49175692","3.70969700813","3806.25347805","3808.24833298","3808.3209219","3811.32389498","0","3811.33908606","3817.62933993",""
"00001","","4","27","125","3817.7735889","direct","3","1","1","¿Cuándo salió el primer album
 de los Beatles?","1963","1962","","1","1","1","individual","left","1.20818591118","3818.98183894","3.79181408882","3822.91405892","3.87877893448","3826.79290104","2.12122106552","3828.94857407","3830.11219406","3830.14972496","3833.14990997","1","3833.16698098","3836.93791485",""
"00001","","4","28","126","3837.06789589","inverse","3","1","3","¿Quién fundó la empresa apple?","Carlos Slim","Steve Jobs","","1","1","1","individual","right","1.95591402054","3839.02385902","3.04408597946","3842.22423601","3.79148817062","3846.01578593","2.20851182938","3848.25662398","3849.37129593","3849.40760708","3852.40990496","1","3852.42526603","3858.7231009",""
"00001","","4","29","127","3858.85992098","direct","4","1","2","¿Cuántos municipios hay
 en Montevideo?","8","7","","1","1","1","individual","right","1.23480796814","3860.09477091","3.76519203186","3864.01925898","3.01253390312","3867.03185201","2.98746609688","3870.052634","3871.96741891","3872.00349903","3875.00648308","1","3875.02163196","3877.10277295",""
"00001","","4","30","128","3877.24042487","inverse","1","1","1","¿Cuántos kilómetros hay
 de Montevideo a Artigas?","632","599","","0","0","0","competitive","right","1.04931807518","3878.28978801","3.95068192482","3882.39465594","2.93109488487","3885.32579207","3.06890511513","3888.44471407","3889.92781806","3889.99717307","3893.00013089","0","3893.01415706","3899.06627607",""
"00001","","4","31","129","3899.19975591","direct","2","1","2","¿En qué año nació 
Leonardo Da Vinci?","1452","1511","","1","1","0","competitive","right","1.11701488495","3900.31681395","3.88298511505","3904.35601497","2.53675818443","3906.89281201","3.46324181557","3910.40604401","3912.25963402","3912.34170485","3915.34464788","1","3915.35867095","3918.50507498",""
"00001","","4","32","130","3918.67749691","inverse","3","1","1","¿A qué continente
 pertenece el país Gabón?","Africa","Oceanía","","0","0","1","individual","left","1.1593170166","3919.83688593","3.8406829834","3923.830338","3.8333799839","3927.66378188","2.1666200161","3929.88237095","3931.69404602","3931.73311901","3934.73395896","0","3934.75130987","3939.98921204",""
