"code","nro_aplicante","nro_bloque","nro_trial_bloque","nro_trial_global","show_game_type","choice_order","rival","pay_individual","pay_competitive","question","answer_left_text","answer_right_text","correct_answer","outcome_individual","outcome_competitive","outcome_rival","game_type","answer","social_time","rt_game_type","feedback_delay","show_question","answer_time","rt_answer_global","feedback_delay_2","show_jitter","jitter_time","show_outcome","outcome_time","outcome_participant_real","show_final_jitter","second_jitter_time","inicio_descanso"
"sujeto_68df437b","1","1","1","1","2194.47487807","direct","3","1","4","¿Cuántos centímetros corresponden
al talle 36 del calzado?","23","24","","0","0","1","competitive","right","2.37981104851","2196.85475111","2.62018895149","2199.66288614","3.36891913414","2203.03185606","2.63108086586","2205.71389413","2206.74218798","2206.815979","2209.81894898","0","2209.83257198","2211.99429607",""
"sujeto_68df437b","1","1","2","2","2212.13421011","inverse","3","1","2","¿Cuántas metros mide la Intendencia
Municipal de Montevideo? ","84","78","","0","0","1","competitive","right","1.49672913551","2213.631006","3.50327086449","2217.28877306","3.66718387604","2220.95599794","2.33281612396","2223.33952808","2225.21757293","2225.30788898","2228.31085706","0","2228.32544398","2230.41820407",""
"sujeto_68df437b","1","1","3","3","2230.57775116","direct","1","1","3","¿Cuántas La Pasiva
 hay en uruguay?","15","11","","1","1","1","competitive","left","1.25917601585","2231.83698606","3.74082398415","2235.73182797","2.74526381493","2238.47715402","3.25473618507","2241.76536703","2243.37698698","2243.45071411","2246.45369101","1","2246.46794605","2250.74625015",""
"sujeto_68df437b","1","1","4","4","2250.8862071","inverse","3","1","3","¿De que color es la camiseta de uruguay?","blanca","celeste","right","1","1","1","competitive","right","1.22398710251","2252.11024904","3.77601289749","2256.04107094","2.21519112587","2258.25630093","3.78480887413","2262.09373999","2263.29851913","2263.37761903","2266.38059306","1","2266.39577913","2269.84971094",""
"sujeto_68df437b","1","1","5","5","2269.99705601","direct","2","1","1","¿Cuánto metros mide
la torre Eiffel?","333","324","","1","1","1","competitive","right","1.27039694786","2271.26749706","3.72960305214","2275.16964316","2.58178901672","2277.75149798","3.41821098328","2281.21997809","2282.74134803","2282.82117605","2285.82416296","1","2285.83867812","2292.87538004",""
"sujeto_68df437b","1","1","6","6","2293.02399802","inverse","3","1","4","¿Cuantas ciudades existen
 en todo el uruguay?","63","72","","0","0","1","competitive","right","1.15663981438","2294.18070507","3.84336018562","2298.18175101","2.58292102814","2300.76473093","3.41707897186","2304.23141098","2305.28624511","2305.36722398","2308.37021708","0","2308.38368416","2316.01027513",""
"sujeto_68df437b","1","1","7","7","2316.15162206","direct","1","1","1","¿Cuantos estados tiene África?","52","54","","1","1","0","competitive","left","0.991164922714","2317.14283109","4.00883507729","2321.310817","3.3940050602","2324.70487905","2.6059949398","2327.34371114","2329.20773411","2329.29544806","2332.29830098","1","2332.31354499","2338.07456398",""
"sujeto_68df437b","1","1","8","8","2338.23147202","inverse","4","1","4","¿En qué año nació
 Stephen Hawking?","1952","1942","","0","0","1","competitive","right","1.33946704865","2339.57099915","3.66053295135","2343.40376902","2.84824204445","2346.2520721","3.15175795555","2349.45471907","2350.89901805","2350.97296","2353.97590709","0","2353.99114704","2360.09052205",""
"sujeto_68df437b","1","1","9","9","2360.24218106","direct","2","1","3","¿Cuánto años tenía Artigas
 cuando se fue a Paraguay?","56","57","","1","1","1","competitive","left","1.10103702545","2361.34329414","3.89896297455","2365.4156661","2.8096101284","2368.22533607","3.1903898716","2371.44900107","2372.99848914","2373.0833621","2376.08634615","1","2376.10085702","2382.14813709",""
"sujeto_68df437b","1","1","10","10","2382.30472493","inverse","1","1","2","¿Cuantos milímetros 
mide una hoja A2?","420x592","420x594","","0","0","1","competitive","right","1.07765698433","2383.38243198","3.92234301567","2387.46123004","3.51023411751","2390.97152209","2.48976588249","2393.49524498","2395.06365204","2395.14682102","2398.14979911","0","2398.164433","2405.23806906",""
"sujeto_68df437b","1","1","11","11","2405.38191795","direct","3","1","3","¿Cuál es la menor temperatura 
registrada en Uruguay?","-5.4","-7.4","","0","0","1","competitive","left","1.12568497658","2406.50767708","3.87431502342","2410.54000807","3.35964488983","2413.8997221","2.64035511017","2416.57440209","2418.25645614","2418.34205699","2421.345047","0","2421.35935593","2425.09262705",""
"sujeto_68df437b","1","1","12","12","2425.22770214","inverse","2","1","2","¿Cuantos años hace que 
se fundó facebook?","18","17","","0","0","0","competitive","left","1.15810012817","2426.38584709","3.84189987183","2430.38357306","2.99924397469","2433.38285613","3.00075602531","2436.43443012","2437.80719805","2437.88625002","2440.88922715","0","2440.90438008","2443.67901897",""
"sujeto_68df437b","1","1","13","13","2443.82108712","direct","1","1","4","¿Cuál animal es más
 pesado en promedio?","Rinoceronte","Hipopotamo","","0","0","0","competitive","right","1.18676710129","2445.0079","3.81323289871","2448.97594213","3.04093599319","2452.01693296","2.95906400681","2455.0764451","2456.15568304","2456.24368","2459.24667311","0","2459.2613821","2463.10234809",""
"sujeto_68df437b","1","1","14","14","2463.24620008","inverse","1","1","2","¿Qué personaje de dragon ball 
murió más veces?","Chaoz","Krillin","","1","1","0","competitive","left","1.01491999626","2464.26120996","3.98508000374","2468.40315294","4.25294494629","2472.65613794","1.74705505371","2474.45399714","2475.91184306","2475.98897505","2478.99198699","1","2479.00653195","2486.77946305",""
"sujeto_68df437b","1","1","15","15","2486.92405295","direct","3","1","2","La universidad de oxford. 
existe desde:","1096","1249","","1","1","0","competitive","right","0.950229883194","2487.87435603","4.04977011681","2492.08231497","3.01696109772","2495.09931803","2.98303890228","2498.13326216","2499.18208814","2499.26822901","2502.27120996","1","2502.28036404","2508.97124004",""
"sujeto_68df437b","1","1","16","16","2509.11451101","inverse","3","1","1","¿Qué escritor latino ganó antes
 el premio nobel?"," García Marquez","Neruda","","0","0","1","competitive","right","1.06297397614","2510.17754698","3.93702602386","2514.27774596","4.32775092125","2518.60553813","1.67224907875","2520.32927513","2522.06931305","2522.14662194","2525.14955807","0","2525.1638031","2528.62436604",""
"sujeto_68df437b","1","1","17","17","2528.78299999","direct","4","1","3","¿Cuántos dientes tiene un
 tiburón blanco?","6000","3000","","0","0","1","competitive","right","1.36661291122","2530.14967799","3.63338708878","2533.95291495","2.66978788376","2536.62274098","3.33021211624","2540.00403309","2541.04304004","2541.12235904","2544.12533593","0","2544.13891006","2548.94860196",""
"sujeto_68df437b","1","1","18","18","2549.10725307","inverse","4","1","1","¿Cuánto mide el paralelo Ecuador?","40.000km","70.000km","","0","0","1","competitive","right","1.01255297661","2550.11985111","3.98744702339","2554.26611114","3.6447160244","2557.91088796","2.3552839756","2560.29563904","2562.25171304","2562.32582116","2565.328722","0","2565.34399605","2568.94657612",""
"sujeto_68df437b","1","1","19","19","2569.08143711","direct","4","1","2","¿Cuál fue el primer libro 
de Stephen King?","Carrie","The Stand","","1","1","1","competitive","left","1.14950609207","2570.23098803","3.85049390793","2574.24203515","2.9819791317","2577.22407699","3.0180208683","2580.29246306","2582.03657007","2582.11067295","2585.11365795","1","2585.12881899","2589.60159016",""
"sujeto_68df437b","1","1","20","20","2589.76375508","inverse","2","1","3","¿Qué civilización practicaba
 la momificación?","Grecia","Egipto","right","0","0","1","competitive","right","1.34544801712","2591.10928011","3.65455198288","2594.93656516","2.82366394997","2597.76028609","3.17633605003","2600.98714709","2602.92648315","2603.00477099","2606.00776005","1","2606.02327514","2610.25207996",""
"sujeto_68df437b","1","1","21","21","2610.40747595","direct","4","1","4","¿Cuántos millones de visitas
 recibe google por minuto?","3.0","4.5","","0","0","1","competitive","right","1.14390897751","2611.55142903","3.85609102249","2615.56468415","3.36570906639","2618.93043303","2.63429093361","2621.61549306","2623.13031912","2623.21668196","2626.21961498","0","2626.23405814","2633.35673809",""
"sujeto_68df437b","1","1","22","22","2633.48493409","inverse","1","1","3","La máquina de fax. se inventó en:","1843","1960","","0","0","1","competitive","right","0.880573034286","2634.36555696","4.11942696571","2638.64226007","2.71330904961","2641.35562801","3.28669095039","2644.67656612","2645.91867709","2645.9945631","2648.99749207","0","2649.01199198","2652.24829316",""
"sujeto_68df437b","1","1","23","23","2652.39720011","direct","2","1","4","En la verdadera historia de los
 300 espartanos. habían:","300 soldados","4300 soldados","","1","1","1","competitive","right","0.920989990234","2653.31826711","4.07901000977","2657.56845999","4.51920294762","2662.08769798","1.48079705238","2663.62054014","2664.88175201","2664.95416713","2667.95714307","1","2667.97128201","2671.77306509",""
"sujeto_68df437b","1","1","24","24","2671.92339897","inverse","1","1","4","¿Cuántos milímetros crece
 el pelo por día?","0.4","0.04","","0","0","0","competitive","left","1.29846405983","2673.22191405","3.70153594017","2677.07497406","2.90892696381","2679.98397207","3.09107303619","2683.12641406","2684.88713813","2684.96121216","2687.96415401","0","2687.9787271","2694.71382809",""
"sujeto_68df437b","1","1","25","25","2694.86361504","direct","4","1","1","¿Cuánto mide la baldosa gris 
clásica de Montevideo?","22x22 cm.","20x20 cm.","","1","1","1","competitive","right","1.58748292923","2696.45114303","3.41251707077","2700.02473807","3.3883869648","2703.41317606","2.6116130352","2706.0757091","2708.07095408","2708.14390612","2711.14690113","1","2711.16153908","2716.70435309",""
"sujeto_68df437b","1","1","26","26","2716.86356616","inverse","2","1","2","¿Cuántas películas de rápidos
 y furiosos hay?","10","11","","1","1","0","competitive","right","0.795717954636","2717.65938401","4.20428204536","2722.01987696","2.33732891083","2724.35724306","3.66267108917","2728.06967497","2729.42725515","2729.504498","2732.50747108","1","2732.52211809","2734.55683994",""
"sujeto_68df437b","1","1","27","27","2734.70794296","direct","3","1","1","¿Cuántos masters 1000
 ganó Del Potro?","1","2","","1","1","1","competitive","right","0.887492895126","2735.59548807","4.11250710487","2739.86207414","2.97435808182","2742.83647513","3.02564191818","2745.91342115","2747.66804099","2747.74843907","2750.75136495","1","2750.765553","2758.16191697",""
"sujeto_68df437b","1","1","28","28","2758.29959416","inverse","2","1","4","¿Cuántos meses dura el 
embarazo de una leona?","3 meses","4 meses","","0","0","1","competitive","right","1.10501408577","2759.40467095","3.89498591423","2763.47028494","3.03732895851","2766.507653","2.96267104149","2769.52168703","2770.63276196","2770.70623398","2773.70924211","0","2773.72383499","2780.44632506",""
"sujeto_68df437b","1","1","29","29","2780.59219003","direct","1","1","1","¿En qué año fue creado
 el sandwich?","1762","1653","","1","1","0","competitive","right","1.20151281357","2781.79375815","3.79848718643","2785.75307298","3.20078992844","2788.95392704","2.79921007156","2791.80325699","2793.40181994","2793.48833895","2796.49133801","1","2796.50579715","2799.97645307",""
"sujeto_68df437b","1","1","30","30","2800.126127","inverse","4","1","2","El nombre de la moneda de Vietnam es:","Dinar","Dong","","0","0","1","competitive","right","0.918901920319","2801.04508209","4.08109807968","2805.29658914","2.7984290123","2808.09506106","3.2015709877","2811.34719896","2812.77919507","2812.86537313","2815.86835909","0","2815.88172507","2822.05015898",""
"sujeto_68df437b","1","1","31","31","2822.18379807","direct","2","1","1","¿cuantos aleteos puede dar 
un colibrí por segundo?","120","50","","0","0","0","competitive","left","1.11739420891","2823.30127096","3.88260579109","2827.34189296","3.14033889771","2830.48229313","2.85966110229","2833.39203405","2835.12442994","2835.21083498","2838.21380901","0","2838.22810793","2842.44038916",""
"sujeto_68df437b","1","1","32","32","2842.5790031","inverse","4","1","3","¿Qué altura promedio tienen
 los hombres uruguayos?","1.73 m","1.72 m","","1","1","1","competitive","right","1.14236497879","2843.721421","3.85763502121","2847.74747801","2.27287006378","2850.02039313","3.72712993622","2853.79841614","2855.06084299","2855.13389206","2858.13688397","1","2858.15146399","2862.62739515",""
"sujeto_68df437b","1","2","1","33","2983.80387807","direct","1","1","1","¿En qué año nació 
el actor Bradd Pitt?","1967","1963","","1","1","1","competitive","left","1.23165106773","2985.03559113","3.76834893227","2988.95848012","3.21004796028","2992.16858506","2.78995203972","2994.991395","2996.08726001","2996.15984607","2999.16284108","1","2999.17730904","3005.10490108","2862.64250612"
"sujeto_68df437b","1","2","2","34","3005.24581313","inverse","2","1","1","¿Cual es el segundo 
monte más alto?","Kanchenjunga","K2","","1","1","1","competitive","left","1.57685494423","3006.82271099","3.42314505577","3010.38766694","3.2060739994","3013.59378409","2.7939260006","3016.43835306","3017.89075899","3017.97254705","3020.97554612","1","3020.99014497","3024.4200561",""
"sujeto_68df437b","1","2","3","35","3024.55836701","direct","3","1","1","¿Cuándo finalizó la construcción
 del Palacio Legislativo?","1925","1917","","0","0","1","competitive","left","0.763525009155","3025.32193899","4.23647499084","3029.73013902","3.90377402306","3033.63397908","2.09622597694","3035.78165293","3037.42336297","3037.49932313","3040.50231194","0","3040.51772213","3046.21528816",""
"sujeto_68df437b","1","2","4","36","3046.36820197","inverse","3","1","3","¿Cuántos integrantes tenía
 en su inicio  el cuarteto de nos?","3","4","","1","1","1","competitive","left","0.75083899498","3047.11911106","4.24916100502","3051.54130793","3.64680600166","3055.18819809","2.35319399834","3057.592381","3058.72547603","3058.81023216","3061.81322098","1","3061.82748795","3067.47730613",""
"sujeto_68df437b","1","2","5","37","3067.61180806","direct","2","1","3","¿Qué valor tiene el número pi?","3.14","4.18","left","0","0","1","competitive","left","1.10880017281","3068.72068","3.89119982719","3072.76841116","2.67783498764","3075.44630694","3.32216501236","3078.80142307","3080.25565815","3080.33729696","3083.34026694","1","3083.35470915","3090.27570415",""
"sujeto_68df437b","1","2","6","38","3090.42221498","inverse","2","1","2","¿Cuál es la esperanza de vida
 en Uruguay?","75","77","","1","1","0","competitive","left","1.07019495964","3091.49247313","3.92980504036","3095.58222795","2.773250103","3098.35553598","3.226749897","3101.63284802","3103.28666902","3103.36679506","3106.36973596","1","3106.38428998","3112.84733796",""
"sujeto_68df437b","1","2","7","39","3112.98552203","direct","1","1","2","¿Cuantos pisos tiene la torre 
de las comunicaciones?","26","32","","1","1","0","competitive","right","1.02299380302","3114.00856709","3.97700619698","3118.143538","3.73711180687","3121.88068914","2.26288819313","3124.19495106","3126.02374601","3126.11188006","3129.11486316","1","3129.12952113","3131.27575302",""
"sujeto_68df437b","1","2","8","40","3131.41480494","inverse","2","1","4","¿En qué país sudamericano 
no hay McDonalds?","Bolivia","Venezuela","","0","0","1","competitive","right","0.909944057465","3132.32479501","4.09005594254","3136.569175","3.01057505608","3139.57981515","2.98942494392","3142.60341215","3143.91276908","3143.988657","3146.99162793","0","3147.00577998","3153.36550903",""
"sujeto_68df437b","1","2","9","41","3153.50741315","direct","3","1","1","¿En qué año empieza
 la Edad Media?","476","512","","1","1","1","competitive","left","0.841510057449","3154.34897208","4.15848994255","3158.66301107","2.56690716743","3161.229954","3.43309283257","3164.71110296","3166.11484194","3166.19675899","3169.19978309","1","3169.2137351","3172.20225215",""
"sujeto_68df437b","1","2","10","42","3172.33209205","inverse","3","1","4","¿Hace cuántos años surgió
 el ser humano?","200mil","300mil","","0","0","0","competitive","left","1.01910686493","3173.35128498","3.98089313507","3177.49096107","3.32916522026","3180.82021904","2.67083477974","3183.541399","3185.42740512","3185.51018715","3188.51311302","0","3188.52728605","3191.83776808",""
"sujeto_68df437b","1","2","11","43","3191.97915411","direct","3","1","4","¿Cuántas cuadras tiene
 actualmente 18 de julio? ","36","33","","0","0","1","competitive","right","1.09016799927","3193.06936812","3.90983200073","3197.13442111","5.14587306976","3202.28033614","0.854126930237","3203.16970897","3204.87197804","3204.95341611","3207.95640612","0","3207.97158003","3212.69787216",""
"sujeto_68df437b","1","2","12","44","3212.83889914","inverse","1","1","4","¿Qué juego de equipo se 
considera mas rápido?","Lacrosse","Badminton","","0","0","0","competitive","left","0.719570159912","3213.55851412","4.28042984009","3217.99263501","3.28881788254","3221.28150916","2.71118211746","3224.0446291","3225.28773808","3225.36284709","3228.36582494","0","3228.38030815","3236.37543201",""
"sujeto_68df437b","1","2","13","45","3236.51463103","direct","1","1","3","¿Qué promedio de edad 
vive una jirafa? ","25","20","","0","0","1","competitive","left","0.972997903824","3237.48769999","4.02700209618","3241.65669298","2.87297606468","3244.529706","3.12702393532","3247.70742702","3249.468925","3249.54217315","3252.54518008","0","3252.55971813","3258.51543999",""
"sujeto_68df437b","1","2","14","46","3258.66147995","inverse","1","1","2","¿Cuántos grandes lagos hay?","7","5","","0","0","1","competitive","left","0.751306056976","3259.41284895","4.24869394302","3263.83659911","3.66026616096","3267.49690413","2.33973383904","3269.87072396","3271.16285896","3271.25504899","3274.25803304","0","3274.27256012","3282.09389997",""
"sujeto_68df437b","1","2","15","47","3282.24070096","direct","3","1","2","¿Cuántos discos de estudio
 grabó Johhny Cash? ","54","43","","1","1","0","competitive","left","0.887351989746","3283.12809896","4.11264801025","3287.41481113","3.5852701664","3291.00013995","2.4147298336","3293.46647096","3294.745116","3294.81720304","3297.82019806","1","3297.83452916","3304.48544812",""
"sujeto_68df437b","1","2","16","48","3304.63634896","inverse","4","1","1","¿Cuántos barrios tiene
 Montevideo? ","71","62","","0","0","1","competitive","left","0.793943881989","3305.43036294","4.20605611801","3309.79386497","2.63142299652","3312.42532706","3.36857700348","3315.84404516","3316.85109305","3316.92880416","3319.93180108","0","3319.94597912","3325.4080081",""
"sujeto_68df437b","1","2","17","49","3325.54805207","direct","3","1","3","¿Qué edad tiene Homero Simpson?","36","42","","0","0","1","competitive","right","0.775329113007","3326.32343197","4.22467088699","3330.70182514","3.05254602432","3333.75443602","2.94745397568","3336.75380611","3338.12986708","3338.21598697","3341.21896601","0","3341.24060893","3345.62938809",""
"sujeto_68df437b","1","2","18","50","3345.77359414","inverse","4","1","2","¿Cuántos países con monarquía 
hay en europa actualmente? ","6","10","","1","1","1","competitive","left","0.741091966629","3346.51474905","4.25890803337","3350.93121099","3.46958184242","3354.40083194","2.53041815758","3356.98277903","3358.42103004","3358.50064707","3361.50363803","1","3361.51813912","3367.67492914",""
"sujeto_68df437b","1","2","19","51","3367.80282903","direct","2","1","3","¿Cuántos capítulos de
 Friends existen? ","236","228","","1","1","1","competitive","right","0.875267982483","3368.67817998","4.12473201752","3372.9605391","3.16377711296","3376.1243751","2.83622288704","3378.99373007","3380.29928803","3380.37946606","3383.38245296","1","3383.39580393","3385.77144599",""
"sujeto_68df437b","1","2","20","52","3385.91513205","inverse","1","1","3","¿Cuántas óperas compuso Mozart? ","27","22","","1","1","1","competitive","left","1.07246017456","3386.98765397","3.92753982544","3391.06968713","2.98884916306","3394.05857611","3.01115083694","3397.12073612","3398.41234303","3398.48828101","3401.49127293","1","3401.50657105","3408.81805611",""
"sujeto_68df437b","1","2","21","53","3408.95715094","direct","4","1","3","¿Cuántos mundiales de fútbol 
femenino ha realizado FIFA? ","9","7","","1","1","1","competitive","right","1.03180408478","3409.98900199","3.96819591522","3414.11477399","3.03625893593","3417.15107393","2.96374106407","3420.16466999","3421.40831113","3421.4828341","3424.48581004","1","3424.50012493","3430.60259008",""
"sujeto_68df437b","1","2","22","54","3430.75249004","inverse","3","1","2","¿Cuál es la temperatura 
media anual en Montevideo? ","17.5","16.3","","0","0","1","competitive","right","0.699831962585","3431.45242095","4.30016803741","3435.91065598","4.85379195213","3440.76450801","1.14620804787","3441.9617691","3443.90034699","3443.98003793","3446.98300099","0","3446.99763298","3453.56719494",""
"sujeto_68df437b","1","2","23","55","3453.71542096","direct","2","1","2","¿En qué año se estrenó el
 videojuego The Sims? ","2000","2002","","0","0","0","competitive","right","0.849305152893","3454.56477809","4.15069484711","3458.87223506","3.1886048317","3462.06089997","2.8113951683","3464.92360497","3466.78563905","3466.85801315","3469.86096406","0","3469.87564611","3477.26485014",""
"sujeto_68df437b","1","2","24","56","3477.41089106","inverse","2","1","1","¿Cuál es la canción con 
mas covers? ","Yesterday","Stand by me","","0","0","0","competitive","left","0.746356010437","3478.15729213","4.25364398956","3482.56910896","2.97018098831","3485.53935003","3.02981901169","3488.61891413","3490.01742601","3490.10388803","3493.106287","0","3493.1215651","3497.29235196",""
"sujeto_68df437b","1","2","25","57","3497.44055605","direct","1","1","4","¿Cuánto duró la guerra
 de los 100 años?","116","123","","0","0","0","competitive","left","0.821009874344","3498.26161909","4.17899012566","3502.59158111","2.48307299614","3505.07469296","3.51692700386","3508.64343214","3510.12425494","3510.19508195","3513.19807696","0","3513.21272898","3515.53254104",""
"sujeto_68df437b","1","2","26","58","3515.68119216","inverse","4","1","4","¿Qué color tiene la  bandera de Brasil?","Amarillo","Naranja","left","0","0","1","competitive","left","0.882701873779","3516.56395006","4.11729812622","3520.83823204","2.79869198799","3523.63699007","3.20130801201","3526.88883209","3528.45527506","3528.54102707","3531.54400802","1","3531.55860615","3534.59140301",""
"sujeto_68df437b","1","2","27","59","3534.74362206","direct","4","1","3","¿Qué carabela de 
Colon no volvió del viaje?","Santa María","La pinta","","0","0","1","competitive","right","0.861574888229","3535.60526109","4.13842511177","3539.89885497","4.2323820591","3544.13129711","1.7676179409","3545.95009995","3547.44022298","3547.51834106","3550.52125311","0","3550.53571606","3552.63521814",""
"sujeto_68df437b","1","2","28","60","3552.78762507","inverse","4","1","4","¿Cuántos huesos tiene
 un adulto humano?","217","206","","0","0","1","competitive","right","0.758881092072","3553.54657507","4.24111890793","3557.93695712","2.73361492157","3560.6706121","3.26638507843","3563.98942113","3565.26044607","3565.34099603","3568.34398699","0","3568.35858202","3576.19629693",""
"sujeto_68df437b","1","2","29","61","3576.32611895","direct","1","1","1","¿Qué país africano fue 
fundado por esclavos?","Liberia","Chad","","0","0","0","competitive","right","0.928775072098","3577.25494099","4.0712249279","3581.48810005","3.27480888367","3584.76296902","2.72519111633","3587.53889799","3589.53055596","3589.60738301","3592.61033201","0","3592.62433696","3600.61513901",""
"sujeto_68df437b","1","2","30","62","3600.75897002","inverse","4","1","2","¿A cuánto asciende la cima
 del monte Everest?","7.990 mts","8.848 mts","","0","0","1","competitive","left","0.674470901489","3601.43348598","4.32552909851","3605.93448806","3.02281498909","3608.95736098","2.97718501091","3611.98463202","3613.16944814","3613.25295711","3616.25594401","0","3616.27066612","3623.4546721",""
"sujeto_68df437b","1","2","31","63","3623.60503912","direct","4","1","1","¿Cuál es el país mas chico?","Sealand","Luxemburgo","","1","1","1","competitive","left","0.92297911644","3624.52806115","4.07702088356","3628.76305199","2.24766492844","3631.01078916","3.75233507156","3634.81339693","3636.67693496","3636.74881911","3639.75178194","1","3639.7665441","3642.88882709",""
"sujeto_68df437b","1","2","32","64","3643.03431201","inverse","2","1","4","¿Cuántas pirámides hay en Egipto?","10000","11000","","1","1","1","competitive","left","0.78159403801","3643.81594896","4.21840596199","3648.18941712","3.06951618195","3651.25899005","2.93048381805","3654.24107313","3655.27467012","3655.35911202","3658.36210608","1","3658.3764081","3663.48549199",""
"sujeto_68df437b","1","3","1","65","3787.2932241","direct","2","1","2","¿Cuál es el quinto país con 
mas extensión?","Canadá","Brasil","","1","1","0","competitive","left","1.43379712105","3788.72708416","3.56620287895","3792.45040512","3.77272415161","3796.22322011","2.22727584839","3798.50054598","3799.83384895","3799.91833711","3802.92132497","1","3802.93564415","3810.66204906","3663.50054097"
"sujeto_68df437b","1","3","2","66","3810.8041091","inverse","1","1","2","¿Qué rasgo facial no tiene
 la Mona Lisa?","Cejas","Pómulos","","0","0","1","competitive","left","1.02628684044","3811.83044815","3.97371315956","3815.96058798","3.42389798164","3819.384547","2.57610201836","3822.01257396","3823.76292014","3823.84727407","3826.85026598","0","3826.86452699","3833.13585114",""
"sujeto_68df437b","1","3","3","67","3833.28283215","direct","4","1","3","¿Cuál es el país con 
mayor población?","Esados Unidos","China","right","0","0","1","competitive","right","1.55681419373","3834.83971715","3.44318580627","3838.45609999","2.5356900692","3840.99183202","3.4643099308","3844.50665593","3846.15265703","3846.24106503","3849.24404597","1","3849.25870395","3852.62604904",""
"sujeto_68df437b","1","3","4","68","3852.76050496","inverse","1","1","1","La palabra dinosaurio significa","Lagarto Terrible","Lagarto Dragón","","1","1","0","competitive","left","1.05841803551","3853.81896901","3.94158196449","3857.9172411","3.83576798439","3861.753052","2.16423201561","3863.96883297","3865.13919401","3865.21938515","3868.22237611","1","3868.23705816","3871.09888601",""
"sujeto_68df437b","1","3","5","69","3871.23881793","direct","2","1","3","¿Qué es el membrillero?","Arbol","Arbusto","","0","0","0","competitive","right","0.824357032776","3872.06322098","4.17564296722","3876.40869808","3.17162108421","3879.58036113","2.82837891579","3882.46125603","3884.41537714","3884.49701405","3887.5000031","0","3887.51444697","3893.97847605",""
"sujeto_68df437b","1","3","6","70","3894.11555409","inverse","3","1","3","¿Alrededor de qué planeta orbita 
el satélite Europa?","Jupiter","Saturno","","1","1","1","competitive","right","0.776925086975","3894.89254212","4.22307491302","3899.27015305","4.53238391876","3903.80260396","1.46761608124","3905.32257915","3906.86741614","3906.94025111","3909.94325304","1","3909.95748806","3912.16264296",""
"sujeto_68df437b","1","3","7","71","3912.30944014","direct","3","1","1","¿Donde fue el mundial de 
fútbol de 1954?","Suiza","Suecia","","1","1","1","competitive","left","1.1483361721","3913.45784712","3.8516638279","3917.48218608","3.28655695915","3920.76877999","2.71344304085","3923.53287697","3924.78554916","3924.86701298","3927.86996102","1","3927.88460898","3931.79625201",""
"sujeto_68df437b","1","3","8","72","3931.95294809","inverse","1","1","4","¿Cuál de los 7 enanitos
no tenía barba?","Bashful","Mudito","","1","1","0","competitive","left","0.75701713562","3932.71002793","4.24298286438","3937.10838604","3.21669888496","3940.32512999","2.78330111504","3943.15889597","3944.73899102","3944.81103611","3947.81399298","1","3947.82833505","3952.75742507",""
"sujeto_68df437b","1","3","9","73","3952.89700913","direct","3","1","2","¿Cual red social es
mas utilizada mundialmente?","Instagram","Facebook","","1","1","0","competitive","left","0.877269983292","3953.77435112","4.12273001671","3958.05202007","2.91936612129","3960.97144508","3.08063387871","3964.10343003","3966.02079916","3966.10520196","3969.10819697","1","3969.12341905","3972.05791998",""
"sujeto_68df437b","1","3","10","74","3972.20875096","inverse","4","1","1","¿Cuándo se inició la copa
 América de fútbol?","1916","1923","","1","1","1","competitive","left","1.06674003601","3973.27555609","3.93325996399","3977.38075995","4.41283011436","3981.79365897","1.58716988564","3983.43162203","3985.32909203","3985.39982605","3988.40275311","1","3988.41721916","3991.0733521",""
"sujeto_68df437b","1","3","11","75","3991.21854305","direct","3","1","4","¿Cuántos presidentes de EEUU
han muerto asesinados?","3","4","","0","0","1","competitive","left","0.911101818085","3992.12968302","4.08889818192","3996.39037704","3.31432890892","3999.70476413","2.68567109108","4002.44138813","4003.92530513","4004.00911903","4007.01208496","0","4007.02674294","4010.67079616",""
"sujeto_68df437b","1","3","12","76","4010.82855701","inverse","2","1","4","¿Cuántas veces participó EEUU
 en la copa América?","4","5","","0","0","1","competitive","left","0.638447999954","4011.46708202","4.36155200005","4016.00046301","3.35461592674","4019.35513902","2.64538407326","4022.05157495","4023.49566197","4023.56984806","4026.57284307","0","4026.58709693","4032.70427608",""
"sujeto_68df437b","1","3","13","77","4032.85571504","direct","4","1","1","¿Cuál de estos países 
no formaba la URSS?","Azeribayán","Afganistán","","0","0","1","competitive","right","0.893579006195","4033.7493701","4.1064209938","4038.01117015","3.5162191391","4041.52743411","2.4837808609","4044.06193495","4045.37502098","4045.46393394","4048.4669261","0","4048.4806211","4056.46272898",""
"sujeto_68df437b","1","3","14","78","4056.61544514","inverse","1","1","1","¿En qué año se inauguró
 el teatro Solís?","1867","1856","","0","0","0","competitive","right","0.773108959198","4057.38861609","4.2268910408","4061.80833411","4.12832999229","4065.93670511","1.87167000771","4067.84283304","4068.89915895","4068.97743797","4071.98043895","0","4071.99394107","4078.63730502",""
"sujeto_68df437b","1","3","15","79","4078.77985597","direct","1","1","4","¿A qué velocidad vuela 
el avión más rápido?","3529","3874","","0","0","0","competitive","right","0.881963968277","4079.66189408","4.11803603172","4083.95356297","4.12629985809","4088.07990098","1.87370014191","4089.98725915","4091.74275112","4091.82239699","4094.82538414","0","4094.83995414","4096.95023704",""
"sujeto_68df437b","1","3","16","80","4097.09201097","inverse","3","1","4","¿De qué año es la primer 
película cinematográfica?","1897","1888","","0","0","0","competitive","right","0.543015003204","4097.63507009","4.4569849968","4102.2585361","3.79656910896","4106.05518007","2.20343089104","4108.29471993","4109.42721295","4109.51199913","4112.51499701","0","4112.52918816","4117.9389801",""
"sujeto_68df437b","1","3","17","81","4118.08076215","direct","2","1","3","¿Cuántos países 
tiene nuestro planeta?","191","194","","1","1","1","competitive","right","0.984538078308","4119.06537008","4.01546192169","4123.25305104","4.66929793358","4127.92239308","1.33070206642","4129.30583811","4130.66307998","4130.74018502","4133.74320197","1","4133.75669599","4136.99497509",""
"sujeto_68df437b","1","3","18","82","4137.14228511","inverse","2","1","2","¿Cuántos habitantes
 tiene Buenos Aires?","2.9000.000","3650000","","0","0","0","competitive","right","0.833212137222","4137.97554803","4.16678786278","4142.31781793","2.93069696426","4145.24857306","3.06930303574","4148.36793995","4149.76519608","4149.83655214","4152.83948898","0","4152.85394406","4158.68333697",""
"sujeto_68df437b","1","3","19","83","4158.82191515","direct","2","1","1","¿Cuántos kilos forman una tonelada?","1000","1500","left","1","1","1","competitive","left","0.732912063599","4159.55493999","4.2670879364","4164.01222897","2.52661395073","4166.5389061","3.47338604927","4170.06295514","4171.95027304","4172.03080702","4175.03377199","1","4175.04914594","4181.00655794",""
"sujeto_68df437b","1","3","20","84","4181.15279508","inverse","4","1","4","¿Cuántos estados tiene la 
República del Perú? ","24","23","","0","0","1","competitive","left","1.59721422195","4182.75005603","3.40278577805","4186.30432105","2.56378889084","4188.86815095","3.43621110916","4192.33881998","4193.36098814","4193.44148016","4196.44446111","0","4196.45871496","4201.40405107",""
"sujeto_68df437b","1","3","21","85","4201.54361105","direct","3","1","3","¿En qué año nació Cristóbal Colón? ","1451","1447","","0","0","1","competitive","right","0.711658000946","4202.25531912","4.28834199905","4206.69948697","3.11677408218","4209.81630206","2.88322591782","4212.75006294","4214.59598207","4214.66871905","4217.67169905","0","4217.68628216","4221.91427994",""
"sujeto_68df437b","1","3","22","86","4222.05467606","inverse","4","1","4","¿Cuánto mide la 
Montaña Aconcagua? ","6234","6962","","0","0","1","competitive","right","0.61883687973","4222.67357993","4.38116312027","4227.22855997","3.0419690609","4230.27056813","2.9580309391","4233.27892208","4234.56827116","4234.64799094","4237.65096712","0","4237.66511106","4244.84876013",""
"sujeto_68df437b","1","3","23","87","4245.00035","direct","2","1","4","¿Cuánto mide el punto
 más profundo del océano? ","12508","11003","","0","0","1","competitive","right","0.887475967407","4245.88789701","4.11252403259","4250.15658712","2.90223813057","4253.05886912","3.09776186943","4256.20799208","4257.45948696","4257.54256797","4260.54555798","0","4260.56032705","4264.76661205",""
"sujeto_68df437b","1","3","24","88","4264.91194201","inverse","1","1","3","¿Cuántos álbumes ha publicado 
el cantante Jaime Roos? ","41","34","","0","0","1","competitive","left","0.795044898987","4265.70705795","4.20495510101","4270.06727195","2.384745121","4272.45208001","3.615254879","4276.11827493","4277.60810995","4277.68717194","4280.69015193","0","4280.70441008","4286.90057015",""
"sujeto_68df437b","1","3","25","89","4287.03863502","direct","4","1","3","¿En qué año nació el 
ex-presidente Jorge Battle? ","1921","1927","","1","1","1","competitive","left","0.787626981735","4287.82630801","4.21237301826","4292.21193814","2.472260952","4294.68424201","3.527739048","4298.26174402","4299.9924171","4300.064749","4303.06773496","1","4303.08131099","4306.56730795",""
"sujeto_68df437b","1","3","26","90","4306.716573","inverse","1","1","3","¿Cuántas presidencias 
constitucionales  hubo en Uruguay? ","41","42","","0","0","1","competitive","right","0.643847942352","4307.36048698","4.35615205765","4311.87399006","2.82444190979","4314.69846797","3.17555809021","4317.923558","4319.12734509","4319.20906115","4322.21203995","0","4322.22665215","4328.01030397",""
"sujeto_68df437b","1","3","27","91","4328.14439797","direct","1","1","2","¿Quién escribió mas sinfonías?","Mozart","Haydn","","1","1","0","individual","left","0.506335020065","4328.65080094","4.49366497993","4333.30046797","3.69834089279","4336.99884796","2.30165910721","4339.33575106","4340.55322409","4340.60370612","4343.60666513","1","4343.62073612","4347.37217212",""
"sujeto_68df437b","1","3","28","92","4347.52174902","inverse","4","1","2","¿En qué año nació Michael Jackson?","1958","1953","","1","1","1","competitive","right","1.01922082901","4348.5410161","3.98077917099","4352.69236803","2.69862484932","4355.39105105","3.30137515068","4358.74423909","4360.72248602","4360.79686904","4363.7998631","1","4363.81405306","4369.67637801",""
"sujeto_68df437b","1","3","29","93","4369.81522703","direct","3","1","2","¿En qué año entró en vigencia 
la ley antitabaco en Uruguay?","2005","2006","","1","1","1","competitive","right","2.27304697037","4372.08835602","2.72695302963","4374.97262406","3.55364179611","4378.52630901","2.44635820389","4381.02375913","4382.61852813","4382.7087121","4385.71170402","1","4385.72636104","4391.06033707",""
"sujeto_68df437b","1","3","30","94","4391.21083093","inverse","3","1","1","¿Cuándo se subió el 
primer video a youtube?","2004","2005","","0","0","1","competitive","left","0.76301908493","4391.97392416","4.23698091507","4396.38398504","2.43747901917","4398.82152414","3.56252098083","4402.43524408","4403.74091697","4403.82007313","4406.82305503","0","4406.837538","4414.59316111",""
"sujeto_68df437b","1","3","31","95","4414.73900414","direct","2","1","1","¿Cuántos habitantes tiene India?","1200 millones","1300 millones","","0","0","0","competitive","left","1.04466605186","4415.78371501","3.95533394814","4419.89643598","3.18528604507","4423.08178115","2.81471395493","4425.94712996","4427.91674399","4427.99944901","4431.00229716","0","4431.0168891","4437.06440616",""
"sujeto_68df437b","1","3","32","96","4437.20093608","inverse","4","1","2","¿A qué edad murió Bob Marley?","36","37","","0","0","1","competitive","right","1.37796211243","4438.57896209","3.62203788757","4442.35867095","1.90031790733","4444.25904894","4.09968209267","4448.40840006","4450.30622602","4450.39454293","4453.39751601","0","4453.41184998","4456.51428199",""
"sujeto_68df437b","1","4","1","97","4783.0678401","direct","2","1","1","¿Cuantos años dirigió la selección 
uruguaya Tabarez?","15 años","13 años","","0","0","0","competitive","left","0.868735074997","4783.93668103","4.131264925","4788.23976707","3.52479815483","4791.76460314","2.47520184517","4794.27370715","4795.46485114","4795.54173803","4798.5447371","0","4798.55924606","4805.63127804","4456.52940702"
"sujeto_68df437b","1","4","2","98","4805.77684116","inverse","4","1","1","¿Cuantas teclas tiene un teclado 
de computadora generalmente? ","Entre 99 y 108","Entre 109 y 113","","1","1","1","competitive","left","0.784949064255","4806.56183696","4.21505093575","4810.95208907","4.99469089508","4815.94681716","1.00530910492","4817.00313306","4818.00588012","4818.087569","4821.090271","1","4821.10461903","4823.47603393",""
"sujeto_68df437b","1","4","3","99","4823.62306404","direct","1","1","1","¿Cuál Departamento tiene
 mayor superficie?","Río Negro","Soriano","","0","0","0","competitive","left","0.857053041458","4824.48020911","4.14294695854","4828.77791715","3.42108392715","4832.19906116","2.57891607285","4834.82875395","4836.54221201","4836.61360598","4839.61655402","0","4839.63103104","4843.95707202",""
"sujeto_68df437b","1","4","4","100","4844.09965205","inverse","3","1","2","¿Cuál es el apellido de las 
hermanastras  de  cenicienta?","Tremaine","Truman","","0","0","1","competitive","left","0.804574012756","4844.90427208","4.19542598724","4849.25639701","4.41285300255","4853.66929197","1.58714699745","4855.306005","4857.17550111","4857.25676394","4860.259763","0","4860.27465296","4862.97057414",""
"sujeto_68df437b","1","4","5","101","4863.10963607","direct","4","1","4","¿Cuál película ganó un
 Oscar a mejor película?","Alto Impacto","Cache","","0","0","1","competitive","left","1.74278283119","4864.85248494","3.25721716881","4868.26520109","3.11723899841","4871.38249803","2.88276100159","4874.31605506","4875.43526006","4875.51758099","4878.52056813","0","4878.53477311","4880.79935312",""
"sujeto_68df437b","1","4","6","102","4880.93686008","inverse","1","1","3","¿A cuántos centímetros
equivale la medida pié?","25","30","","0","0","1","competitive","left","0.651752948761","4881.58866501","4.34824705124","4886.10280395","4.48371601105","4890.58658099","1.51628398895","4892.15677714","4893.19673896","4893.27375197","4896.27625394","0","4896.29113698","4901.69209409",""
"sujeto_68df437b","1","4","7","103","4901.84287095","direct","2","1","2","¿Qué departamento es mas grande?","Cerro Largo","Paysandú","","0","0","0","competitive","right","0.796926021576","4902.63986707","4.20307397842","4907.00270915","4.08508992195","4911.08783698","1.91491007805","4913.05357003","4914.65332603","4914.73821115","4917.74115109","0","4917.75570607","4921.86568594",""
"sujeto_68df437b","1","4","8","104","4922.02358508","inverse","2","1","3","¿Quién pintó la Mona Lisa?","Picasso","Da Vinci","right","0","0","1","competitive","right","1.15036797523","4923.17400408","3.84963202477","4927.19695115","2.43308496475","4929.63010311","3.56691503525","4933.24649405","4934.85235906","4934.93185115","4937.93485093","1","4937.94900894","4940.11135197",""
"sujeto_68df437b","1","4","9","105","4940.25095415","direct","4","1","3","¿Cuántos litros hay en un galon?","3.54","3.78","","1","1","1","competitive","left","1.04116606712","4941.29221201","3.95883393288","4945.41772509","3.01242303848","4948.43019605","2.98757696152","4951.4533751","4952.97123003","4953.05445194","4956.05745101","1","4956.07199502","4961.86435604",""
"sujeto_68df437b","1","4","10","106","4962.00910306","inverse","4","1","1","¿Cuántas teclas tiene
 un piano moderno?","80","88","","0","0","1","competitive","right","2.01627516747","4964.02544212","2.98372483253","4967.18259501","4.68582391739","4971.86846399","1.31417608261","4973.23645306","4974.24493504","4974.3196981","4977.32231903","0","4977.33686495","4984.13462305",""
"sujeto_68df437b","1","4","11","107","4984.28921914","direct","4","1","3","¿Cuántos países hay en África?","54","62","","0","0","1","competitive","left","0.962446928024","4985.251719","4.03755307198","4989.44612598","3.8354678154","4993.28166008","2.1645321846","4995.49728513","4997.18786693","4997.26414299","5000.26714396","0","5000.28186798","5008.08662415",""
"sujeto_68df437b","1","4","12","108","5008.21709514","inverse","1","1","3","¿En qué siglo se crearon
 las primeras pistolas?","XV","XIII","","1","1","1","competitive","right","0.923798084259","5009.14096212","4.07620191574","5013.39146209","4.87338614464","5018.26490593","1.12661385536","5019.42652607","5021.37444901","5021.46077609","5024.46376705","1","5024.47712708","5027.710253",""
"sujeto_68df437b","1","4","13","109","5027.86233711","direct","3","1","4","¿En qué año se estrenó 
la serie friends?","1994","1995","","0","0","1","competitive","right","1.20970201492","5029.072083","3.79029798508","5033.01666903","3.85144281387","5036.8681941","2.14855718613","5039.06886005","5040.94421601","5041.01964712","5044.02261209","0","5044.037853","5049.04394794",""
"sujeto_68df437b","1","4","14","110","5049.18929195","inverse","3","1","4","¿En qué año nació Hitler?","1889","1887","","0","0","1","competitive","left","0.948035001755","5050.1374321","4.05196499825","5054.37954903","2.77973604202","5057.15932393","3.22026395798","5060.41349316","5061.52784896","5061.59818411","5064.60120702","0","5064.61585402","5069.64285111",""
"sujeto_68df437b","1","4","15","111","5069.78393197","direct","1","1","4","¿Cuánto pesa un elefante Africano?","6000 kilos","5400 kilos","","0","0","0","competitive","left","0.965548992157","5070.74955511","4.03445100784","5074.94016504","3.23131990433","5078.17153716","2.76868009567","5080.99200606","5082.34792614","5082.42563009","5085.42860603","0","5085.4432261","5092.15029812",""
"sujeto_68df437b","1","4","16","112","5092.29409695","inverse","1","1","2","¿Qué porcentaje de 
la población es zurda?","10%","7%","","1","1","0","competitive","right","0.773572921753","5093.067734","4.22642707825","5097.45187998","3.11677908897","5100.56872201","2.88322091103","5103.50302005","5104.74612904","5104.82104897","5107.82131696","1","5107.8385911","5113.81832814",""
"sujeto_68df437b","1","4","17","113","5113.956846","direct","1","1","2","¿En qué año se estrenó
Volver al futuro?","1984","1985","","0","0","1","competitive","left","0.890137910843","5114.84706712","4.10986208916","5119.11167312","2.7702691555","5121.88198709","3.2297308445","5125.16409612","5126.72587705","5126.79844403","5129.80144215","0","5129.81662703","5136.90805697",""
"sujeto_68df437b","1","4","18","114","5137.06822109","inverse","3","1","2","¿Cuántos jugadores hay en un 
equipo de baseball?","9","8","","1","1","0","competitive","right","1.82487916946","5138.89318514","3.17512083054","5142.25948715","3.72063708305","5145.98018003","2.27936291695","5148.30747104","5149.92175913","5150.00925899","5153.01220608","1","5153.02676702","5158.00402403",""
"sujeto_68df437b","1","4","19","115","5158.14418602","direct","2","1","1","¿Cuántos Oscar ganó
 la película titanic?","13","11","","1","1","1","competitive","left","1.07921504974","5159.22344995","3.92078495026","5163.32025194","2.96813511848","5166.2884481","3.03186488152","5169.37032104","5170.67237806","5170.75530601","5173.75828099","1","5173.77343893","5178.37611604",""
"sujeto_68df437b","1","4","20","116","5178.54109406","inverse","4","1","4","¿En qué año comenzó
la segunda guerra mundial?","1939","1976","left","0","0","1","competitive","left","0.778475999832","5179.31963801","4.22152400017","5183.69791603","3.04869580269","5186.74667215","2.95130419731","5189.7479701","5191.54778004","5191.63305712","5194.63602114","1","5194.65028811","5198.63747597",""
"sujeto_68df437b","1","4","21","117","5198.76921296","direct","2","1","4","¿Cuántos biomas hay en Uruguay?","5","4","","0","0","1","competitive","left","0.815510034561","5199.58476996","4.18448996544","5203.92257214","2.3622341156","5206.28486609","3.6377658844","5209.95747209","5211.75482011","5211.82663894","5214.82965302","0","5214.84395313","5221.09336805",""
"sujeto_68df437b","1","4","22","118","5221.24577308","inverse","2","1","3","¿Cuándo murió Pablo Escobar?","1993","1997","","1","1","1","competitive","left","1.22740101814","5222.47325611","3.77259898186","5226.40159416","2.7964091301","5229.19804215","3.2035908699","5232.43547916","5234.21833301","5234.30438304","5237.30737209","1","5237.32196712","5243.02564096",""
"sujeto_68df437b","1","4","23","119","5243.17340016","direct","1","1","4","¿Qué serie ha ganado mas premios?","Friends","Murphy Brown","","1","1","0","competitive","left","1.1438100338","5244.31729293","3.8561899662","5248.33112001","2.81508398056","5251.1462481","3.18491601944","5254.38134313","5255.73371506","5255.81661916","5258.81960106","1","5258.83419013","5264.39582205",""
"sujeto_68df437b","1","4","24","120","5264.53597403","inverse","4","1","2","¿Cuántas fichas tiene el dominó?","26","28","","1","1","1","competitive","right","0.760416984558","5265.29643798","4.23958301544","5269.70909715","2.17334008217","5271.88247895","3.82665991783","5275.75921297","5276.814538","5276.89490104","5279.89789414","1","5279.91235805","5285.1554451",""
"sujeto_68df437b","1","4","25","121","5285.29693103","direct","2","1","4","¿Cuántos son los dientes de leche?","20","25","","0","0","1","competitive","left","0.759625911713","5286.056602","4.24037408829","5290.46864915","4.4940469265","5294.96276402","1.5059530735","5296.50487113","5298.21525812","5298.28849196","5301.29147696","0","5301.30676103","5303.45245099",""
"sujeto_68df437b","1","4","26","122","5303.59102106","inverse","3","1","3","¿Cuántos gramos son una onza?","22","28","","0","0","1","competitive","right","1.41081118584","5305.00187802","3.58918881416","5308.72990513","2.71389913559","5311.44387007","3.28610086441","5314.76388597","5316.75868511","5316.831563","5319.83454609","0","5319.85001397","5326.14026999",""
"sujeto_68df437b","1","4","27","123","5326.30026793","direct","3","1","1","¿Cuándo salió el primer album
 de los Beatles?","1963","1962","","1","1","1","competitive","right","2.33176708221","5328.63210607","2.66823291779","5331.45692801","3.10811185837","5334.56508708","2.89188814163","5337.50995016","5338.67358398","5338.74460506","5341.74758315","1","5341.76107216","5345.53309703",""
"sujeto_68df437b","1","4","28","124","5345.67959094","inverse","3","1","3","¿Quién fundó la empresa apple?","Carlos Slim","Steve Jobs","","1","1","1","competitive","right","1.19466090202","5346.87432194","3.80533909798","5350.83544016","2.22174906731","5353.05724716","3.77825093269","5356.88517094","5357.9998641","5358.07048512","5361.07347107","1","5361.08772111","5367.38284016",""
"sujeto_68df437b","1","4","29","125","5367.52305794","direct","4","1","2","¿Cuántos municipios hay
 en Montevideo?","8","7","","1","1","1","competitive","right","0.820317983627","5368.34342813","4.17968201637","5372.69356894","3.76388907433","5376.45752001","2.23611092567","5378.73007107","5380.64486098","5380.73143315","5383.73436809","1","5383.74869895","5385.82984996",""
"sujeto_68df437b","1","4","30","126","5385.98325896","inverse","1","1","1","¿Cuántos kilómetros hay
 de Montevideo a Artigas?","632","599","","0","0","0","competitive","left","0.721323013306","5386.70465016","4.27867698669","5391.15578508","3.32765007019","5394.483495","2.67234992981","5397.18989015","5398.67304111","5398.75821996","5401.76122403","0","5401.77596307","5407.82807803",""
"sujeto_68df437b","1","4","31","127","5407.96010113","direct","2","1","2","¿En qué año nació 
Leonardo Da Vinci?","1452","1511","","1","1","0","competitive","left","1.167304039","5409.12748194","3.832695961","5413.13436604","3.25695991516","5416.39138293","2.74304008484","5419.18482995","5421.03842807","5421.11956096","5424.12253809","1","5424.13703203","5427.28326297",""
"sujeto_68df437b","1","4","32","128","5427.42192912","inverse","3","1","1","¿A qué continente
 pertenece el país Gabón?","Africa","Oceanía","","0","0","1","competitive","left","0.84641623497","5428.26838994","4.15358376503","5432.57671595","3.89358305931","5436.47034001","2.10641694069","5438.61191511","5440.42327905","5440.4967351","5443.4997251","0","5443.51402402","5448.75195312",""
