"code","nro_aplicante","nro_bloque","nro_trial_bloque","nro_trial_global","show_game_type","choice_order","rival","pay_individual","pay_competitive","question","answer_left_text","answer_right_text","correct_answer","outcome_individual","outcome_competitive","outcome_rival","game_type","answer","social_time","rt_game_type","feedback_delay","show_question","answer_time","rt_answer_global","feedback_delay_2","show_jitter","jitter_time","show_outcome","outcome_time","outcome_participant_real","show_final_jitter","second_jitter_time","inicio_descanso"
"sujeto_0053790","1","1","1","1","52.5703620911","direct","3","1","4","¿Cuántos centímetros corresponden
al talle 36 del calzado?","23","24","","0","0","1","competitive","right","3.05421209335","55.624612093","1.94578790665","57.7236530781","4.2820391655","62.0057580471","1.7179608345","63.7600409985","64.7882969379","64.8614549637","67.8644249439","0","67.8784310818","70.0409610271",""
"sujeto_0053790","1","1","2","2","70.1966919899","inverse","3","1","2","¿Cuántas metros mide la Intendencia
Municipal de Montevideo? ","84","78","","0","0","1","competitive","left","2.71098089218","72.9077310562","2.28901910782","75.3680391312","4.43264007568","79.8007161617","1.56735992432","81.4044289589","83.282405138","83.3546340466","86.3576159477","0","86.371694088","88.4644370079",""
"sujeto_0053790","1","1","3","3","88.6069710255","direct","1","1","3","¿Cuántas La Pasiva
 hay en uruguay?","15","11","","1","1","1","competitive","left","1.76771187782","90.3747551441","3.23228812218","93.7577660084","3.44588184357","97.2037110329","2.55411815643","99.7930619717","101.404711962","101.478455067","104.481419086","1","104.495754004","108.774100065",""
"sujeto_0053790","1","1","4","4","108.930703163","inverse","3","1","3","¿De que color es la camiseta de uruguay?","blanca","celeste","right","1","1","1","competitive","right","2.74494409561","111.675727129","2.25505590439","114.086472988","3.16919398308","117.255707026","2.83080601692","120.13885498","121.342744112","121.423604965","124.426519156","1","124.440672159","127.894526005",""
"sujeto_0053790","1","1","5","5","128.22776103","direct","2","1","1","¿Cuánto metros mide
la torre Eiffel?","333","324","","1","1","1","competitive","right","3.55593514442","131.78373909","1.44406485558","133.365586042","3.53311300278","136.898761034","2.46688699722","139.400022984","140.921432972","141.000841141","144.002721071","1","144.018769979","151.055447102",""
"sujeto_0053790","1","1","6","6","151.186056137","inverse","3","1","4","¿Cuantas ciudades existen
 en todo el uruguay?","63","72","","0","0","1","competitive","left","1.91764807701","153.103770971","3.08235192299","156.378051043","4.0216190815","160.39972496","1.9783809185","162.428452969","163.483274937","163.56260705","166.562780142","0","166.579803944","174.206387997",""
"sujeto_0053790","1","1","7","7","174.348175049","direct","1","1","1","¿Cuantos estados tiene África?","52","54","","1","1","0","competitive","right","2.83952593803","177.187811136","2.16047406197","179.518929005","2.42168498039","181.940670967","3.57831501961","185.556180954","187.420211077","187.491636038","190.494601011","1","190.508428097","196.266765118",""
"sujeto_0053790","1","1","8","8","196.410207033","inverse","4","1","4","¿En qué año nació
 Stephen Hawking?","1952","1942","","0","0","1","competitive","left","3.21448087692","199.624727011","1.78551912308","201.584016085","3.24362611771","204.827705145","2.75637388229","207.634588003","209.078786135","209.152547121","212.155501127","0","212.169414997","218.268774033",""
"sujeto_0053790","1","1","9","9","218.404696941","direct","2","1","3","¿Cuánto años tenía Artigas
 cuando se fue a Paraguay?","56","57","","1","1","1","competitive","left","2.00095009804","220.405689001","2.99904990196","223.560835123","4.34885001183","227.909747124","1.65114998817","229.613013983","231.162507057","231.247425079","234.250407934","1","234.264555931","240.311867952",""
"sujeto_0053790","1","1","10","10","240.449906111","inverse","1","1","2","¿Cuantos milímetros 
mide una hoja A2?","420x592","420x594","","0","0","1","competitive","right","2.2717320919","242.721683979","2.7282679081","245.607033014","4.27158403397","249.878685951","1.72841596603","251.657469988","253.2258811","253.30914402","256.312119961","0","256.326152086","263.399776936",""
"sujeto_0053790","1","1","11","11","263.544213057","direct","3","1","3","¿Cuál es la menor temperatura 
registrada en Uruguay?","-5.4","-7.4","","0","0","1","competitive","right","2.7454419136","266.289716959","2.2545580864","268.701461077","3.98716211319","272.688686132","2.01283788681","274.752691984","276.43473506","276.504168987","279.506778955","0","279.521765947","283.255059004",""
"sujeto_0053790","1","1","12","12","283.389621973","inverse","2","1","2","¿Cuantos años hace que 
se fundó facebook?","18","17","","0","0","0","competitive","right","1.67103099823","285.060693979","3.32896900177","288.545877934","3.44174695015","291.987688065","2.55825304985","294.594952106","295.967682123","296.046426058","299.046766043","0","299.063827991","301.838448048",""
"sujeto_0053790","1","1","13","13","301.982455015","direct","1","1","4","¿Cuál animal es más
 pesado en promedio?","Rinoceronte","Hipopotamo","","0","0","0","competitive","left","3.35920906067","305.341735125","1.64079093933","307.188202143","4.57950615883","311.767769098","1.42049384117","313.222990036","314.30224514","314.373311043","317.374814987","0","317.391008139","321.232008934",""
"sujeto_0053790","1","1","14","14","321.359663963","inverse","1","1","2","¿Qué personaje de dragon ball 
murió más veces?","Chaoz","Krillin","","1","1","0","competitive","right","2.11805295944","323.477756977","2.88194704056","326.514132023","4.00258302689","330.516757011","1.99741697311","332.565953016","334.023733139","334.100540161","337.103469133","1","337.117499113","344.886749029",""
"sujeto_0053790","1","1","15","15","345.019345045","direct","3","1","2","La universidad de oxford. 
existe desde:","1096","1249","","1","1","0","competitive","left","2.82634186745","347.845728159","2.17365813255","350.176694155","4.1319899559","354.308743954","1.8680100441","356.211498976","357.260304928","357.346282959","360.349272013","1","360.363332987","367.054188013",""
"sujeto_0053790","1","1","16","16","367.18081212","inverse","3","1","1","¿Qué escritor latino ganó antes
 el premio nobel?"," García Marquez","Neruda","","0","0","1","competitive","left","1.99393010139","369.174821138","3.00606989861","372.33741498","5.21225094795","377.549704075","0.787749052048","378.389682055","380.129686117","380.206634998","383.206787109","0","383.224951982","386.68544507",""
"sujeto_0053790","1","1","17","17","386.825858116","direct","4","1","3","¿Cuántos dientes tiene un
 tiburón blanco?","6000","3000","","0","0","1","competitive","right","2.18682813644","389.01275897","2.81317186356","391.981930017","3.54774594307","395.529736996","2.45225405693","398.016103029","399.05510807","399.134480953","402.137452126","0","402.150501966","406.960170031",""
"sujeto_0053790","1","1","18","18","407.086272001","inverse","4","1","1","¿Cuánto mide el paralelo Ecuador?","40.000km","70.000km","","0","0","1","individual","left","3.61547088623","410.701811075","1.38452911377","412.242819071","4.11189484596","416.35475111","1.88810515404","418.276746988","420.232857943","420.27757597","423.280476093","0","423.295771122","426.89833498",""
"sujeto_0053790","1","1","19","19","427.031049013","direct","4","1","2","¿Cuál fue el primer libro 
de Stephen King?","Carrie","The Stand","","1","1","1","competitive","right","1.92962694168","428.960720062","3.07037305832","432.203132153","4.10049796104","436.303687096","1.89950203896","438.253123999","439.997207165","440.070451975","443.073429108","1","443.087780952","447.558779955",""
"sujeto_0053790","1","1","20","20","447.706680059","inverse","2","1","3","¿Qué civilización practicaba
 la momificación?","Grecia","Egipto","right","0","0","1","competitive","right","1.57801198959","449.284754038","3.42198801041","452.859447956","4.19021892548","457.049726963","1.80978107452","458.89601016","460.834785938","460.912975073","463.915946007","1","463.931185961","468.159979105",""
"sujeto_0053790","1","1","21","21","468.31586194","direct","4","1","4","¿Cuántos millones de visitas
 recibe google por minuto?","3.0","4.5","","0","0","1","competitive","right","1.57380390167","469.889729023","3.42619609833","473.457256079","3.55840802193","477.015721083","2.44159197807","479.508147001","481.023000002","481.092189074","484.09516716","0","484.110305071","491.232969999",""
"sujeto_0053790","1","1","22","22","491.377609968","inverse","1","1","3","La máquina de fax. se inventó en:","1843","1960","","0","0","1","competitive","left","2.58913493156","493.966784954","2.41086506844","496.51872015","5.44300103188","501.961784124","0.556998968124","502.553893089","503.795964956","503.870876074","506.873858929","0","506.887805939","510.124097109",""
"sujeto_0053790","1","1","23","23","510.274006128","direct","2","1","4","En la verdadera historia de los
 300 espartanos. habían:","300 soldados","4300 soldados","","1","1","1","competitive","right","2.13168406487","512.405737162","2.86831593513","515.428698063","5.262996912","520.691755056","0.737003087997","521.479002953","522.74019599","522.812654972","525.815569162","1","525.829694033","529.631483078",""
"sujeto_0053790","1","1","24","24","529.764637947","inverse","1","1","4","¿Cuántos milímetros crece
 el pelo por día?","0.4","0.04","","0","0","0","competitive","left","1.76908111572","531.533759117","3.23091888428","534.905516148","4.51514101028","539.420715094","1.48485898972","540.957226992","542.717939138","542.790836096","545.793769121","0","545.807888985","552.542968035",""
"sujeto_0053790","1","1","25","25","552.676504135","direct","4","1","1","¿Cuánto mide la baldosa gris 
clásica de Montevideo?","22x22 cm.","20x20 cm.","","1","1","1","individual","right","2.65516495705","555.331712008","2.34483504295","557.850681067","4.7389960289","562.589731932","1.2610039711","563.90252614","565.897791147","565.936180115","568.939156055","1","568.953290939","574.496088982",""
"sujeto_0053790","1","1","26","26","574.638597965","inverse","2","1","2","¿Cuántas películas de rápidos
 y furiosos hay?","10","11","","1","1","0","competitive","right","1.35110092163","575.989750147","3.64889907837","579.778629065","3.12403082848","582.902711153","2.87596917152","585.829534054","587.187528133","587.263710022","590.266700983","1","590.280554056","592.315252066",""
"sujeto_0053790","1","1","27","27","592.499669075","direct","3","1","1","¿Cuántos masters 1000
 ganó Del Potro?","1","2","","1","1","1","competitive","right","1.49201416969","593.991745949","3.50798583031","597.651736021","4.51297903061","602.164757013","1.48702096939","603.687013149","605.441617012","605.521557093","608.524497032","1","608.539011002","615.934762955",""
"sujeto_0053790","1","1","28","28","616.090624094","inverse","2","1","4","¿Cuántos meses dura el 
embarazo de una leona?","3 meses","4 meses","","0","0","1","competitive","right","1.77306318283","617.863726139","3.22693681717","621.249140978","4.44055986404","625.68976903","1.55944013596","627.301407099","628.412472963","628.494048119","631.497034073","0","631.503653049","638.226132154",""
"sujeto_0053790","1","1","29","29","638.368505955","direct","1","1","1","¿En qué año fue creado
 el sandwich?","1762","1653","","1","1","0","competitive","right","2.22723507881","640.59581399","2.77276492119","643.528038025","3.66666889191","647.194766045","2.33333110809","649.578916073","651.177474022","651.247127056","654.250111103","1","654.26424408","657.734786987",""
"sujeto_0053790","1","1","30","30","657.866063118","inverse","4","1","2","El nombre de la moneda de Vietnam es:","Dinar","Dong","","0","0","1","competitive","right","1.58868098259","659.454807997","3.41131901741","663.02106905","5.07259082794","668.093706131","0.927409172058","669.056159973","670.488160133","670.572946072","673.575937033","0","673.590886116","679.759325027",""
"sujeto_0053790","1","1","31","31","679.908205032","direct","2","1","1","¿cuantos aleteos puede dar 
un colibrí por segundo?","120","50","","0","0","0","competitive","left","2.92948794365","682.837756157","2.07051205635","685.081674099","5.19803214073","690.279741049","0.801967859268","691.117861986","692.850218058","692.917562962","695.920449972","0","695.935348034","700.147576094",""
"sujeto_0053790","1","1","32","32","700.286680937","inverse","4","1","3","¿Qué altura promedio tienen
 los hombres uruguayos?","1.73 m","1.72 m","","1","1","1","competitive","left","2.94803905487","703.234760046","2.05196094513","705.459643126","3.74902296066","709.208702087","2.25097703934","711.509125948","712.771513939","712.843907118","715.846786976","1","715.860842943","720.336781979",""
"sujeto_0053790","1","2","1","33","860.284847021","direct","1","1","1","¿En qué año nació 
el actor Bradd Pitt?","1967","1963","","1","1","1","competitive","right","2.42578697205","862.710734129","2.57421302795","865.459391117","3.84528613091","869.304715157","2.15471386909","871.493037939","872.588895082","872.661493063","875.664484978","1","875.677555084","881.603281021","720.352133036"
"sujeto_0053790","1","2","2","34","881.746565104","inverse","2","1","1","¿Cual es el segundo 
monte más alto?","Kanchenjunga","K2","","1","1","1","competitive","right","1.37916898727","883.125797033","3.62083101273","886.886748075","4.46699213982","891.353799105","1.53300786018","892.938145161","894.39053607","894.47180295","897.474756956","1","897.488728046","900.918614149",""
"sujeto_0053790","1","2","3","35","901.057844162","direct","3","1","1","¿Cuándo finalizó la construcción
 del Palacio Legislativo?","1925","1917","","0","0","1","competitive","left","1.35291409492","902.410804033","3.64708590508","906.209556103","4.85417604446","911.063789129","1.14582395554","912.262807131","913.90449214","913.979542971","916.982496977","0","916.997699976","922.695258141",""
"sujeto_0053790","1","2","4","36","922.832535982","inverse","3","1","3","¿Cuántos integrantes tenía
 en su inicio  el cuarteto de nos?","3","4","","1","1","1","competitive","right","2.52720689774","925.359806061","2.47279310226","928.008073092","4.85766100883","932.865793943","1.14233899117","934.059788942","935.19288516","935.276770115","938.27975297","1","938.293761969","943.943549156",""
"sujeto_0053790","1","2","5","37","944.09510994","direct","2","1","3","¿Qué valor tiene el número pi?","3.14","4.18","left","0","0","1","competitive","right","1.37361693382","945.46876502","3.62638306618","949.252612114","3.4511051178","952.703776121","2.5488948822","955.302838087","956.757032156","956.83713007","959.84011507","0","959.854177952","966.775174141",""
"sujeto_0053790","1","2","6","38","966.922585964","inverse","2","1","2","¿Cuál es la esperanza de vida
 en Uruguay?","75","77","","1","1","0","competitive","right","1.54214811325","968.464776039","3.45785188675","972.063632011","2.72411298752","974.787804127","3.27588701248","978.113573074","979.766777992","979.849254131","982.852234125","1","982.866222143","989.326764107",""
"sujeto_0053790","1","2","7","39","989.468450069","direct","1","1","2","¿Cuantos pisos tiene la torre 
de las comunicaciones?","26","32","","1","1","0","competitive","left","1.43629097939","990.904787064","3.56370902061","994.623203039","4.91456794739","999.537817955","1.08543205261","1000.67580295","1002.50457311","1002.59282303","1005.59580016","1","1005.61079502","1007.75700712",""
"sujeto_0053790","1","2","8","40","1007.89540601","inverse","2","1","4","¿En qué país sudamericano 
no hay McDonalds?","Bolivia","Venezuela","","0","0","1","competitive","left","3.90235495567","1011.79782295","1.09764504433","1013.05212712","4.30262207985","1017.35478997","1.69737792015","1019.10322499","1020.41255808","1020.48685694","1023.48980498","0","1023.50400615","1029.86368108",""
"sujeto_0053790","1","2","9","41","1030.02297115","direct","3","1","1","¿En qué año empieza
 la Edad Media?","476","512","","1","1","1","individual","right","3.23576593399","1033.25879812","1.76423406601","1035.16203713","3.608700037","1038.77077699","2.391299963","1041.21395397","1042.61767697","1042.665452","1045.66674709","1","1045.68165994","1048.67021704",""
"sujeto_0053790","1","2","10","42","1048.80008101","inverse","3","1","4","¿Hace cuántos años surgió
 el ser humano?","200mil","300mil","","0","0","0","competitive","left","2.69466686249","1051.49481416","2.30533313751","1053.95444608","5.21428799629","1059.16879296","0.785712003708","1059.990762","1061.87676096","1061.95823216","1064.95874","0","1064.97574615","1068.28622699",""
"sujeto_0053790","1","2","11","43","1068.42790008","direct","3","1","4","¿Cuántas cuadras tiene
 actualmente 18 de julio? ","36","33","","0","0","1","competitive","right","2.15189695358","1070.57986498","2.84810304642","1073.58411312","5.51459002495","1079.0987401","0.485409975052","1079.6180191","1081.32029009","1081.40108013","1084.4040401","0","1084.41926694","1089.14552593",""
"sujeto_0053790","1","2","12","44","1089.28683901","inverse","1","1","4","¿Qué juego de equipo se 
considera mas rápido?","Lacrosse","Badminton","","0","0","0","competitive","left","2.02491998672","1091.3118","2.97508001328","1094.42728901","4.17149090767","1098.5988431","1.82850909233","1100.47762108","1101.72072411","1101.79536414","1104.79835296","0","1104.81257296","1112.80678701",""
"sujeto_0053790","1","2","13","45","1112.94745898","direct","1","1","3","¿Qué promedio de edad 
vive una jirafa? ","25","20","","0","0","1","competitive","right","4.2993080616","1117.24683094","0.7006919384","1118.1213851","3.63638210297","1121.75783205","2.36361789703","1124.17325306","1125.93478513","1126.00771499","1129.01068807","0","1129.024616","1134.97477508",""
"sujeto_0053790","1","2","14","46","1135.14281106","inverse","1","1","2","¿Cuántos grandes lagos hay?","7","5","","0","0","1","competitive","right","2.76591897011","1137.90877008","2.23408102989","1140.31411314","2.73362803459","1143.04777908","3.26637196541","1146.35043311","1147.6425631","1147.71910214","1150.72207808","0","1150.73599815","1158.55738497",""
"sujeto_0053790","1","2","15","47","1158.73776793","direct","3","1","2","¿Cuántos discos de estudio
 grabó Johhny Cash? ","54","43","","1","1","0","competitive","right","3.53971099854","1162.27765512","1.46028900146","1163.89625216","4.40952396393","1168.30583811","1.59047603607","1169.93062496","1171.20926714","1171.28101611","1174.28395414","1","1174.29794598","1180.94881606",""
"sujeto_0053790","1","2","16","48","1181.08285594","inverse","4","1","1","¿Cuántos barrios tiene
 Montevideo? ","71","62","","0","0","1","individual","right","3.25385093689","1184.33674908","1.74614906311","1186.24044394","3.29926991463","1189.53975105","2.70073008537","1192.27497411","1193.28204393","1193.32624912","1196.32922411","0","1196.3435421","1201.80278397",""
"sujeto_0053790","1","2","17","49","1201.944556","direct","3","1","3","¿Qué edad tiene Homero Simpson?","36","42","","0","0","1","competitive","right","1.87621903419","1203.82083702","3.12378096581","1207.11841702","2.5263068676","1209.64476204","3.4736931324","1213.16909409","1214.54514003","1214.61978793","1217.62277102","0","1217.63701415","1222.0257771",""
"sujeto_0053790","1","2","18","50","1222.1725111","inverse","4","1","2","¿Cuántos países con monarquía 
hay en europa actualmente? ","6","10","","1","1","1","competitive","left","4.31021714211","1226.48277497","0.689782857895","1227.32827306","4.0264749527","1231.35480809","1.9735250473","1233.37986898","1234.81814408","1234.89752793","1237.90051508","1","1237.9144361","1244.07076716",""
"sujeto_0053790","1","2","19","51","1244.19931102","direct","2","1","3","¿Cuántos capítulos de
 Friends existen? ","236","228","","1","1","1","competitive","left","2.53947281837","1246.73888016","2.46052718163","1249.37559295","4.62315607071","1253.99880505","1.37684392929","1255.42422795","1256.72977209","1256.80881","1259.81078315","1","1259.82595396","1262.20156407",""
"sujeto_0053790","1","2","20","52","1262.36076403","inverse","1","1","3","¿Cuántas óperas compuso Mozart? ","27","22","","1","1","1","competitive","right","1.95603084564","1264.31684613","3.04396915436","1267.51644015","4.65032792091","1272.16680813","1.34967207909","1273.56711411","1274.85878706","1274.93479395","1277.937778","1","1277.952003","1285.26348305",""
"sujeto_0053790","1","2","21","53","1285.40364909","direct","4","1","3","¿Cuántos mundiales de fútbol 
femenino ha realizado FIFA? ","9","7","","1","1","1","competitive","right","1.65809202194","1287.0618031","3.34190797806","1290.57574511","3.29705500603","1293.87285995","2.70294499397","1296.611413","1297.85475206","1297.93045807","1300.93077111","1","1300.94685602","1307.04931808",""
"sujeto_0053790","1","2","22","54","1307.19823813","inverse","3","1","2","¿Cuál es la temperatura 
media anual en Montevideo? ","17.5","16.3","","0","0","1","competitive","left","2.92453694344","1310.12283897","2.07546305656","1312.35515499","4.38364505768","1316.7388401","1.61635494232","1318.40640616","1320.34496999","1320.42446399","1323.42674303","0","1323.44165111","1330.01074409",""
"sujeto_0053790","1","2","23","55","1330.15982413","direct","2","1","2","¿En qué año se estrenó el
 videojuego The Sims? ","2000","2002","","0","0","0","competitive","right","2.67195105553","1332.83184505","2.32804894447","1335.31632113","3.73044610023","1339.04682398","2.26955389977","1341.35114002","1343.21313596","1343.28630805","1346.28928709","0","1346.30323315","1353.69474912",""
"sujeto_0053790","1","2","24","56","1353.83801103","inverse","2","1","1","¿Cuál es la canción con 
mas covers? ","Yesterday","Stand by me","","0","0","0","competitive","right","1.58974194527","1355.42781615","3.41025805473","1358.99298716","3.27873706818","1362.27176094","2.72126293182","1365.02828217","1366.42680407","1366.51259613","1369.51479506","0","1369.530128","1373.69878197",""
"sujeto_0053790","1","2","25","57","1373.83169103","direct","1","1","4","¿Cuánto duró la guerra
 de los 100 años?","116","123","","0","0","0","competitive","left","1.88219714165","1375.71396613","3.11780285835","1379.02167106","2.76805281639","1381.78978205","3.23194718361","1385.07297397","1386.55382609","1386.62398314","1389.62674212","0","1389.64176893","1391.96155405",""
"sujeto_0053790","1","2","26","58","1392.11000896","inverse","4","1","4","¿Qué color tiene la  bandera de Brasil?","Amarillo","Naranja","left","0","0","1","competitive","left","1.47979593277","1393.58986902","3.52020406723","1397.26546907","3.36525821686","1400.63078403","2.63474178314","1403.31604505","1404.88253713","1404.95137215","1407.95435715","1","1407.96820307","1411.00099993",""
"sujeto_0053790","1","2","27","59","1411.15311193","direct","4","1","3","¿Qué carabela de 
Colon no volvió del viaje?","Santa María","La pinta","","0","0","1","competitive","left","3.44463801384","1414.597821","1.55536198616","1416.30866909","4.27808618546","1420.58682203","1.72191381454","1422.35913014","1423.85011196","1423.92671704","1426.92968106","0","1426.94390416","1429.04338098",""
"sujeto_0053790","1","2","28","60","1429.17881107","inverse","4","1","4","¿Cuántos huesos tiene
 un adulto humano?","217","206","","0","0","1","competitive","right","4.14697623253","1433.32585502","0.853023767471","1434.33318996","2.45054507256","1436.78377199","3.54945492744","1440.36799598","1441.63875294","1441.72031403","1444.72330999","0","1444.73761201","1452.57480693",""
"sujeto_0053790","1","2","29","61","1452.70565701","direct","1","1","1","¿Qué país africano fue 
fundado por esclavos?","Liberia","Chad","","0","0","0","competitive","left","2.23014998436","1454.93584895","2.76985001564","1457.86350608","4.44829916954","1462.31186414","1.55170083046","1463.89837694","1465.89003205","1465.96626616","1468.96924305","0","1468.98391104","1476.97476816",""
"sujeto_0053790","1","2","30","62","1477.11856914","inverse","4","1","2","¿A cuánto asciende la cima
 del monte Everest?","7.990 mts","8.848 mts","","0","0","1","competitive","right","3.00122714043","1480.119874","1.99877285957","1482.29209208","5.09176516533","1487.38392401","0.908234834671","1488.32774401","1489.51258612","1489.59528494","1492.59828806","0","1492.61248493","1499.79653716",""
"sujeto_0053790","1","2","31","63","1499.93046594","direct","4","1","1","¿Cuál es el país mas chico?","Sealand","Luxemburgo","","1","1","1","individual","left","1.76532506943","1501.69586396","3.23467493057","1505.08428311","3.86051797867","1508.94483995","2.13948202133","1511.11997604","1512.98348403","1513.02069306","1516.02364612","1","1516.03857899","1519.16086912",""
"sujeto_0053790","1","2","32","64","1519.28966594","inverse","2","1","4","¿Cuántas pirámides hay en Egipto?","10000","11000","","1","1","1","individual","right","1.5301451683","1520.81992793","3.4698548317","1524.44751596","3.31425690651","1527.76183295","2.68574309349","1530.49830008","1531.53190994","1531.58324909","1534.58622098","1","1534.60043311","1539.706774",""
"sujeto_0053790","1","3","1","65","1663.71518397","direct","2","1","2","¿Cuál es el quinto país con 
mas extensión?","Canadá","Brasil","","1","1","0","competitive","left","1.60856199265","1665.3238101","3.39143800735","1668.8560791","4.7267241478","1673.58286905","1.2732758522","1674.88991213","1676.2232151","1676.30715394","1679.31013107","1","1679.32432795","1687.05069804","1539.72162008"
"sujeto_0053790","1","3","2","66","1687.22640395","inverse","1","1","2","¿Qué rasgo facial no tiene
 la Mona Lisa?","Cejas","Pómulos","","0","0","1","competitive","left","2.57743906975","1689.80390596","2.42256093025","1692.38308096","5.36469292641","1697.74783301","0.635307073593","1698.41963005","1700.17002797","1700.25286007","1703.25584197","0","1703.27094913","1709.5422771",""
"sujeto_0053790","1","3","3","67","1709.68860602","direct","4","1","3","¿Cuál es el país con 
mayor población?","Esados Unidos","China","right","0","0","1","competitive","right","1.57019686699","1711.25886703","3.42980313301","1714.86322212","3.6015651226","1718.46482706","2.3984348774","1720.91301012","1722.5590241","1722.64770198","1725.65069699","1","1725.66467214","1729.03200603",""
"sujeto_0053790","1","3","4","68","1729.16709113","inverse","1","1","1","La palabra dinosaurio significa","Lagarto Terrible","Lagarto Dragón","","1","1","0","individual","","1.23274111748","1730.39989901","3.76725888252","1734.33936405","6","1740.33950806","0","1740.35503697","1741.52536297","1741.57408094","1744.57704496","0","1744.59209108","1747.45392013",""
"sujeto_0053790","1","3","5","69","1747.59320116","direct","2","1","3","¿Qué es el membrillero?","Arbol","Arbusto","","0","0","0","competitive","right","2.34463095665","1749.93789911","2.65536904335","1752.74779201","3.20200395584","1755.9498601","2.79799604416","1758.79907799","1760.75313616","1760.83416009","1763.83714604","0","1763.85139894","1770.31544209",""
"sujeto_0053790","1","3","6","70","1770.45305204","inverse","3","1","3","¿Alrededor de qué planeta orbita 
el satélite Europa?","Jupiter","Saturno","","1","1","1","competitive","right","2.99075698853","1773.44387197","2.00924301147","1775.610291","4.61852288246","1780.22885513","1.38147711754","1781.66154003","1783.20634508","1783.27934408","1786.28232408","1","1786.29660416","1788.50176907",""
"sujeto_0053790","1","3","7","71","1788.63138914","direct","3","1","1","¿Donde fue el mundial de 
fútbol de 1954?","Suiza","Suecia","","1","1","1","competitive","right","1.88245511055","1790.51391006","3.11754488945","1793.80237198","4.19844388962","1798.00088215","1.80155611038","1799.85443997","1801.10706496","1801.18860698","1804.19157195","1","1804.2054491","1808.11722612",""
"sujeto_0053790","1","3","8","72","1808.290555","inverse","1","1","4","¿Cuál de los 7 enanitos
no tenía barba?","Bashful","Mudito","","1","1","0","competitive","right","3.2102689743","1811.50092316","1.7897310257","1813.48003507","4.92272996902","1818.40280294","1.07727003098","1819.53068304","1821.11083794","1821.18072295","1824.18366694","1","1824.19887614","1829.12795997",""
"sujeto_0053790","1","3","9","73","1829.26640105","direct","3","1","2","¿Cual red social es
mas utilizada mundialmente?","Instagram","Facebook","","1","1","0","competitive","left","2.90341281891","1832.16987205","2.09658718109","1834.43990707","3.53686714172","1837.97681594","2.46313285828","1840.4912231","1842.40858507","1842.49339604","1845.4963541","1","1845.51056409","1848.44505596",""
"sujeto_0053790","1","3","10","74","1848.57890201","inverse","4","1","1","¿Cuándo se inició la copa
 América de fútbol?","1916","1923","","1","1","1","individual","left","2.47738194466","1851.05635214","2.52261805534","1853.76666307","3.61110901833","1857.37783909","2.38889098167","1859.80138206","1861.6987431","1861.73599195","1864.73893309","1","1864.75384593","1867.40995693",""
"sujeto_0053790","1","3","11","75","1867.55542016","direct","3","1","4","¿Cuántos presidentes de EEUU
han muerto asesinados?","3","4","","0","0","1","competitive","left","3.02139902115","1870.57692099","1.97860097885","1872.72440815","3.69136500359","1876.41583395","2.30863499641","1878.77863002","1880.26257205","1880.34572816","1883.34865308","0","1883.36358595","1887.00763798",""
"sujeto_0053790","1","3","12","76","1887.14855099","inverse","2","1","4","¿Cuántas veces participó EEUU
 en la copa América?","4","5","","0","0","1","competitive","left","4.07831192017","1891.22690916","0.921688079834","1892.30476308","4.35808420181","1896.66290712","1.64191579819","1898.35486412","1899.79872894","1899.87291694","1902.87590098","0","1902.89004993","1909.00679398",""
"sujeto_0053790","1","3","13","77","1909.17532206","direct","4","1","1","¿Cuál de estos países 
no formaba la URSS?","Azeribayán","Afganistán","","0","0","1","individual","left","2.76849198341","1911.94388604","2.23150801659","1914.36440516","4.78842711449","1919.15289402","1.21157288551","1920.41659808","1921.7296381","1921.78431296","1924.78727913","0","1924.80057502","1932.78269815",""
"sujeto_0053790","1","3","14","78","1932.91914916","inverse","1","1","1","¿En qué año se inauguró
 el teatro Solís?","1867","1856","","0","0","0","competitive","right","1.27761697769","1934.19683099","3.72238302231","1938.06045604","3.87935400009","1941.93985415","2.12064599991","1944.09523416","1945.15156603","1945.22947407","1948.23246694","0","1948.24644113","1954.89419198",""
"sujeto_0053790","1","3","15","79","1955.031111","direct","1","1","4","¿A qué velocidad vuela 
el avión más rápido?","3529","3874","","0","0","0","competitive","right","2.3476858139","1957.37887096","2.6523141861","1960.18543196","4.66838288307","1964.85386014","1.33161711693","1966.23987103","1967.99539399","1968.07387614","1971.07477093","0","1971.0918541","1973.20213199",""
"sujeto_0053790","1","3","16","80","1973.34372711","inverse","3","1","4","¿De qué año es la primer 
película cinematográfica?","1897","1888","","0","0","0","competitive","right","1.43703699112","1974.78080916","3.56296300888","1978.49830103","4.5984749794","1983.09681511","1.4015250206","1984.54965997","1985.68266511","1985.767061","1988.77004504","0","1988.78408313","1994.193856",""
"sujeto_0053790","1","3","17","81","1994.33493996","direct","2","1","3","¿Cuántos países 
tiene nuestro planeta?","191","194","","1","1","1","competitive","right","3.62583303452","1997.96081305","1.37416696548","1999.50916195","4.08666491508","2003.59589005","1.91333508492","2005.56030011","2006.91755605","2006.99456716","2009.9947331","1","2010.01092911","2013.24673295",""
"sujeto_0053790","1","3","18","82","2013.3800931","inverse","2","1","2","¿Cuántos habitantes
 tiene Buenos Aires?","2.9000.000","3650000","","0","0","0","competitive","left","1.52169013023","2014.90184402","3.47830986977","2018.53499007","4.02482295036","2022.55985212","1.97517704964","2024.56881809","2025.96605396","2026.03650999","2029.03873014","0","2029.05461097","2034.88273096",""
"sujeto_0053790","1","3","19","83","2035.02217007","direct","2","1","1","¿Cuántos kilos forman una tonelada?","1000","1500","left","1","1","1","competitive","left","1.46661782265","2036.48885393","3.53338217735","2040.19313312","4.23565506935","2044.42882609","1.76434493065","2046.24597597","2048.13332915","2048.21298313","2051.21591806","1","2051.23105812","2057.18672204",""
"sujeto_0053790","1","3","20","84","2057.33284903","inverse","4","1","4","¿Cuántos estados tiene la 
República del Perú? ","24","23","","0","0","1","competitive","right","1.27197003365","2058.60486197","3.72802996635","2062.49170995","3.71207404137","2066.20382094","2.28792595863","2068.52553105","2069.54766011","2069.62711811","2072.63009095","0","2072.64331913","2077.58860612",""
"sujeto_0053790","1","3","21","85","2077.74539804","direct","3","1","3","¿En qué año nació Cristóbal Colón? ","1451","1447","","0","0","1","competitive","right","3.51142907143","2081.25689602","1.48857092857","2082.90181613","3.77894997597","2086.68080401","2.22105002403","2088.93667603","2090.78260398","2090.85407209","2093.85473609","0","2093.87177396","2098.09871912",""
"sujeto_0053790","1","3","22","86","2098.27356315","inverse","4","1","4","¿Cuánto mide la 
Montaña Aconcagua? ","6234","6962","","0","0","1","competitive","right","1.51522707939","2099.78883314","3.48477292061","2103.44647312","3.32931399345","2106.77582502","2.67068600655","2109.4794271","2110.76873708","2110.84794807","2113.84993696","0","2113.86488414","2121.04672599",""
"sujeto_0053790","1","3","23","87","2121.18250608","direct","2","1","4","¿Cuánto mide el punto
 más profundo del océano? ","12508","11003","","0","0","1","competitive","left","1.58929395676","2122.77186608","3.41070604324","2126.33432198","4.25148487091","2130.58586693","1.74851512909","2132.38555098","2133.63702607","2133.70496297","2136.70791101","0","2136.72116804","2140.92675495",""
"sujeto_0053790","1","3","24","88","2141.05529809","inverse","1","1","3","¿Cuántos álbumes ha publicado 
el cantante Jaime Roos? ","41","34","","0","0","1","competitive","right","2.42353916168","2143.4789021","2.57646083832","2146.21744204","4.458370924","2150.67588115","1.541629076","2152.26933694","2153.75874496","2153.83616996","2156.83915114","0","2156.85441303","2163.05057502",""
"sujeto_0053790","1","3","25","89","2163.18837094","direct","4","1","3","¿En qué año nació el 
ex-presidente Jorge Battle? ","1921","1927","","1","1","1","competitive","right","1.41749715805","2164.60594201","3.58250284195","2168.3625021","3.58832502365","2171.95086908","2.41167497635","2174.41344309","2176.14413214","2176.230968","2179.23394704","1","2179.248101","2182.73412204",""
"sujeto_0053790","1","3","26","90","2182.86668611","inverse","1","1","3","¿Cuántas presidencias 
constitucionales  hubo en Uruguay? ","41","42","","0","0","1","competitive","left","1.4081029892","2184.27482796","3.5918970108","2188.02299309","3.03981113434","2191.06286216","2.96018886566","2194.07264805","2195.2764051","2195.35750008","2198.36048293","0","2198.37545514","2204.15909815",""
"sujeto_0053790","1","3","27","91","2204.31006408","direct","1","1","2","¿Quién escribió mas sinfonías?","Mozart","Haydn","","1","1","0","competitive","left","1.4087471962","2205.7188561","3.5912528038","2209.46332693","2.58748602867","2212.05087209","3.41251397133","2215.51471305","2216.73229313","2216.81729507","2219.82025695","1","2219.83443213","2223.58584714",""
"sujeto_0053790","1","3","28","92","2223.719311","inverse","4","1","2","¿En qué año nació Michael Jackson?","1958","1953","","1","1","1","competitive","left","1.60553193092","2225.32488513","3.39446806908","2228.86027694","5.08357691765","2233.94389009","0.916423082352","2234.91140509","2236.88962102","2236.97952008","2239.98249197","1","2239.99669003","2245.85876203",""
"sujeto_0053790","1","3","29","93","2245.99753499","direct","3","1","2","¿En qué año entró en vigencia 
la ley antitabaco en Uruguay?","2005","2006","","1","1","1","competitive","left","1.56228899956","2247.55988693","3.43771100044","2251.1555841","4.14423108101","2255.29987502","1.85576891899","2257.18929815","2258.78275394","2258.85751104","2261.86049795","1","2261.87444496","2267.20673299",""
"sujeto_0053790","1","3","30","94","2267.34279108","inverse","3","1","1","¿Cuándo se subió el 
primer video a youtube?","2004","2005","","0","0","1","individual","right","2.62012004852","2269.96297097","2.37987995148","2272.53137112","1.18239307404","2273.71381998","4.81760692596","2278.56596708","2279.87073612","2279.91853714","2282.91872406","0","2282.93598604","2290.69163609",""
"sujeto_0053790","1","3","31","95","2290.8368001","direct","2","1","1","¿Cuántos habitantes tiene India?","1200 millones","1300 millones","","0","0","0","competitive","right","1.36006617546","2292.19693613","3.63993382454","2295.97631812","3.02748513222","2299.0038631","2.97251486778","2302.010674","2303.98030496","2304.06268811","2307.0656321","0","2307.07973599","2313.12673306",""
"sujeto_0053790","1","3","32","96","2313.28537011","inverse","4","1","2","¿A qué edad murió Bob Marley?","36","37","","0","0","1","competitive","right","1.11242699623","2314.39784098","3.88757300377","2318.43916607","1.34767889977","2319.78690314","4.65232110023","2324.47266102","2326.37049294","2326.45868897","2329.46165705","0","2329.47586608","2332.57832694",""
"sujeto_0053790","1","4","1","97","2464.91339993","direct","2","1","1","¿Cuantos años dirigió la selección 
uruguaya Tabarez?","15 años","13 años","","0","0","0","competitive","right","1.09043598175","2466.00389695","3.90956401825","2470.08271503","0.581102848053","2470.6638751","5.41889715195","2476.13279295","2477.32395196","2477.40240502","2480.40539312","0","2480.41922498","2487.49126101","2332.59306693"
"sujeto_0053790","1","4","2","98","2487.62063313","inverse","4","1","1","¿Cuantas teclas tiene un teclado 
de computadora generalmente? ","Entre 99 y 108","Entre 109 y 113","","1","1","1","individual","left","1.83922195435","2489.45989513","3.16077804565","2492.81269407","3.0451259613","2495.85788107","2.9548740387","2498.86240411","2499.86514401","2499.91342616","2502.91639996","1","2502.93058896","2505.30203104",""
"sujeto_0053790","1","4","3","99","2505.43214512","direct","1","1","1","¿Cuál Departamento tiene
 mayor superficie?","Río Negro","Soriano","","0","0","0","competitive","left","1.87661099434","2507.30879307","3.12338900566","2510.60527611","3.4715681076","2514.07687998","2.5284318924","2516.65610504","2518.36957502","2518.44056106","2521.44351602","0","2521.45766807","2525.78373504",""
"sujeto_0053790","1","4","4","100","2525.92646813","inverse","3","1","2","¿Cuál es el apellido de las 
hermanastras  de  cenicienta?","Tremaine","Truman","","0","0","1","competitive","right","0.730401992798","2526.65691113","4.2695980072","2531.11553407","2.94931578636","2534.06490898","3.05068421364","2537.16565013","2539.03519201","2539.11710215","2542.12007403","0","2542.13510013","2544.83106303",""
"sujeto_0053790","1","4","5","101","2544.96987104","direct","4","1","4","¿Cuál película ganó un
 Oscar a mejor película?","Alto Impacto","Cache","","0","0","1","competitive","right","1.49698090553","2546.46689701","3.50301909447","2550.12304306","4.09177279472","2554.21486998","1.90822720528","2556.15892601","2557.27830601","2557.35958695","2560.36257911","0","2560.37678504","2562.64141297",""
"sujeto_0053790","1","4","6","102","2562.77916908","inverse","1","1","3","¿A cuántos centímetros
equivale la medida pié?","25","30","","0","0","1","competitive","right","0.776707172394","2563.55593801","4.22329282761","2567.93425202","3.0475859642","2570.98189998","2.9524140358","2573.98518705","2575.02520514","2575.10361004","2578.10658312","0","2578.11976504","2583.52069616",""
"sujeto_0053790","1","4","7","103","2583.655164","direct","2","1","2","¿Qué departamento es mas grande?","Cerro Largo","Paysandú","","0","0","0","competitive","left","1.16966104507","2584.824929","3.83033895493","2588.84583998","0.512992858887","2589.35887599","5.48700714111","2594.89495397","2596.49468994","2596.58054805","2599.58352613","0","2599.59847903","2603.70845294",""
"sujeto_0053790","1","4","8","104","2603.84942412","inverse","2","1","3","¿Quién pintó la Mona Lisa?","Picasso","Da Vinci","right","0","0","1","competitive","right","0.792459011078","2604.64195108","4.20754098892","2609.01964402","4.71015906334","2613.72986293","1.28984093666","2615.05557203","2616.66144609","2616.739748","2619.74275112","1","2619.756881","2621.91872716",""
"sujeto_0053790","1","4","9","105","2622.07553911","direct","4","1","3","¿Cuántos litros hay en un galon?","3.54","3.78","","1","1","1","competitive","left","1.3692650795","2623.44486308","3.6307349205","2627.24906301","3.68171286583","2630.93080902","2.31828713417","2633.29916811","2634.81703305","2634.90103316","2637.90401816","1","2637.91810703","2643.70676708",""
"sujeto_0053790","1","4","10","106","2643.86905503","inverse","4","1","1","¿Cuántas teclas tiene
 un piano moderno?","80","88","","0","0","1","individual","right","1.76976895332","2645.63886595","3.23023104668","2649.04217696","3.37354803085","2652.41577506","2.62645196915","2655.09424496","2656.10268497","2656.14481497","2659.147753","0","2659.16178393","2665.95955801",""
"sujeto_0053790","1","4","11","107","2666.13053894","direct","4","1","3","¿Cuántos países hay en África?","54","62","","0","0","1","competitive","right","1.17027807236","2667.30086207","3.82972192764","2671.28764701","2.48420095444","2673.77188516","3.51579904556","2677.33782411","2679.02838016","2679.10662699","2682.10964108","0","2682.12361598","2689.92839313",""
"sujeto_0053790","1","4","12","108","2690.07559013","inverse","1","1","3","¿En qué siglo se crearon
 las primeras pistolas?","XV","XIII","","1","1","1","competitive","left","1.04229402542","2691.11795902","3.95770597458","2695.23095107","5.15191984177","2700.38290811","0.848080158234","2701.28363705","2703.23157597","2703.31730008","2706.32029295","1","2706.3353231","2709.56841898",""
"sujeto_0053790","1","4","13","109","2709.75326896","direct","3","1","4","¿En qué año se estrenó 
la serie friends?","1994","1995","","0","0","1","competitive","right","4.12756204605","2713.88089395","0.872437953949","2714.94256616","3.34623908997","2718.28886914","2.65376091003","2720.97810602","2722.85343909","2722.92883301","2725.93075895","0","2725.94703913","2730.95311213",""
"sujeto_0053790","1","4","14","110","2731.08186102","inverse","3","1","4","¿En qué año nació Hitler?","1889","1887","","0","0","1","competitive","left","1.03801679611","2732.11991811","3.96198320389","2736.22138715","3.87745094299","2740.09887815","2.12254905701","2742.25487804","2743.36925817","2743.43965316","2746.44264603","0","2746.45681405","2751.48379302",""
"sujeto_0053790","1","4","15","111","2751.62493706","direct","1","1","4","¿Cuánto pesa un elefante Africano?","6000 kilos","5400 kilos","","0","0","0","competitive","left","2.45893979073","2754.08394003","2.54106020927","2756.79600406","4.1437830925","2760.93982601","1.8562169075","2762.83342409","2764.18934202","2764.26700497","2767.27001214","0","2767.28413296","2773.99120593",""
"sujeto_0053790","1","4","16","112","2774.1356051","inverse","1","1","2","¿Qué porcentaje de 
la población es zurda?","10%","7%","","1","1","0","competitive","right","2.72721505165","2776.86286116","2.27278494835","2779.30753493","2.71730208397","2782.02489996","3.28269791603","2785.34397316","2786.58708501","2786.66181898","2789.664783","1","2789.67999601","2795.65972805",""
"sujeto_0053790","1","4","17","113","2795.79776001","direct","1","1","2","¿En qué año se estrenó
Volver al futuro?","1984","1985","","0","0","1","competitive","right","0.942121982574","2796.73994303","4.05787801743","2800.97114897","2.6326649189","2803.60385203","3.3673350811","2807.02138615","2808.58321404","2808.65688109","2811.65985608","0","2811.67408013","2818.76275396",""
"sujeto_0053790","1","4","18","114","2818.90847993","inverse","3","1","2","¿Cuántos jugadores hay en un 
equipo de baseball?","9","8","","1","1","0","individual","left","0.698409080505","2819.60693812","4.30159091949","2824.06610012","3.0387840271","2827.10492301","2.9612159729","2830.11631799","2831.73053908","2831.767977","2834.77095008","1","2834.7862041","2839.76275396",""
"sujeto_0053790","1","4","19","115","2839.90377307","direct","2","1","1","¿Cuántos Oscar ganó
 la película titanic?","13","11","","1","1","1","competitive","left","1.41417503357","2841.31799603","3.58582496643","2845.06035805","3.01248979568","2848.07291102","2.98751020432","2851.094491","2852.39655614","2852.47981405","2855.48275805","1","2855.49687696","2860.09956408",""
"sujeto_0053790","1","4","20","116","2860.24841809","inverse","4","1","4","¿En qué año comenzó
la segunda guerra mundial?","1939","1976","left","0","0","1","individual","left","3.21643519402","2863.46491408","1.78356480598","2865.42116404","0.615691900253","2866.036901","5.38430809975","2871.46925402","2873.26909709","2873.32174397","2876.32469916","1","2876.33881998","2880.32596707",""
"sujeto_0053790","1","4","21","117","2880.45714593","direct","2","1","4","¿Cuántos biomas hay en Uruguay?","5","4","","0","0","1","competitive","left","0.606750011444","2881.06397414","4.39324998856","2885.61394501","0.767937898636","2886.38191915","5.23206210136","2891.66344213","2893.46080303","2893.5325191","2896.53551602","0","2896.55084205","2902.80025697",""
"sujeto_0053790","1","4","22","118","2902.93596506","inverse","2","1","3","¿Cuándo murió Pablo Escobar?","1993","1997","","1","1","1","individual","left","0.659941196442","2903.59597397","4.34005880356","2908.09233713","2.04147410393","2910.13386798","3.95852589607","2914.14351797","2915.92634201","2915.97831511","2918.98128295","1","2918.99547505","2924.69876194",""
"sujeto_0053790","1","4","23","119","2924.83006716","direct","1","1","4","¿Qué serie ha ganado mas premios?","Friends","Murphy Brown","","1","1","0","competitive","left","0.704838037491","2925.53499699","4.29516196251","2929.98756599","2.2253408432","2932.21296597","3.7746591568","2936.03759003","2937.39000416","2937.47291303","2940.47588205","1","2940.48977995","2946.046808",""
"sujeto_0053790","1","4","24","120","2946.21120906","inverse","4","1","2","¿Cuántas fichas tiene el dominó?","26","28","","1","1","1","individual","right","2.75220799446","2948.96348","2.24779200554","2951.39775205","2.80409121513","2954.20187998","3.19590878487","2957.44931197","2958.50465798","2958.55107808","2961.55400395","1","2961.56791711","2966.81097913",""
"sujeto_0053790","1","4","25","121","2966.95271015","direct","2","1","4","¿Cuántos son los dientes de leche?","20","25","","0","0","1","competitive","right","1.55516910553","2968.50794005","3.44483089447","2972.10985208","2.37599015236","2974.48589897","3.62400984764","2978.15962315","2979.86997795","2979.94437909","2982.94736195","0","2982.96196103","2985.10767794",""
"sujeto_0053790","1","4","26","122","2985.24693108","inverse","3","1","3","¿Cuántos gramos son una onza?","22","28","","0","0","1","competitive","right","1.10195612907","2986.3489511","3.89804387093","2990.40156412","2.2593331337","2992.66095901","3.7406668663","2996.45157194","2998.44642615","2998.52093315","3001.52391696","0","3001.5381","3007.82835197",""
"sujeto_0053790","1","4","27","123","3007.95695996","direct","3","1","1","¿Cuándo salió el primer album
 de los Beatles?","1963","1962","","1","1","1","competitive","right","0.883953094482","3008.84099007","4.11604690552","3013.11334801","2.57448005676","3015.68786311","3.42551994324","3019.14696598","3020.31062412","3020.38231206","3023.38529801","1","3023.39931607","3027.17074108",""
"sujeto_0053790","1","4","28","124","3027.31844306","inverse","3","1","3","¿Quién fundó la empresa apple?","Carlos Slim","Steve Jobs","","1","1","1","individual","left","1.07348585129","3028.39197993","3.92651414871","3032.48700094","1.15089988708","3033.63793707","4.84910011292","3038.53835011","3039.65304208","3039.69054008","3042.69351602","1","3042.7076931","3049.00277901",""
"sujeto_0053790","1","4","29","125","3049.14253497","direct","4","1","2","¿Cuántos municipios hay
 en Montevideo?","8","7","","1","1","1","individual","left","2.48431301117","3051.62688708","2.51568698883","3054.33136415","3.3404519558","3057.67187095","2.6595480442","3060.38558006","3062.29870701","3062.33752799","3065.34051394","1","3065.35462213","3067.43477416",""
"sujeto_0053790","1","4","30","126","3067.58968496","inverse","1","1","1","¿Cuántos kilómetros hay
 de Montevideo a Artigas?","632","599","","0","0","0","competitive","right","2.83017802238","3070.41993093","2.16982197762","3072.76076102","2.74011993408","3075.50093699","3.25988006592","3078.81190896","3080.2948041","3080.37972593","3083.38269114","0","3083.39755702","3089.44968414",""
"sujeto_0053790","1","4","31","127","3089.59842515","direct","2","1","2","¿En qué año nació 
Leonardo Da Vinci?","1452","1511","","1","1","0","competitive","right","1.28644704819","3090.88491702","3.71355295181","3094.73953295","2.4683380127","3097.20791316","3.5316619873","3100.78930807","3102.64292598","3102.72458315","3105.72757196","1","3105.74151206","3108.88792109",""
"sujeto_0053790","1","4","32","128","3109.02689815","inverse","3","1","1","¿A qué continente
 pertenece el país Gabón?","Africa","Oceanía","","0","0","1","individual","left","0.907999992371","3109.93499494","4.09200000763","3114.19862294","3.16820812225","3117.36688304","2.83179187775","3120.24889994","3122.06060195","3122.10093904","3125.10276914","0","3125.11798906","3130.35588598",""
