"code","nro_aplicante","nro_bloque","nro_trial_bloque","nro_trial_global","show_game_type","choice_order","rival","pay_individual","pay_competitive","question","answer_left_text","answer_right_text","correct_answer","outcome_individual","outcome_competitive","outcome_rival","game_type","answer","social_time","rt_game_type","feedback_delay","show_question","answer_time","rt_answer_global","feedback_delay_2","show_jitter","jitter_time","show_outcome","outcome_time","outcome_participant_real","show_final_jitter","second_jitter_time","inicio_descanso"
"sujeto_dabe6acb","1","1","1","1","721.90024519","direct","3","1","4","¿Cuántos centímetros corresponden
al talle 36 del calzado?","23","24","","0","0","1","competitive","left","2.40752410889","724.307829142","2.59247589111","727.069139004","3.95665001869","731.025851011","2.04334998131","733.123293161","734.151595116","734.223486185","737.225605965","0","737.241580963","739.404067039",""
"sujeto_dabe6acb","1","1","2","2","739.543668985","inverse","3","1","2","¿Cuántas metros mide la Intendencia
Municipal de Montevideo? ","84","78","","0","0","1","competitive","left","3.09812688828","742.641860962","1.90187311172","744.71451807","3.65928220749","748.373859167","2.34071779251","750.747467995","752.625531197","752.697844028","755.700762033","0","755.714871168","757.807628155",""
"sujeto_dabe6acb","1","1","3","3","757.951120138","direct","1","1","3","¿Cuántas La Pasiva
 hay en uruguay?","15","11","","1","1","1","competitive","left","1.99875617027","759.94999814","3.00124382973","763.121831179","3.24899506569","766.370867014","2.75100493431","769.157843113","770.76950717","770.841920137","773.842743158","1","773.860256195","778.138622999",""
"sujeto_dabe6acb","1","1","4","4","778.278171062","inverse","3","1","3","¿De que color es la camiseta de uruguay?","blanca","celeste","right","1","1","1","competitive","right","1.88470697403","780.162947178","3.11529302597","783.43424511","2.6686091423","786.102913141","3.3313908577","789.484255075","790.688995123","790.769488096","793.772482157","1","793.786369085","797.240282059",""
"sujeto_dabe6acb","1","1","5","5","797.379662037","direct","2","1","1","¿Cuánto metros mide
la torre Eiffel?","333","324","","1","1","1","individual","right","2.14415001869","799.523859978","2.85584998131","802.54392314","3.291918993","805.835906029","2.708081007","808.595072031","810.116459131","810.162908077","813.165569067","1","813.179584026","820.216273069",""
"sujeto_dabe6acb","1","1","6","6","820.352121115","inverse","3","1","4","¿Cuantas ciudades existen
 en todo el uruguay?","63","72","","0","0","1","competitive","right","1.84563302994","822.197818995","3.15436697006","825.522097111","3.31079006195","828.832926035","2.68920993805","831.556326151","832.611114025","832.690582037","835.693611145","0","835.707807064","843.333539963",""
"sujeto_dabe6acb","1","1","7","7","843.462104082","direct","1","1","1","¿Cuantos estados tiene África?","52","54","","1","1","0","competitive","left","2.46377110481","845.925947189","2.53622889519","848.616118193","2.31177997589","850.927942991","3.68822002411","854.650753021","856.513604164","856.585447073","859.588411093","1","859.602415085","865.363438129",""
"sujeto_dabe6acb","1","1","8","8","865.504903078","inverse","4","1","4","¿En qué año nació
 Stephen Hawking?","1952","1942","","0","0","1","competitive","left","2.77594590187","868.280949116","2.22405409813","870.676159143","2.98469400406","873.660892963","3.01530599594","876.712786198","878.157040119","878.231204987","881.23418498","0","881.24814105","887.34750104",""
"sujeto_dabe6acb","1","1","9","9","887.473481178","direct","2","1","3","¿Cuánto años tenía Artigas
 cuando se fue a Paraguay?","56","57","","1","1","1","competitive","left","1.7912709713","889.264791012","3.2087290287","892.624267101","3.60760617256","896.231912136","2.39239382744","898.671791077","900.221289158","900.290021181","903.292978048","1","903.307114124","909.354428053",""
"sujeto_dabe6acb","1","1","10","10","909.477172136","inverse","1","1","2","¿Cuantos milímetros 
mide una hoja A2?","420x592","420x594","","0","0","1","competitive","right","2.00877904892","911.486004114","2.99122095108","914.650393963","4.38650512695","919.036959171","1.61349487305","920.700719118","922.269154072","922.351447105","925.353582144","0","925.368764162","932.441577196",""
"sujeto_dabe6acb","1","1","11","11","932.573743105","direct","3","1","3","¿Cuál es la menor temperatura 
registrada en Uruguay?","-5.4","-7.4","","0","0","1","competitive","left","1.89919877052","934.473004103","3.10080122948","937.746836185","3.38206911087","941.128967047","2.61793088913","943.796993017","945.477581024","945.548362017","948.551338196","0","948.565541029","952.298811197",""
"sujeto_dabe6acb","1","1","12","12","952.435746193","inverse","2","1","2","¿Cuantos años hace que 
se fundó facebook?","18","17","","0","0","0","competitive","left","2.5631840229","954.999001026","2.4368159771","957.605488062","4.79736685753","962.402914047","1.20263314247","963.641679049","965.014414072","965.092177153","968.095153093","0","968.110099077","970.884728193",""
"sujeto_dabe6acb","1","1","13","13","971.010838032","direct","1","1","4","¿Cuál animal es más
 pesado en promedio?","Rinoceronte","Hipopotamo","","0","0","0","competitive","right","2.39406204224","973.404999971","2.60593795776","976.233218193","4.32470798492","980.55796814","1.67529201508","982.284984112","983.364233971","983.435863972","986.437577009","0","986.452654123","990.293645144",""
"sujeto_dabe6acb","1","1","14","14","990.42099905","inverse","1","1","2","¿Qué personaje de dragon ball 
murió más veces?","Chaoz","Krillin","","1","1","0","competitive","right","1.40891981125","991.829961061","3.59108018875","995.559519053","4.52842593193","1000.08800602","1.47157406807","1001.61103606","1003.06877112","1003.1453011","1006.14826298","1","1006.16268015","1013.93357015",""
"sujeto_dabe6acb","1","1","15","15","1014.063411","direct","3","1","2","La universidad de oxford. 
existe desde:","1096","1249","","1","1","0","individual","right","2.25250387192","1016.315979","2.74749612808","1019.22024107","4.81069302559","1024.03098297","1.18930697441","1025.25676012","1026.30556917","1026.35719609","1029.35757017","1","1029.37479901","1036.06558013",""
"sujeto_dabe6acb","1","1","16","16","1036.19630408","inverse","3","1","1","¿Qué escritor latino ganó antes
 el premio nobel?"," García Marquez","Neruda","","0","0","1","individual","left","1.90067100525","1038.09702015","3.09932899475","1041.36382699","5.22013092041","1046.5840261","0.77986907959","1047.41653013","1049.15653801","1049.19985509","1052.20156813","0","1052.21767807","1055.67820215",""
"sujeto_dabe6acb","1","1","17","17","1055.82171512","direct","4","1","3","¿Cuántos dientes tiene un
 tiburón blanco?","6000","3000","","0","0","1","competitive","right","2.304251194","1058.12601018","2.695748806","1060.97705913","4.20987510681","1065.18699217","1.79012489319","1067.00931501","1068.04829407","1068.12730598","1071.13026714","0","1071.14373517","1075.94957614",""
"sujeto_dabe6acb","1","1","18","18","1076.07910109","inverse","4","1","1","¿Cuánto mide el paralelo Ecuador?","40.000km","70.000km","","0","0","1","individual","right","1.46386599541","1077.54301405","3.53613400459","1081.23750997","4.35847711563","1085.59605002","1.64152288437","1087.28855801","1089.24468207","1089.28947711","1092.29244518","0","1092.30665112","1095.90917802",""
"sujeto_dabe6acb","1","1","19","19","1096.04181409","direct","4","1","2","¿Cuál fue el primer libro 
de Stephen King?","Carrie","The Stand","","1","1","1","individual","left","2.03414082527","1098.07601905","2.96585917473","1101.22796106","3.97102999687","1105.19905114","2.02897000313","1107.28218198","1109.02552009","1109.06659913","1112.06956816","1","1112.0835681","1116.55795598",""
"sujeto_dabe6acb","1","1","20","20","1116.72117114","inverse","2","1","3","¿Qué civilización practicaba
 la momificación?","Grecia","Egipto","right","0","0","1","competitive","right","1.91787600517","1118.639117","3.08212399483","1121.88876414","2.52219414711","1124.41100216","3.47780585289","1127.94231009","1129.88161516","1129.96068597","1132.96365118","1","1132.97765207","1137.20644712",""
"sujeto_dabe6acb","1","1","21","21","1137.33350801","direct","4","1","4","¿Cuántos millones de visitas
 recibe google por minuto?","3.0","4.5","","0","0","1","competitive","right","1.50955200195","1138.8431251","3.49044799805","1142.48638916","2.88563895226","1145.37208915","3.11436104774","1148.53605413","1150.05085301","1150.1207521","1153.12375808","0","1153.13790512","1160.26059103",""
"sujeto_dabe6acb","1","1","22","22","1160.39119315","inverse","1","1","3","La máquina de fax. se inventó en:","1843","1960","","0","0","1","competitive","right","1.60787606239","1161.99911118","3.39212393761","1165.5307951","4.67222714424","1170.20307899","1.32777285576","1171.58193707","1172.82404518","1172.89904404","1175.90202904","0","1175.91619301","1179.15249205",""
"sujeto_dabe6acb","1","1","23","23","1179.2849772","direct","2","1","4","En la verdadera historia de los
 300 espartanos. habían:","300 soldados","4300 soldados","","1","1","1","competitive","left","1.99202799797","1181.27706909","3.00797200203","1184.47179413","5.9271800518","1190.39901614","0.0728199481964","1190.5094142","1191.77062607","1191.84260798","1194.8455441","1","1194.86077213","1198.6625371",""
"sujeto_dabe6acb","1","1","24","24","1198.79715204","inverse","1","1","4","¿Cuántos milímetros crece
 el pelo por día?","0.4","0.04","","0","0","0","competitive","right","1.69485497475","1200.49205017","3.30514502525","1203.95071101","3.86228084564","1207.81303716","2.13771915436","1209.99952507","1211.76024818","1211.83410406","1214.83705902","0","1214.85115409","1221.58625507",""
"sujeto_dabe6acb","1","1","25","25","1221.72170305","direct","4","1","1","¿Cuánto mide la baldosa gris 
clásica de Montevideo?","22x22 cm.","20x20 cm.","","1","1","1","individual","right","1.69235682487","1223.41410303","3.30764317513","1226.87864208","4.79440188408","1231.67310309","1.20559811592","1232.93081808","1234.92556906","1234.96444917","1237.96739697","1","1237.98172402","1243.52155519",""
"sujeto_dabe6acb","1","1","26","26","1243.65242314","inverse","2","1","2","¿Cuántas películas de rápidos
 y furiosos hay?","10","11","","1","1","0","competitive","right","1.67664313316","1245.32910919","3.32335686684","1248.80743909","3.00753092766","1251.81502604","2.99246907234","1254.85779309","1256.21581912","1256.29162097","1259.29356909","1","1259.30973005","1261.34442902",""
"sujeto_dabe6acb","1","1","27","27","1261.51172209","direct","3","1","1","¿Cuántos masters 1000
 ganó Del Potro?","1","2","","1","1","1","individual","right","1.97041082382","1263.48224616","3.02958917618","1266.69968915","3.52139401436","1270.22114301","2.47860598564","1272.74958611","1274.50416398","1274.55134606","1277.55352306","1","1277.56857109","1284.96156907",""
"sujeto_dabe6acb","1","1","28","28","1285.10727406","inverse","2","1","4","¿Cuántos meses dura el 
embarazo de una leona?","3 meses","4 meses","","0","0","1","competitive","right","1.91588592529","1287.02323198","3.08411407471","1290.294245","3.68389701843","1293.97820497","2.31610298157","1296.34646201","1297.45752907","1297.53102517","1300.53352809","0","1300.54739904","1307.26990509",""
"sujeto_dabe6acb","1","1","29","29","1307.40054798","direct","1","1","1","¿En qué año fue creado
 el sandwich?","1762","1653","","1","1","0","competitive","left","2.9315059185","1310.33209801","2.0684940815","1312.55402303","3.46404480934","1316.01812696","2.53595519066","1318.58944297","1320.18682408","1320.25734019","1323.26032996","1","1323.2754271","1326.74605012",""
"sujeto_dabe6acb","1","1","30","30","1326.89327502","inverse","4","1","2","El nombre de la moneda de Vietnam es:","Dinar","Dong","","0","0","1","individual","right","1.60688900948","1328.50023699","3.39311099052","1332.05001497","3.37709903717","1335.42718005","2.62290096283","1338.08270717","1339.51351309","1339.55028009","1342.55320215","0","1342.56737614","1348.7345891",""
"sujeto_dabe6acb","1","1","31","31","1348.8716321","direct","2","1","1","¿cuantos aleteos puede dar 
un colibrí por segundo?","120","50","","0","0","0","competitive","left","2.56445717812","1351.43615198","2.43554282188","1354.042068","4.4260289669","1358.46815705","1.5739710331","1360.09655619","1361.82891703","1361.914042","1364.91697598","0","1364.93094015","1369.14318419",""
"sujeto_dabe6acb","1","1","32","32","1369.28214812","inverse","4","1","3","¿Qué altura promedio tienen
 los hombres uruguayos?","1.73 m","1.72 m","","1","1","1","individual","right","2.04999709129","1371.332196","2.95000290871","1374.45169902","3.66439199448","1378.11613107","2.33560800552","1380.48988819","1381.75225806","1381.7904911","1384.79341316","1","1384.80832911","1389.28157616",""
"sujeto_dabe6acb","1","2","1","33","1574.93953514","direct","1","1","1","¿En qué año nació 
el actor Bradd Pitt?","1967","1963","","1","1","1","competitive","right","1.94774508476","1576.88734198","3.05225491524","1580.10860801","3.09155797958","1583.20020413","2.90844202042","1586.16205812","1587.25753903","1587.32996011","1590.33293509","1","1590.34685898","1596.27352309","1389.29286098"
"sujeto_dabe6acb","1","2","2","34","1596.41767311","inverse","2","1","1","¿Cual es el segundo 
monte más alto?","Kanchenjunga","K2","","1","1","1","individual","left","1.54656887054","1597.96430516","3.45343112946","1601.57160115","3.08066797256","1604.65230918","2.91933202744","1607.62116909","1609.07354212","1609.12294412","1612.12594914","1","1612.13989997","1615.56954813",""
"sujeto_dabe6acb","1","2","3","35","1615.71065712","direct","3","1","1","¿Cuándo finalizó la construcción
 del Palacio Legislativo?","1925","1917","","0","0","1","individual","left","1.72057700157","1617.43129706","3.27942299843","1620.86542106","3.15987586975","1624.0253551","2.84012413025","1626.89887404","1628.54053211","1628.58383012","1631.58554101","0","1631.60114813","1637.29870915",""
"sujeto_dabe6acb","1","2","4","36","1637.43688416","inverse","3","1","3","¿Cuántos integrantes tenía
 en su inicio  el cuarteto de nos?","3","4","","1","1","1","competitive","right","1.35942697525","1638.79635715","3.64057302475","1642.57657719","3.36867594719","1645.94531798","2.63132405281","1648.62677097","1649.759866","1649.84541297","1652.848423","1","1652.86203003","1658.51184797",""
"sujeto_dabe6acb","1","2","5","37","1658.66384697","direct","2","1","3","¿Qué valor tiene el número pi?","3.14","4.18","left","0","0","1","competitive","left","1.75444698334","1660.41833615","3.24555301666","1663.82071018","2.09656000137","1665.91733599","3.90343999863","1669.85429811","1671.30851507","1671.38931298","1674.39228511","1","1674.40637612","1681.32736015",""
"sujeto_dabe6acb","1","2","6","38","1681.46156406","inverse","2","1","2","¿Cuál es la esperanza de vida
 en Uruguay?","75","77","","1","1","0","competitive","left","2.16575598717","1683.62736797","2.83424401283","1686.61527109","3.07301712036","1689.68832803","2.92698287964","1692.66661119","1694.32042408","1694.40151","1697.40448809","1","1697.41736507","1703.88039112",""
"sujeto_dabe6acb","1","2","7","39","1704.02266717","direct","1","1","2","¿Cuantos pisos tiene la torre 
de las comunicaciones?","26","32","","1","1","0","competitive","left","1.51763510704","1705.54034519","3.48236489296","1709.16121507","3.23507094383","1712.39633107","2.76492905617","1715.21136308","1717.04008508","1717.11301208","1720.11599898","1","1720.13028407","1722.27649403",""
"sujeto_dabe6acb","1","2","8","40","1722.41591907","inverse","2","1","4","¿En qué país sudamericano 
no hay McDonalds?","Bolivia","Venezuela","","0","0","1","competitive","right","1.49536991119","1723.91133308","3.50463008881","1727.57048917","4.41982007027","1731.99035096","1.58017992973","1733.62064505","1734.93003201","1735.00469208","1738.00767708","0","1738.02176905","1744.38149309",""
"sujeto_dabe6acb","1","2","9","41","1744.55849099","direct","3","1","1","¿En qué año empieza
 la Edad Media?","476","512","","1","1","1","individual","left","2.10681009293","1746.66534615","2.89318990707","1749.71482611","2.63039398193","1752.34527612","3.36960601807","1755.74853396","1757.15228105","1757.20024014","1760.20318604","1","1760.21734309","1763.20589018",""
"sujeto_dabe6acb","1","2","10","42","1763.33784819","inverse","3","1","4","¿Hace cuántos años surgió
 el ser humano?","200mil","300mil","","0","0","0","competitive","right","1.19451904297","1764.5324111","3.80548095703","1768.48809099","3.85418605804","1772.3423152","2.14581394196","1774.54085803","1776.42556715","1776.50792503","1779.50956702","0","1779.52586818","1782.83355308",""
"sujeto_dabe6acb","1","2","11","43","1783.14703107","direct","3","1","4","¿Cuántas cuadras tiene
 actualmente 18 de julio? ","36","33","","0","0","1","competitive","left","2.36732888222","1785.51440597","2.63267111778","1788.31685305","3.08450698853","1791.40142012","2.91549301147","1794.36842418","1796.07066107","1796.153368","1799.15638208","0","1799.17133904","1803.89762712",""
"sujeto_dabe6acb","1","2","12","44","1804.0395782","inverse","1","1","4","¿Qué juego de equipo se 
considera mas rápido?","Lacrosse","Badminton","","0","0","0","competitive","left","2.1017870903","1806.14144802","2.8982129097","1809.19345713","4.01785516739","1813.21137714","1.98214483261","1815.24699712","1816.48958111","1816.5624702","1819.56547117","0","1819.58031201","1827.57357097",""
"sujeto_dabe6acb","1","2","13","45","1827.70122504","direct","1","1","3","¿Qué promedio de edad 
vive una jirafa? ","25","20","","0","0","1","competitive","left","1.98223996162","1829.68351412","3.01776003838","1832.87441611","3.60697603226","1836.48148298","2.39302396774","1838.92547607","1840.68556404","1840.76009011","1843.76305914","0","1843.77695704","1849.73267198",""
"sujeto_dabe6acb","1","2","14","46","1849.86173701","inverse","1","1","2","¿Cuántos grandes lagos hay?","7","5","","0","0","1","competitive","left","2.9146399498","1852.77642107","2.0853600502","1855.01972699","2.23565196991","1857.25543904","3.76434803009","1861.06939912","1862.36155009","1862.43761611","1865.4405942","0","1865.45557809","1873.27695704",""
"sujeto_dabe6acb","1","2","15","47","1873.42787218","direct","3","1","2","¿Cuántos discos de estudio
 grabó Johhny Cash? ","54","43","","1","1","0","individual","right","2.59050989151","1876.01845407","2.40949010849","1878.57778502","3.74349403381","1882.32133412","2.25650596619","1884.61606717","1885.89470601","1885.93322706","1888.93619704","1","1888.95098305","1895.60189104",""
"sujeto_dabe6acb","1","2","16","48","1895.75153708","inverse","4","1","1","¿Cuántos barrios tiene
 Montevideo? ","71","62","","0","0","1","individual","right","1.72177696228","1897.47335505","3.27822303772","1900.89278603","2.25855398178","1903.15140319","3.74144601822","1906.94279909","1907.94986916","1907.99446607","1910.99746799","0","1911.01160908","1916.4735992",""
"sujeto_dabe6acb","1","2","17","49","1916.61381507","direct","3","1","3","¿Qué edad tiene Homero Simpson?","36","42","","0","0","1","competitive","left","1.63656115532","1918.25044417","3.36343884468","1921.75347114","4.61298108101","1926.36651397","1.38701891899","1927.78772497","1929.16376805","1929.23786616","1932.24083519","0","1932.25589705","1936.64464903",""
"sujeto_dabe6acb","1","2","18","50","1936.79287314","inverse","4","1","2","¿Cuántos países con monarquía 
hay en europa actualmente? ","6","10","","1","1","1","individual","left","1.23454904556","1938.02746511","3.76545095444","1941.94588304","2.67653799057","1944.62248802","3.32346200943","1947.98040104","1949.41757107","1949.46534419","1952.46557307","1","1952.48280311","1958.63962412",""
"sujeto_dabe6acb","1","2","19","51","1958.767977","direct","2","1","3","¿Cuántos capítulos de
 Friends existen? ","236","228","","1","1","1","competitive","left","2.48446297646","1961.25250506","2.51553702354","1963.93944407","2.56896495819","1966.50845599","3.43103504181","1969.99146008","1971.29704118","1971.37563896","1974.37862611","1","1974.39278603","1976.76840901",""
"sujeto_dabe6acb","1","2","20","52","1976.89405799","inverse","1","1","3","¿Cuántas óperas compuso Mozart? ","27","22","","1","1","1","competitive","left","1.38933992386","1978.28344107","3.61066007614","1982.03456998","2.22790312767","1984.26253319","3.77209687233","1988.06743908","1989.3595531","1989.43644404","1992.43935609","1","1992.45346212","1999.76153016",""
"sujeto_dabe6acb","1","2","21","53","1999.90547419","direct","4","1","3","¿Cuántos mundiales de fútbol 
femenino ha realizado FIFA? ","9","7","","1","1","1","individual","right","1.70999193192","2001.61550808","3.29000806808","2005.06256604","2.89783787727","2007.96046901","3.10216212273","2011.11380315","2012.35751319","2012.39779615","2015.4007771","1","2015.41580319","2021.51825905",""
"sujeto_dabe6acb","1","2","22","54","2021.65158415","inverse","3","1","2","¿Cuál es la temperatura 
media anual en Montevideo? ","17.5","16.3","","0","0","1","individual","left","1.74689793587","2023.39854503","3.25310206413","2026.80834413","3.45009708405","2030.25847912","2.54990291595","2032.85690403","2034.79546309","2034.84177709","2037.84472609","0","2037.85964608","2044.42554402",""
"sujeto_dabe6acb","1","2","23","55","2044.58073997","direct","2","1","2","¿En qué año se estrenó el
 videojuego The Sims? ","2000","2002","","0","0","0","competitive","right","1.64175105095","2046.22255707","3.35824894905","2049.71985102","3.71362781525","2053.43352103","2.28637218475","2055.77105713","2057.63309407","2057.70438004","2060.70731997","0","2060.7224052","2068.11606002",""
"sujeto_dabe6acb","1","2","24","56","2068.29363513","inverse","2","1","1","¿Cuál es la canción con 
mas covers? ","Yesterday","Stand by me","","0","0","0","individual","left","2.86686110497","2071.1605401","2.13313889503","2073.46482611","3.28570580482","2076.75059414","2.71429419518","2079.51587915","2080.91357112","2080.95034099","2083.95330119","0","2083.96748805","2088.13830113",""
"sujeto_dabe6acb","1","2","25","57","2088.27151012","direct","1","1","4","¿Cuánto duró la guerra
 de los 100 años?","116","123","","0","0","0","competitive","left","2.40499806404","2090.67657208","2.59500193596","2093.4086442","2.63987994194","2096.04858303","3.36012005806","2099.45883107","2100.93967509","2101.01057601","2104.01356506","0","2104.02848506","2106.34828115",""
"sujeto_dabe6acb","1","2","26","58","2106.49858308","inverse","4","1","4","¿Qué color tiene la  bandera de Brasil?","Amarillo","Naranja","left","0","0","1","competitive","left","1.77189588547","2108.27054119","3.22810411453","2111.65157914","3.99187302589","2115.64349413","2.00812697411","2117.68491507","2119.25142002","2119.33578205","2122.33875918","1","2122.352777","2125.38556814",""
"sujeto_dabe6acb","1","2","27","59","2125.55449414","direct","4","1","3","¿Qué carabela de 
Colon no volvió del viaje?","Santa María","La pinta","","0","0","1","individual","left","2.34903001785","2127.90356517","2.65096998215","2130.72663808","4.70783901215","2135.43454313","1.29216098785","2136.77993417","2138.2709651","2138.31355214","2141.31652308","0","2141.33068204","2143.43014002",""
"sujeto_dabe6acb","1","2","28","60","2143.56801414","inverse","4","1","4","¿Cuántos huesos tiene
 un adulto humano?","217","206","","0","0","1","competitive","left","1.44447994232","2145.0125351","3.55552005768","2148.72073102","2.13476800919","2150.85555601","3.86523199081","2154.77078319","2156.04151607","2156.12246418","2159.12539411","0","2159.1393261","2166.97352719",""
"sujeto_dabe6acb","1","2","29","61","2167.1073401","direct","1","1","1","¿Qué país africano fue 
fundado por esclavos?","Liberia","Chad","","0","0","0","competitive","left","1.94820404053","2169.05561709","3.05179595947","2172.26595998","3.66755604744","2175.93356013","2.33244395256","2178.31621909","2180.30785513","2180.383636","2183.38657618","0","2183.40162301","2191.39241505",""
"sujeto_dabe6acb","1","2","30","62","2191.57407308","inverse","4","1","2","¿A cuánto asciende la cima
 del monte Everest?","7.990 mts","8.848 mts","","0","0","1","individual","left","1.31148600578","2192.88562107","3.68851399422","2196.72650504","3.44599485397","2200.17255616","2.55400514603","2202.77856302","2203.96340203","2204.01316214","2207.01613998","0","2207.03055906","2214.21459818",""
"sujeto_dabe6acb","1","2","31","63","2214.34869599","direct","4","1","1","¿Cuál es el país mas chico?","Sealand","Luxemburgo","","1","1","1","individual","right","1.46486091614","2215.81362605","3.53513908386","2219.52287006","2.12873101234","2221.65164208","3.87126898766","2225.55577302","2227.41928601","2227.45812607","2230.46109819","1","2230.47619605","2233.59753203",""
"sujeto_dabe6acb","1","2","32","64","2233.74580598","inverse","2","1","4","¿Cuántas pirámides hay en Egipto?","10000","11000","","1","1","1","competitive","left","1.64376401901","2235.38963103","3.35623598099","2238.90074611","3.28487682343","2242.18567014","2.71512317657","2244.95026898","2245.98387098","2246.06796217","2249.06949306","1","2249.08569813","2254.19349313",""
"sujeto_dabe6acb","1","3","1","65","2375.56718016","direct","2","1","2","¿Cuál es el quinto país con 
mas extensión?","Canadá","Brasil","","1","1","0","","","","","","","","","","","","","","","2380.589957","2388.31633019","2254.20733905"
"sujeto_dabe6acb","1","3","2","66","2388.43887019","inverse","1","1","2","¿Qué rasgo facial no tiene
 la Mona Lisa?","Cejas","Pómulos","","0","0","1","competitive","left","2.1597840786","2390.59869599","2.8402159214","2393.59673405","3.36794996262","2396.96472502","2.63205003738","2399.646559","2401.39692807","2401.48092318","2404.48151016","0","2404.49868298","2410.76999998",""
"sujeto_dabe6acb","1","3","3","67","2410.95306015","direct","4","1","3","¿Cuál es el país con 
mayor población?","Esados Unidos","China","right","0","0","1","competitive","right","1.55768799782","2412.510818","3.44231200218","2416.10814309","2.40352296829","2418.51172614","3.59647703171","2422.15852213","2423.80446506","2423.87639403","2426.87936902","1","2426.89476705","2430.26155114",""
"sujeto_dabe6acb","1","3","4","68","2430.3961401","inverse","1","1","1","La palabra dinosaurio significa","Lagarto Terrible","Lagarto Dragón","","1","1","0","competitive","right","1.51254296303","2431.908746","3.48745703697","2435.55145216","4.63725805283","2440.18877006","1.36274194717","2441.60294414","2442.77327299","2442.85361719","2445.85659409","1","2445.87085319","2448.73266315",""
"sujeto_dabe6acb","1","3","5","69","2448.872226","direct","2","1","3","¿Qué es el membrillero?","Arbol","Arbusto","","0","0","0","competitive","right","2.17744708061","2451.04973817","2.82255291939","2454.02801299","4.07861804962","2458.10669518","1.92138195038","2460.06076717","2462.01349902","2462.09458613","2465.09755898","0","2465.11265612","2471.57666612",""
"sujeto_dabe6acb","1","3","6","70","2471.71785498","inverse","3","1","3","¿Alrededor de qué planeta orbita 
el satélite Europa?","Jupiter","Saturno","","1","1","1","competitive","right","1.34684085846","2473.06473708","3.65315914154","2476.86925411","4.83945012093","2481.70877099","1.16054987907","2482.90557504","2484.44954419","2484.52250099","2487.5254941","1","2487.54070306","2489.74587297",""
"sujeto_dabe6acb","1","3","7","71","2489.89165902","direct","3","1","1","¿Donde fue el mundial de 
fútbol de 1954?","Suiza","Suecia","","1","1","1","individual","right","1.86910486221","2491.76083803","3.13089513779","2495.04928017","3.94336605072","2498.99270606","2.05663394928","2501.08312416","2502.3357141","2502.38390517","2505.38682103","1","2505.4009521","2509.31223416",""
"sujeto_dabe6acb","1","3","8","72","2509.45406008","inverse","1","1","4","¿Cuál de los 7 enanitos
no tenía barba?","Bashful","Mudito","","1","1","0","competitive","right","1.71467685699","2511.16878009","3.28532314301","2514.60965014","4.31906294823","2518.92875314","1.68093705177","2520.66012311","2522.24026203","2522.32747006","2525.33045816","1","2525.34451318","2530.27357912",""
"sujeto_dabe6acb","1","3","9","73","2530.4131391","direct","3","1","2","¿Cual red social es
mas utilizada mundialmente?","Instagram","Facebook","","1","1","0","competitive","left","1.92660593987","2532.339818","3.07339406013","2535.57037401","2.41229486465","2537.98272419","3.58770513535","2541.61734605","2543.53473306","2543.61996412","2546.62297606","1","2546.63711119","2549.5715611",""
"sujeto_dabe6acb","1","3","10","74","2549.70575905","inverse","4","1","1","¿Cuándo se inició la copa
 América de fútbol?","1916","1923","","1","1","1","individual","left","1.61803984642","2551.32386208","3.38196015358","2554.86308002","4.22167682648","2559.08482099","1.77832317352","2560.91448498","2562.81194019","2562.84847617","2565.85143709","1","2565.86537409","2568.52149916",""
"sujeto_dabe6acb","1","3","11","75","2568.66769814","direct","3","1","4","¿Cuántos presidentes de EEUU
han muerto asesinados?","3","4","","0","0","1","competitive","left","1.25909209251","2569.92685509","3.74090790749","2573.80598211","3.54476594925","2577.35078907","2.45523405075","2579.84033012","2581.32427216","2581.4073","2584.41028309","0","2584.42523599","2588.06935501",""
"sujeto_dabe6acb","1","3","12","76","2588.20972705","inverse","2","1","4","¿Cuántas veces participó EEUU
 en la copa América?","4","5","","0","0","1","competitive","left","1.36009883881","2589.56989217","3.63990116119","2593.38098598","2.35073304176","2595.73177719","3.64926695824","2599.43253613","2600.87662601","2600.95094705","2603.95394397","0","2603.968858","2610.08603311",""
"sujeto_dabe6acb","1","3","13","77","2610.21983719","direct","4","1","1","¿Cuál de estos países 
no formaba la URSS?","Azeribayán","Afganistán","","0","0","1","individual","right","1.37793803215","2611.59783816","3.62206196785","2615.37678599","5.34192705154","2620.71875405","0.658072948456","2621.411901","2622.72498298","2622.76267099","2625.76561713","0","2625.77979898","2633.76194",""
"sujeto_dabe6acb","1","3","14","78","2633.89728713","inverse","1","1","1","¿En qué año se inauguró
 el teatro Solís?","1867","1856","","0","0","0","competitive","right","1.67243504524","2635.56976318","3.32756495476","2639.05686307","3.38793301582","2642.4448421","2.61206698418","2645.10704899","2646.16337419","2646.241822","2649.24480414","0","2649.25801396","2655.90578508",""
"sujeto_dabe6acb","1","3","15","79","2656.06329918","direct","1","1","4","¿A qué velocidad vuela 
el avión más rápido?","3529","3874","","0","0","0","competitive","left","1.73254108429","2657.79590511","3.26745891571","2661.21788812","4.08789110184","2665.30584002","1.91210889816","2667.26897001","2669.02451205","2669.10276508","2672.10568905","0","2672.12025499","2674.22957802",""
"sujeto_dabe6acb","1","3","16","80","2674.3724432","inverse","3","1","4","¿De qué año es la primer 
película cinematográfica?","1897","1888","","0","0","0","competitive","right","1.34126901627","2675.71377611","3.65873098373","2679.52634501","4.60545396805","2684.13183904","1.39454603195","2685.56185508","2686.69478798","2686.7793901","2689.7823751","0","2689.79625797","2695.20557809",""
"sujeto_dabe6acb","1","3","17","81","2695.33113003","direct","2","1","3","¿Cuántos países 
tiene nuestro planeta?","191","194","","1","1","1","competitive","right","2.10764503479","2697.43882513","2.89235496521","2700.50292897","3.80294108391","2704.30590796","2.19705891609","2706.55597806","2707.91316605","2707.99005198","2710.99304008","1","2711.00722408","2714.245543",""
"sujeto_dabe6acb","1","3","18","82","2714.40707517","inverse","2","1","2","¿Cuántos habitantes
 tiene Buenos Aires?","2.9000.000","3650000","","0","0","0","competitive","right","1.60471510887","2716.01185203","3.39528489113","2719.56479502","4.15400481224","2723.71886897","1.84599518776","2725.61512613","2727.01234508","2727.08206701","2730.08503699","0","2730.10034609","2735.92958999",""
"sujeto_dabe6acb","1","3","19","83","2736.06796217","direct","2","1","1","¿Cuántos kilos forman una tonelada?","1000","1500","left","1","1","1","individual","left","2.12987208366","2738.1978991","2.87012791634","2741.2259171","2.76690101624","2743.99287701","3.23309898376","2747.27548909","2749.16284204","2749.211519","2752.21449614","1","2752.22851419","2758.18555617",""
"sujeto_dabe6acb","1","3","20","84","2758.33204007","inverse","4","1","4","¿Cuántos estados tiene la 
República del Perú? ","24","23","","0","0","1","competitive","right","1.38183879852","2759.71395302","3.61816120148","2763.50193405","3.21891784668","2766.72091317","2.78108215332","2769.55310011","2770.57526398","2770.65528011","2773.65825009","0","2773.6725111","2778.61782408",""
"sujeto_dabe6acb","1","3","21","85","2778.75652719","direct","3","1","3","¿En qué año nació Cristóbal Colón? ","1451","1447","","0","0","1","competitive","right","1.5913541317","2780.34794617","3.4086458683","2783.89734316","3.22049617767","2787.11790013","2.77950382233","2789.94879317","2791.79435802","2791.86642408","2794.86941099","0","2794.88345718","2799.111449",""
"sujeto_dabe6acb","1","3","22","86","2799.2690661","inverse","4","1","4","¿Cuánto mide la 
Montaña Aconcagua? ","6234","6962","","0","0","1","competitive","left","1.26372885704","2800.53285503","3.73627114296","2804.4250381","3.94084095955","2808.36594319","2.05915904045","2810.4588182","2811.74814916","2811.82610607","2814.8290422","0","2814.84317899","2822.02558303",""
"sujeto_dabe6acb","1","3","23","87","2822.16177702","direct","2","1","4","¿Cuánto mide el punto
 más profundo del océano? ","12508","11003","","0","0","1","competitive","left","1.60110187531","2823.76294112","3.39889812469","2827.31976008","3.79004788399","2831.1098721","2.20995211601","2833.37077212","2834.62226319","2834.704813","2837.70557714","0","2837.72265816","2841.92892909",""
"sujeto_dabe6acb","1","3","24","88","2842.07382107","inverse","1","1","3","¿Cuántos álbumes ha publicado 
el cantante Jaime Roos? ","41","34","","0","0","1","competitive","right","1.90910482407","2843.98297811","3.09089517593","2847.24644518","3.0454621315","2850.29196811","2.9545378685","2853.29549718","2854.78535414","2854.86339498","2857.86638713","0","2857.8795352","2864.07571816",""
"sujeto_dabe6acb","1","3","25","89","2864.2480371","direct","4","1","3","¿En qué año nació el 
ex-presidente Jorge Battle? ","1921","1927","","1","1","1","competitive","right","2.79586815834","2867.04395413","2.20413184166","2869.40572","2.913189888","2872.31895113","3.086810112","2875.44155717","2877.17224717","2877.26090217","2880.2638731","1","2880.27804708","2883.76409817",""
"sujeto_dabe6acb","1","3","26","90","2883.91126013","inverse","1","1","3","¿Cuántas presidencias 
constitucionales  hubo en Uruguay? ","41","42","","0","0","1","competitive","right","1.46466016769","2885.37596607","3.53533983231","2889.06815004","3.37578678131","2892.44398212","2.62421321869","2895.10163999","2896.30540419","2896.38536596","2899.3883481","0","2899.40229011","2905.18556499",""
"sujeto_dabe6acb","1","3","27","91","2905.32136106","direct","1","1","2","¿Quién escribió mas sinfonías?","Mozart","Haydn","","1","1","0","competitive","right","1.69856190681","2907.01997209","3.30143809319","2910.47982907","3.33005595207","2913.80994415","2.66994404793","2916.52991009","2917.74738812","2917.83122611","2920.83420801","1","2920.84819818","2924.59960818",""
"sujeto_dabe6acb","1","3","28","92","2924.73345017","inverse","4","1","2","¿En qué año nació Michael Jackson?","1958","1953","","1","1","1","individual","right","1.77245903015","2926.50595212","3.22754096985","2929.88978505","2.85714197159","2932.74696803","3.14285802841","2935.93995118","2937.91819215","2937.95789099","2940.96083403","1","2940.97600603","2946.83831811",""
"sujeto_dabe6acb","1","3","29","93","2946.99355698","direct","3","1","2","¿En qué año entró en vigencia 
la ley antitabaco en Uruguay?","2005","2006","","1","1","1","individual","right","2.33842492104","2949.3320272","2.66157507896","2952.16618299","3.90370798111","2956.0699501","2.09629201889","2958.21810603","2959.81284118","2959.85299611","2962.85595107","1","2962.8701582","2968.20416617",""
"sujeto_dabe6acb","1","3","30","94","2968.33903003","inverse","3","1","1","¿Cuándo se subió el 
primer video a youtube?","2004","2005","","0","0","1","individual","left","2.56692290306","2970.90602517","2.43307709694","2973.50977206","3.71523594856","2977.22506809","2.28476405144","2979.54615712","2980.8517971","2980.89723015","2983.90017915","0","2983.91423297","2991.66955519",""
"sujeto_dabe6acb","1","3","31","95","2991.83246708","direct","2","1","1","¿Cuántos habitantes tiene India?","1200 millones","1300 millones","","0","0","0","competitive","right","1.60645794868","2993.43896818","3.39354205132","2996.9912262","4.17977309227","3001.17106199","1.82022690773","3003.04152107","3005.01000214","3005.09186912","3008.09482813","0","3008.10986519","3014.15356898",""
"sujeto_dabe6acb","1","3","32","96","3014.29461718","inverse","4","1","2","¿A qué edad murió Bob Marley?","36","37","","0","0","1","individual","left","2.25435209274","3016.54904318","2.74564790726","3019.4698801","3.40708684921","3022.87700915","2.59291315079","3025.51809716","3027.41594005","3027.46934009","3030.46956301","0","3030.48657608","3033.58904004",""
"sujeto_dabe6acb","1","4","1","97","3170.210145","direct","2","1","1","¿Cuantos años dirigió la selección 
uruguaya Tabarez?","15 años","13 años","","0","0","0","competitive","right","2.67293095589","3172.88319111","2.32706904411","3175.38259101","2.97544002533","3178.35807014","3.02455997467","3181.4337461","3182.62487006","3182.70121408","3185.70419717","0","3185.718328","3192.79036808","3033.60058618"
"sujeto_dabe6acb","1","4","2","98","3192.93643713","inverse","4","1","1","¿Cuantas teclas tiene un teclado 
de computadora generalmente? ","Entre 99 y 108","Entre 109 y 113","","1","1","1","individual","right","1.67468214035","3194.61118817","3.32531785965","3198.0947051","4.7512948513","3202.84606218","1.2487051487","3204.14452004","3205.14724612","3205.19528818","3208.19821811","1","3208.21315598","3210.58394217",""
"sujeto_dabe6acb","1","4","3","99","3210.71470618","direct","1","1","1","¿Cuál Departamento tiene
 mayor superficie?","Río Negro","Soriano","","0","0","0","competitive","left","1.14040994644","3211.85518312","3.85959005356","3215.85135007","3.25573515892","3219.10714316","2.74426484108","3221.90306211","3223.61651015","3223.68738914","3226.69035602","0","3226.70528102","3231.03131914",""
"sujeto_dabe6acb","1","4","4","100","3231.15625","inverse","3","1","2","¿Cuál es el apellido de las 
hermanastras  de  cenicienta?","Tremaine","Truman","","0","0","1","competitive","left","2.66883993149","3233.82515502","2.33116006851","3236.32860708","4.99442481995","3241.32309198","1.00557518005","3242.36549115","3244.23497701","3244.315974","3247.31890798","0","3247.33318019","3250.02914119",""
"sujeto_dabe6acb","1","4","5","101","3250.18507314","direct","4","1","4","¿Cuál película ganó un
 Oscar a mejor película?","Alto Impacto","Cache","","0","0","1","competitive","left","1.40236616135","3251.58755016","3.59763383865","3255.35753512","3.63154506683","3258.98911905","2.36845493317","3261.40695906","3262.52634406","3262.60910416","3265.60959911","0","3265.6255641","3267.8895731",""
"sujeto_dabe6acb","1","4","6","102","3268.02755713","inverse","1","1","3","¿A cuántos centímetros
equivale la medida pié?","25","30","","0","0","1","competitive","left","1.65658116341","3269.6842041","3.34341883659","3273.18312216","4.0479581356","3277.23112202","1.9520418644","3279.23230314","3280.27229905","3280.35044813","3283.35090399","0","3283.36712217","3288.76806617",""
"sujeto_dabe6acb","1","4","7","103","3288.90219998","direct","2","1","2","¿Qué departamento es mas grande?","Cerro Largo","Paysandú","","0","0","0","competitive","right","1.33488297462","3290.23712397","3.66511702538","3294.04355502","2.47955298424","3296.52315307","3.52044701576","3300.07640409","3301.67613101","3301.76157999","3304.76455808","0","3304.77868605","3308.88865805",""
"sujeto_dabe6acb","1","4","8","104","3309.04709411","inverse","2","1","3","¿Quién pintó la Mona Lisa?","Picasso","Da Vinci","right","0","0","1","competitive","left","1.56899595261","3310.61615896","3.43100404739","3314.20405602","2.7210919857","3316.92519307","3.2789080143","3320.25400615","3321.85987401","3321.93891501","3324.94190812","0","3324.95621204","3327.11854506",""
"sujeto_dabe6acb","1","4","9","105","3327.30925202","direct","4","1","3","¿Cuántos litros hay en un galon?","3.54","3.78","","1","1","1","competitive","left","1.3366959095","3328.64606118","3.6633040905","3332.46224117","2.19791913033","3334.66019917","3.80208086967","3338.49663806","3340.01452398","3340.09879112","3343.10177517","1","3343.11575317","3348.90430307",""
"sujeto_dabe6acb","1","4","10","106","3349.03491712","inverse","4","1","1","¿Cuántas teclas tiene
 un piano moderno?","80","88","","0","0","1","individual","left","1.54220318794","3350.57717109","3.45779681206","3354.1916821","3.28049993515","3357.47224498","2.71950006485","3360.24166107","3361.25011206","3361.29324818","3364.29621696","0","3364.31067514","3371.10843205",""
"sujeto_dabe6acb","1","4","11","107","3371.24493003","direct","4","1","3","¿Cuántos países hay en África?","54","62","","0","0","1","competitive","left","1.55822205544","3372.80321503","3.44177794456","3376.38699102","2.07120394707","3378.45824218","3.92879605293","3382.43607211","3384.12663317","3384.20448613","3387.207479","0","3387.22176003","3395.02652216",""
"sujeto_dabe6acb","1","4","12","108","3395.15857816","inverse","1","1","3","¿En qué siglo se crearon
 las primeras pistolas?","XV","XIII","","1","1","1","competitive","right","1.76556611061","3396.92421818","3.23443388939","3400.31507897","3.61506295204","3403.93018198","2.38493704796","3406.36549401","3408.31339908","3408.40066814","3411.40158701","1","3411.41784596","3414.65094209",""
"sujeto_dabe6acb","1","4","13","109","3414.78586197","direct","3","1","4","¿En qué año se estrenó 
la serie friends?","1994","1995","","0","0","1","competitive","right","1.49427509308","3416.28020597","3.50572490692","3419.94190001","2.81225299835","3422.7542181","3.18774700165","3425.99235511","3427.86768913","3427.9438591","3430.94686103","0","3430.96083117","3435.96691799",""
"sujeto_dabe6acb","1","4","14","110","3436.09562302","inverse","3","1","4","¿En qué año nació Hitler?","1889","1887","","0","0","1","competitive","right","1.15261602402","3437.24828315","3.84738397598","3441.24926019","3.61096596718","3444.86026812","2.38903403282","3447.28486609","3448.39924598","3448.46923018","3451.46955609","0","3451.48680615","3456.51380801",""
"sujeto_dabe6acb","1","4","15","111","3456.65511417","direct","1","1","4","¿Cuánto pesa un elefante Africano?","6000 kilos","5400 kilos","","0","0","0","competitive","right","3.71704506874","3460.37222314","1.28295493126","3461.81167316","3.00955414772","3464.82126904","2.99044585228","3467.86459804","3469.22051597","3469.29900908","3472.30201912","0","3472.31631017","3479.02337813",""
"sujeto_dabe6acb","1","4","16","112","3479.16750407","inverse","1","1","2","¿Qué porcentaje de 
la población es zurda?","10%","7%","","1","1","0","competitive","left","0.991659879684","3480.15920711","4.00834012032","3484.30774999","3.27833294868","3487.58612514","2.72166705132","3490.34193897","3491.58499718","3491.6605711","3494.66353798","1","3494.67724919","3500.65696907",""
"sujeto_dabe6acb","1","4","17","113","3500.79542017","direct","1","1","2","¿En qué año se estrenó
Volver al futuro?","1984","1985","","0","0","1","competitive","left","1.04580211639","3501.84129119","3.95419788361","3505.95222616","3.48395299911","3509.43622398","2.51604700089","3512.00299597","3513.56476903","3513.6376071","3516.6405561","0","3516.65471101","3523.74614215",""
"sujeto_dabe6acb","1","4","18","114","3523.90682101","inverse","3","1","2","¿Cuántos jugadores hay en un 
equipo de baseball?","9","8","","1","1","0","competitive","left","2.59936690331","3526.50625014","2.40063309669","3529.08072519","2.33249902725","3531.41329217","3.66750097275","3535.11516213","3536.72947717","3536.799124","3539.80208302","1","3539.81595397","3544.79315114",""
"sujeto_dabe6acb","1","4","19","115","3544.9174912","direct","2","1","1","¿Cuántos Oscar ganó
 la película titanic?","13","11","","1","1","1","individual","left","2.35072493553","3547.26827812","2.64927506447","3550.09263706","3.30359792709","3553.39629602","2.69640207291","3556.14275503","3557.44482303","3557.49433517","3560.49729419","1","3560.51142812","3565.11406708",""
"sujeto_dabe6acb","1","4","20","116","3565.26358008","inverse","4","1","4","¿En qué año comenzó
la segunda guerra mundial?","1939","1976","left","0","0","1","competitive","right","1.40875983238","3566.67241001","3.59124016762","3570.41916299","5.13111495972","3575.55034018","0.868885040283","3576.47005606","3578.26992106","3578.35460019","3581.35758901","0","3581.37179303","3585.35757899",""
"sujeto_dabe6acb","1","4","21","117","3585.49070907","direct","2","1","4","¿Cuántos biomas hay en Uruguay?","5","4","","0","0","1","competitive","right","2.68393802643","3588.17469716","2.31606197357","3590.65954804","3.74475288391","3594.40434098","2.25524711609","3596.69761705","3598.49352503","3598.56528711","3601.56821513","0","3601.58218908","3607.82953",""
"sujeto_dabe6acb","1","4","22","118","3607.96792817","inverse","2","1","3","¿Cuándo murió Pablo Escobar?","1993","1997","","1","1","1","competitive","left","1.72639107704","3609.69436216","3.27360892296","3613.12442613","2.62682509422","3615.75132012","3.37317490578","3619.17297006","3620.95582008","3621.04116297","3624.04412699","1","3624.05836606","3629.76204014",""
"sujeto_dabe6acb","1","4","23","119","3629.894068","direct","1","1","4","¿Qué serie ha ganado mas premios?","Friends","Murphy Brown","","1","1","0","competitive","left","1.38020586967","3631.27433801","3.61979413033","3635.05216718","2.60002303123","3637.65222597","3.39997696877","3641.10287905","3642.45530105","3642.53795505","3645.54088116","1","3645.55523896","3651.11357999",""
"sujeto_dabe6acb","1","4","24","120","3651.25608706","inverse","4","1","2","¿Cuántas fichas tiene el dominó?","26","28","","1","1","1","competitive","left","2.81224799156","3654.06840205","2.18775200844","3656.41207218","2.47522211075","3658.88733411","3.52477788925","3662.46426511","3663.51955104","3663.59836411","3666.60131907","1","3666.61559606","3671.85756803",""
"sujeto_dabe6acb","1","4","25","121","3672.00099516","direct","2","1","4","¿Cuántos son los dientes de leche?","20","25","","0","0","1","competitive","right","1.3245651722","3673.32565999","3.6754348278","3677.14074397","4.36952900887","3681.51031303","1.63047099113","3683.19199204","3684.90238214","3684.97625804","3687.97917914","0","3687.99362612","3690.13751316",""
"sujeto_dabe6acb","1","4","26","122","3690.2952621","inverse","3","1","3","¿Cuántos gramos son una onza?","22","28","","0","0","1","competitive","right","1.79110908508","3692.08641505","3.20889091492","3695.45040011","3.53988409042","3698.99034405","2.46011590958","3701.50100517","3703.49587703","3703.56902003","3706.56959414","0","3706.58689404","3712.87713408",""
"sujeto_dabe6acb","1","4","27","123","3713.03806615","direct","3","1","1","¿Cuándo salió el primer album
 de los Beatles?","1963","1962","","1","1","1","individual","left","1.450330019","3714.48846102","3.549669981","3718.19580507","3.10853886604","3721.30438399","2.89146113396","3724.24529099","3725.4089191","3725.44686007","3728.44983816","1","3728.46408319","3732.23614216",""
"sujeto_dabe6acb","1","4","28","124","3732.38263607","inverse","3","1","3","¿Quién fundó la empresa apple?","Carlos Slim","Steve Jobs","","1","1","1","competitive","right","0.921725034714","3733.30442715","4.07827496529","3737.5376761","2.35265493393","3739.89037418","3.64734506607","3743.58796906","3744.70261502","3744.77362704","3747.77656507","1","3747.79060698","3754.08842111",""
"sujeto_dabe6acb","1","4","29","125","3754.22509718","direct","4","1","2","¿Cuántos municipios hay
 en Montevideo?","8","7","","1","1","1","individual","left","2.59624409676","3756.82140517","2.40375590324","3759.39834499","3.31592488289","3762.71432519","2.68407511711","3765.43416309","3767.34893203","3767.40201902","3770.40499115","1","3770.41960311","3772.50074911",""
"sujeto_dabe6acb","1","4","30","126","3772.67154813","inverse","1","1","1","¿Cuántos kilómetros hay
 de Montevideo a Artigas?","632","599","","0","0","0","competitive","left","1.51081204414","3774.18240404","3.48918795586","3777.82624817","3.10809111595","3780.93439698","2.89190888405","3783.87616205","3785.35924315","3785.44500017","3788.44553304","0","3788.46188903","3794.51352406",""
"sujeto_dabe6acb","1","4","31","127","3794.64661503","direct","2","1","2","¿En qué año nació 
Leonardo Da Vinci?","1452","1511","","1","1","0","competitive","right","1.36575293541","3796.01243019","3.63424706459","3799.80356216","3.61281895638","3803.41644096","2.38718104362","3805.83778","3807.69133615","3807.77228212","3810.77352405","1","3810.78976297","3813.93353701",""
"sujeto_dabe6acb","1","4","32","128","3814.10770297","inverse","3","1","1","¿A qué continente
 pertenece el país Gabón?","Africa","Oceanía","","0","0","1","individual","left","1.66269993782","3815.77046418","3.33730006218","3819.26448011","2.88793206215","3822.15247107","3.11206793785","3825.31389618","3827.12555408","3827.16642809","3830.16935611","0","3830.183429","3835.41897106",""
