"code","nro_aplicante","nro_bloque","nro_trial_bloque","nro_trial_global","show_game_type","choice_order","rival","pay_individual","pay_competitive","question","answer_left_text","answer_right_text","correct_answer","outcome_individual","outcome_competitive","outcome_rival","game_type","answer","social_time","rt_game_type","feedback_delay","show_question","answer_time","rt_answer_global","feedback_delay_2","show_jitter","jitter_time","show_outcome","outcome_time","outcome_participant_real","show_final_jitter","second_jitter_time","inicio_descanso"
"sujeto_5fecb1ee","1","1","1","1","18.0358970165","direct","3","1","4","¿Cuántos centímetros corresponden
al talle 36 del calzado?","23","24","","0","0","1","competitive","right","2.11428904533","20.1502480507","2.88571095467","23.1920120716","1.99325299263","25.1853091717","4.00674700737","29.2418050766","30.2700781822","30.3432002068","33.3461561203","0","33.3610980511","35.5236361027",""
"sujeto_5fecb1ee","1","1","2","2","35.6642889977","inverse","3","1","2","¿Cuántas metros mide la Intendencia
Municipal de Montevideo? ","84","78","","0","0","1","competitive","right","2.18370890617","37.8481180668","2.81629109383","40.8325982094","3.8007080555","44.6333501339","2.1992919445","46.8854780197","48.7635200024","48.8365411758","51.8395271301","0","51.8548049927","53.9475650787",""
"sujeto_5fecb1ee","1","1","3","3","54.074942112","direct","1","1","3","¿Cuántas La Pasiva
 hay en uruguay?","15","11","","1","1","1","competitive","left","2.57735586166","56.6523611546","2.42264413834","59.2255680561","2.92874598503","62.1543521881","3.07125401497","65.260627985","66.8723230362","66.9451060295","69.9480581284","1","69.9625461102","74.2409000397",""
"sujeto_5fecb1ee","1","1","4","4","74.3837351799","inverse","3","1","3","¿De que color es la camiseta de uruguay?","blanca","celeste","right","1","1","1","competitive","right","2.15143895149","76.5352389812","2.84856104851","79.5533270836","2.45087718964","82.0042622089","3.54912281036","85.6048810482","86.8096861839","86.890114069","89.8930389881","1","89.9066832066","93.3606050014",""
"sujeto_5fecb1ee","1","1","5","5","93.4952940941","direct","2","1","1","¿Cuánto metros mide
la torre Eiffel?","333","324","","1","1","1","competitive","left","3.29577493668","96.7911310196","1.70422506332","98.6607511044","2.03921198845","100.700019121","3.96078801155","104.714213133","106.235630035","106.316395044","109.319373131","1","109.333688021","116.370390177",""
"sujeto_5fecb1ee","1","1","6","6","116.502153158","inverse","3","1","4","¿Cuantas ciudades existen
 en todo el uruguay?","63","72","","0","0","1","competitive","left","1.98073601723","118.482967138","3.01926398277","121.675149202","3.5185379982","125.193726063","2.4814620018","127.726548195","128.781377077","128.860182047","131.86316514","0","131.877571106","139.504171133",""
"sujeto_5fecb1ee","1","1","7","7","139.646892071","direct","1","1","1","¿Cuantos estados tiene África?","52","54","","1","1","0","competitive","left","1.96924686432","141.616219044","3.03075313568","144.81867218","3.99458599091","148.813297033","2.00541400909","150.854506016","152.718514204","152.789591074","155.792534113","1","155.806907177","161.567905188",""
"sujeto_5fecb1ee","1","1","8","8","161.710839033","inverse","4","1","4","¿En qué año nació
 Stephen Hawking?","1952","1942","","0","0","1","competitive","right","2.0332159996","163.744117975","2.9667840004","166.880789042","2.61113286018","169.491980076","3.38886713982","172.931877136","174.376195192","174.450510025","177.453516006","0","177.467046022","183.566425085",""
"sujeto_5fecb1ee","1","1","9","9","183.704478979","direct","2","1","3","¿Cuánto años tenía Artigas
 cuando se fue a Paraguay?","56","57","","1","1","1","competitive","right","1.33521294594","185.039761066","3.66478705406","188.858352184","3.76711916924","192.625531197","2.23288083076","194.909446001","196.458695173","196.54345417","199.546393156","1","199.561136007","205.608428001",""
"sujeto_5fecb1ee","1","1","10","10","205.760650158","inverse","1","1","2","¿Cuantos milímetros 
mide una hoja A2?","420x592","420x594","","0","0","1","competitive","right","1.27350401878","207.034218073","3.72649598122","210.902053118","4.14593696594","215.048049212","1.85406303406","216.937146187","218.505573988","218.588353157","221.591346979","0","221.605683088","228.679287195",""
"sujeto_5fecb1ee","1","1","11","11","228.823255062","direct","3","1","3","¿Cuál es la menor temperatura 
registrada en Uruguay?","-5.4","-7.4","","0","0","1","competitive","right","1.21514582634","230.038465977","3.78485417366","233.981895208","4.48995113373","238.471904039","1.51004886627","240.032917976","241.714706182","241.800619125","244.803615093","0","244.818973064","248.552259207",""
"sujeto_5fecb1ee","1","1","12","12","248.704223156","inverse","2","1","2","¿Cuantos años hace que 
se fundó facebook?","18","17","","0","0","0","competitive","left","1.47430896759","250.178577185","3.52569103241","253.858338118","4.03245997429","257.890832186","1.96754002571","259.90992713","261.282668114","261.36098218","264.363785028","0","264.37847209","267.153156996",""
"sujeto_5fecb1ee","1","1","13","13","267.296895027","direct","1","1","4","¿Cuál animal es más
 pesado en promedio?","Rinoceronte","Hipopotamo","","0","0","0","competitive","right","2.10752701759","269.404465199","2.89247298241","272.453742027","4.16304397583","276.616847038","1.83695602417","278.53832221","279.61760211","279.68991518","282.69286418","0","282.707295179","286.548266172",""
"sujeto_5fecb1ee","1","1","14","14","286.676411152","inverse","1","1","2","¿Qué personaje de dragon ball 
murió más veces?","Chaoz","Krillin","","1","1","0","competitive","right","0.971904039383","287.648433208","4.02809596062","291.831200123","3.68229722977","295.51355505","2.31770277023","297.882152081","299.339941025","299.416990995","302.419942141","1","302.434190035","310.207064152",""
"sujeto_5fecb1ee","1","1","15","15","310.335538149","direct","3","1","2","La universidad de oxford. 
existe desde:","1096","1249","","1","1","0","competitive","right","1.27065610886","311.606256008","3.72934389114","315.473605156","2.62974500656","318.103408098","3.37025499344","321.507956982","322.556714058","322.626283169","325.62927103","1","325.643899202","332.334720135",""
"sujeto_5fecb1ee","1","1","16","16","332.482223034","inverse","3","1","1","¿Qué escritor latino ganó antes
 el premio nobel?"," García Marquez","Neruda","","0","0","1","competitive","right","2.60078001022","335.083065033","2.39921998978","337.654095173","5.22799301147","342.882141113","0.772006988525","343.691645145","345.431658983","345.508375168","348.511307001","0","348.525881052","351.986321211",""
"sujeto_5fecb1ee","1","1","17","17","352.111005068","direct","4","1","3","¿Cuántos dientes tiene un
 tiburón blanco?","6000","3000","","0","0","1","competitive","right","1.5444688797","353.655516148","3.4555311203","357.26723814","3.01646018028","360.283759117","2.98353981972","363.317958117","364.356966019","364.435697079","367.438690186","0","367.454333067","372.264006138",""
"sujeto_5fecb1ee","1","1","18","18","372.406548023","inverse","4","1","1","¿Cuánto mide el paralelo Ecuador?","40.000km","70.000km","","0","0","1","individual","left","3.65449690819","376.061087132","1.34550309181","377.5615592","5.12069892883","382.682317019","0.879301071167","383.613940001","385.569778204","385.614127159","388.617119074","0","388.631426096","392.23399806",""
"sujeto_5fecb1ee","1","1","19","19","392.366966009","direct","4","1","2","¿Cuál fue el primer libro 
de Stephen King?","Carrie","The Stand","","1","1","1","competitive","right","4.23158502579","396.598592997","0.768414974213","397.53828907","3.35227704048","400.890605211","2.64772295952","403.588879108","405.332942009","405.406740189","408.409687042","1","408.425282001","412.899690151",""
"sujeto_5fecb1ee","1","1","20","20","413.042697191","inverse","2","1","3","¿Qué civilización practicaba
 la momificación?","Grecia","Egipto","right","0","0","1","competitive","right","3.36118602753","416.40392518","1.63881397247","418.199819088","2.51911020279","420.718984127","3.48088979721","424.250884056","426.190152168","426.269088984","429.272006989","1","429.286682129","433.515454054",""
"sujeto_5fecb1ee","1","1","21","21","433.65447402","direct","4","1","4","¿Cuántos millones de visitas
 recibe google por minuto?","3.0","4.5","","0","0","1","competitive","right","1.64572000504","435.300260067","3.35427999496","438.810860157","2.75240397453","441.563321114","3.24759602547","444.861075163","446.375965118","446.463092089","449.466111183","0","449.480587006","456.598213196",""
"sujeto_5fecb1ee","1","1","22","22","456.732269049","inverse","1","1","3","La máquina de fax. se inventó en:","1843","1960","","0","0","1","competitive","right","1.54920887947","458.281540155","3.45079112053","461.889437199","1.93805599213","463.827531099","4.06194400787","467.939521074","469.181653023","469.259958029","472.262934208","0","472.275258064","475.511511087",""
"sujeto_5fecb1ee","1","1","23","23","475.644143105","direct","2","1","4","En la verdadera historia de los
 300 espartanos. habían:","300 soldados","4300 soldados","","1","1","1","competitive","right","1.787514925","477.431737185","3.212485075","480.815186977","4.40651297569","485.221740007","1.59348702431","486.866419077","488.127590179","488.199577093","491.202575207","1","491.217266083","495.019043207",""
"sujeto_5fecb1ee","1","1","24","24","495.155335188","inverse","1","1","4","¿Cuántos milímetros crece
 el pelo por día?","0.4","0.04","","0","0","0","competitive","left","1.98843693733","497.143836975","3.01156306267","500.309442043","3.37734889984","503.686851025","2.62265110016","506.360867977","508.121601105","508.195469141","511.198449135","0","511.213038206","517.948081017",""
"sujeto_5fecb1ee","1","1","25","25","518.083718061","direct","4","1","1","¿Cuánto mide la baldosa gris 
clásica de Montevideo?","22x22 cm.","20x20 cm.","","1","1","1","individual","left","4.48518395424","522.568963051","0.514816045761","523.254801989","5.96314501762","529.217986107","0.0368549823761","529.306987047","531.302231073","531.340809107","534.343772173","1","534.358120203","539.900864124",""
"sujeto_5fecb1ee","1","1","26","26","540.056182146","inverse","2","1","2","¿Cuántas películas de rápidos
 y furiosos hay?","10","11","","1","1","0","competitive","right","1.93980407715","541.996037006","3.06019592285","545.216313124","2.39764118195","547.61401701","3.60235881805","551.250114202","552.607791185","552.685269117","555.688259125","1","555.702586174","557.73726511",""
"sujeto_5fecb1ee","1","1","27","27","557.872934103","direct","3","1","1","¿Cuántos masters 1000
 ganó Del Potro?","1","2","","1","1","1","competitive","right","1.82505989075","559.698063135","3.17494010925","563.04243207","3.45352602005","566.496024132","2.54647397995","569.092931986","570.847526073","570.927928209","573.930875063","1","573.944498062","581.340826035",""
"sujeto_5fecb1ee","1","1","28","28","581.479612112","inverse","2","1","4","¿Cuántos meses dura el 
embarazo de una leona?","3 meses","4 meses","","0","0","1","competitive","right","1.71932482719","583.198975086","3.28067517281","586.637681007","4.17422294617","590.811942101","1.82577705383","592.688153028","593.799232006","593.872282028","596.875270128","0","596.888897181","603.611397028",""
"sujeto_5fecb1ee","1","1","29","29","603.741163015","direct","1","1","1","¿En qué año fue creado
 el sandwich?","1762","1653","","1","1","0","competitive","right","2.40870904922","606.149936199","2.59129095078","608.899114132","3.42375707626","612.322932005","2.57624292374","614.949542046","616.548051119","616.634461164","619.637467146","1","619.651890039","623.1224792",""
"sujeto_5fecb1ee","1","1","30","30","623.253755093","inverse","4","1","2","El nombre de la moneda de Vietnam es:","Dinar","Dong","","0","0","1","competitive","left","1.06810688972","624.321905136","3.93189311028","628.406629086","5.38215088844","633.788819075","0.617849111557","634.45946312","635.891483068","635.975684166","638.978615046","0","638.99360013","645.162018061",""
"sujeto_5fecb1ee","1","1","31","31","645.294573069","direct","2","1","1","¿cuantos aleteos puede dar 
un colibrí por segundo?","120","50","","0","0","0","competitive","left","1.50414991379","646.798787117","3.49585008621","650.435986042","2.78162097931","653.217694044","3.21837902069","656.487781048","658.220188141","658.304471016","661.307427168","0","661.322566986","665.534796",""
"sujeto_5fecb1ee","1","1","32","32","665.673749208","inverse","4","1","3","¿Qué altura promedio tienen
 los hombres uruguayos?","1.73 m","1.72 m","","1","1","1","competitive","right","1.60685110092","667.280697107","3.39314889908","670.846765041","2.70174002647","673.548564196","3.29825997353","676.897912979","678.160309076","678.249175072","681.252190113","1","681.26593709","685.741892099",""
"sujeto_5fecb1ee","1","2","1","33","819.320217133","direct","1","1","1","¿En qué año nació 
el actor Bradd Pitt?","1967","1963","","1","1","1","competitive","left","2.95966219902","822.279941082","2.04033780098","824.473132133","3.31665921211","827.789852142","2.68334078789","830.525112152","831.620938063","831.692803144","834.695758104","1","834.710113049","840.63766098","685.754253149"
"sujeto_5fecb1ee","1","2","2","34","840.760550976","inverse","2","1","1","¿Cual es el segundo 
monte más alto?","Kanchenjunga","K2","","1","1","1","competitive","right","1.77102398872","842.531616211","3.22897601128","845.918850183","2.73361611366","848.652525187","3.26638388634","851.968585014","853.421004057","853.503629208","856.506596088","1","856.521216154","859.951137066",""
"sujeto_5fecb1ee","1","2","3","35","860.090457201","direct","3","1","1","¿Cuándo finalizó la construcción
 del Palacio Legislativo?","1925","1917","","0","0","1","competitive","right","0.9498898983","861.040410042","4.0501101017","865.245238066","3.95685601234","869.202147007","2.04314398766","871.295519114","872.937236071","873.012704134","876.015701056","0","876.03008914","881.727676153",""
"sujeto_5fecb1ee","1","2","4","36","881.865420103","inverse","3","1","3","¿Cuántos integrantes tenía
 en su inicio  el cuarteto de nos?","3","4","","1","1","1","competitive","right","1.75157380104","883.617060184","3.24842619896","887.022608995","3.23823404312","890.260881186","2.76176595688","893.072720051","894.205826998","894.290992975","897.293958187","1","897.308274031","902.958089113",""
"sujeto_5fecb1ee","1","2","5","37","903.10950613","direct","2","1","3","¿Qué valor tiene el número pi?","3.14","4.18","left","0","0","1","competitive","left","0.755717039108","903.86532712","4.24428296089","908.264031172","1.54344296455","909.807511091","4.45655703545","914.314073086","915.768269062","915.850165129","918.853178024","1","918.866889","925.787881136",""
"sujeto_5fecb1ee","1","2","6","38","925.918596029","inverse","2","1","2","¿Cuál es la esperanza de vida
 en Uruguay?","75","77","","1","1","0","competitive","right","1.35266780853","927.271306992","3.64733219147","931.060298204","4.1167910099","935.177154064","1.8832089901","937.111443996","938.765273094","938.846243143","941.849223137","1","941.863803148","948.326803207",""
"sujeto_5fecb1ee","1","2","7","39","948.464626074","direct","1","1","2","¿Cuantos pisos tiene la torre 
de las comunicaciones?","26","32","","1","1","0","individual","left","0.599356889725","949.064040184","4.40064311028","953.621711016","2.86308383942","956.484862089","3.13691616058","959.672792196","961.501560211","961.539906025","964.542885065","1","964.55854702","966.704758167",""
"sujeto_5fecb1ee","1","2","8","40","966.845612049","inverse","2","1","4","¿En qué país sudamericano 
no hay McDonalds?","Bolivia","Venezuela","","0","0","1","competitive","right","0.904012918472","967.749709129","4.09598708153","972.014325142","4.05312514305","976.067516088","1.94687485695","978.065133095","979.374509096","979.449355125","982.452324152","0","982.467585087","988.827314138",""
"sujeto_5fecb1ee","1","2","9","41","988.971451998","direct","3","1","1","¿En qué año empieza
 la Edad Media?","476","512","","1","1","1","competitive","right","1.72673106194","990.698243141","3.27326893806","994.126235008","4.2717859745","998.398085117","1.7282140255","1000.17453814","1001.57827711","1001.65867901","1004.66168809","1","1004.67539811","1007.66394711",""
"sujeto_5fecb1ee","1","2","10","42","1007.79495001","inverse","3","1","4","¿Hace cuántos años surgió
 el ser humano?","200mil","300mil","","0","0","0","competitive","left","1.27296710014","1009.06796002","3.72703289986","1012.95086312","4.07176113129","1017.02269316","1.92823886871","1018.99926209","1020.88532805","1020.96606302","1023.96905208","0","1023.98336506","1027.29385209",""
"sujeto_5fecb1ee","1","2","11","43","1027.4371531","direct","3","1","4","¿Cuántas cuadras tiene
 actualmente 18 de julio? ","36","33","","0","0","1","competitive","left","0.89039683342","1028.32762098","4.10960316658","1032.59419513","4.20604515076","1036.80029321","1.79395484924","1038.64566612","1040.34794998","1040.42998815","1043.433002","0","1043.44736505","1048.17369604",""
"sujeto_5fecb1ee","1","2","12","44","1048.31461","inverse","1","1","4","¿Qué juego de equipo se 
considera mas rápido?","Lacrosse","Badminton","","0","0","0","competitive","right","1.49845290184","1049.81312513","3.50154709816","1053.47112417","5.34982991219","1058.82099915","0.650170087814","1059.52252507","1060.76566911","1060.83917904","1063.84214711","0","1063.85650921","1071.85167599",""
"sujeto_5fecb1ee","1","2","13","45","1071.99089217","direct","1","1","3","¿Qué promedio de edad 
vive una jirafa? ","25","20","","0","0","1","competitive","left","1.13282299042","1073.12375808","3.86717700958","1077.1495111","3.97298502922","1081.12255502","2.02701497078","1083.19997621","1084.96140099","1085.0341332","1088.03712606","0","1088.05273509","1094.00845003",""
"sujeto_5fecb1ee","1","2","14","46","1094.15336013","inverse","1","1","2","¿Cuántos grandes lagos hay?","7","5","","0","0","1","competitive","right","1.50787401199","1095.66130018","3.49212598801","1099.29503298","5.04793095589","1104.34300399","0.952069044113","1105.32944703","1106.62157607","1106.69576216","1109.69876099","0","1109.71339607","1117.53472209",""
"sujeto_5fecb1ee","1","2","15","47","1117.68457699","direct","3","1","2","¿Cuántos discos de estudio
 grabó Johhny Cash? ","54","43","","1","1","0","competitive","right","1.16325187683","1118.84789205","3.83674812317","1122.83919311","3.33442997932","1126.17367101","2.66557002068","1128.88948917","1130.16812921","1130.25747299","1133.26039004","1","1133.275038","1139.92595911",""
"sujeto_5fecb1ee","1","2","16","48","1140.05925798","inverse","4","1","1","¿Cuántos barrios tiene
 Montevideo? ","71","62","","0","0","1","individual","right","3.62906813622","1143.68838906","1.37093186378","1145.21451616","4.11861300468","1149.333184","1.88138699532","1151.25177002","1152.25887704","1152.30283403","1155.30574799","0","1155.32006311","1160.78204298",""
"sujeto_5fecb1ee","1","2","17","49","1160.92073512","direct","3","1","3","¿Qué edad tiene Homero Simpson?","36","42","","0","0","1","competitive","right","0.630271196365","1161.55107117","4.36972880363","1166.07496119","2.22687411308","1168.30187917","3.77312588692","1172.12588501","1173.50188899","1173.57830119","1176.58129215","0","1176.59560704","1180.98438811",""
"sujeto_5fecb1ee","1","2","18","50","1181.13292599","inverse","4","1","2","¿Cuántos países con monarquía 
hay en europa actualmente? ","6","10","","1","1","1","competitive","left","1.44861602783","1182.5816102","3.55138397217","1186.287323","4.02601408958","1190.31337619","1.97398591042","1192.3209672","1193.7592442","1193.83944917","1196.84243798","1","1196.85714316","1203.0139432",""
"sujeto_5fecb1ee","1","2","19","51","1203.16119003","direct","2","1","3","¿Cuántos capítulos de
 Friends existen? ","236","228","","1","1","1","competitive","left","0.802337884903","1203.96359611","4.1976621151","1208.33161116","3.79927206039","1212.13093901","2.20072793961","1214.38211918","1215.68770003","1215.76620221","1218.76917005","1","1218.78399014","1221.15871811",""
"sujeto_5fecb1ee","1","2","20","52","1221.28501415","inverse","1","1","3","¿Cuántas óperas compuso Mozart? ","27","22","","1","1","1","competitive","left","1.47767806053","1222.76273417","3.52232193947","1226.43847919","3.86310100555","1230.30165315","2.13689899445","1232.47385621","1233.76597905","1233.841645","1236.84459305","1","1236.85815716","1244.16959906",""
"sujeto_5fecb1ee","1","2","21","53","1244.31176114","direct","4","1","3","¿Cuántos mundiales de fútbol 
femenino ha realizado FIFA? ","9","7","","1","1","1","competitive","right","1.68166518211","1245.99349117","3.31833481789","1249.46714807","3.52045297623","1252.98765707","2.47954702377","1255.51539612","1256.75911307","1256.83222699","1259.83475804","1","1259.85032511","1265.95278311",""
"sujeto_5fecb1ee","1","2","22","54","1266.0898881","inverse","3","1","2","¿Cuál es la temperatura 
media anual en Montevideo? ","17.5","16.3","","0","0","1","competitive","left","1.71111989021","1267.80107617","3.28888010979","1271.24762702","3.39754891396","1274.64524102","2.60245108604","1277.29817414","1279.23679519","1279.31588507","1282.31888318","0","1282.33353519","1288.90306115",""
"sujeto_5fecb1ee","1","2","23","55","1289.03841901","direct","2","1","2","¿En qué año se estrenó el
 videojuego The Sims? ","2000","2002","","0","0","0","competitive","right","0.789252996445","1289.82771611","4.21074700356","1294.20993805","3.56595492363","1297.77593803","2.43404507637","1300.26075101","1302.12278104","1302.19506502","1305.19806099","0","1305.21286702","1312.60652614",""
"sujeto_5fecb1ee","1","2","24","56","1312.74794602","inverse","2","1","1","¿Cuál es la canción con 
mas covers? ","Yesterday","Stand by me","","0","0","0","competitive","right","0.997387886047","1313.74539804","4.00261211395","1317.90637803","5.19710588455","1323.10355115","0.802894115448","1323.95769119","1325.35626316","1325.44127512","1328.44426513","0","1328.45451808","1332.62535501",""
"sujeto_5fecb1ee","1","2","25","57","1332.75571299","direct","1","1","4","¿Cuánto duró la guerra
 de los 100 años?","116","123","","0","0","0","competitive","","1.07511806488","1333.83090019","3.92488193512","1337.89882517","6","1343.89896512","0","1343.91536021","1345.39621401","1345.46848202","1348.471457","0","1348.48682213","1350.80660105",""
"sujeto_5fecb1ee","1","2","26","58","1350.94100904","inverse","4","1","4","¿Qué color tiene la  bandera de Brasil?","Amarillo","Naranja","left","0","0","1","competitive","left","1.68118095398","1352.62225199","3.31881904602","1356.11034703","2.21400499344","1358.32439113","3.78599500656","1362.16017008","1363.72666907","1363.81165004","1366.8145771","1","1366.8290112","1369.86177611",""
"sujeto_5fecb1ee","1","2","27","59","1370.014153","direct","4","1","3","¿Qué carabela de 
Colon no volvió del viaje?","Santa María","La pinta","","0","0","1","competitive","left","1.80237102509","1371.81655908","3.19762897491","1375.18734002","4.65144896507","1379.83884716","1.34855103493","1381.23847818","1382.72954106","1382.80578804","1385.80873108","0","1385.82319307","1387.92269206",""
"sujeto_5fecb1ee","1","2","28","60","1388.05770302","inverse","4","1","4","¿Cuántos huesos tiene
 un adulto humano?","217","206","","0","0","1","competitive","right","1.14818906784","1389.20592809","3.85181093216","1393.20908403","2.64902591705","1395.85817003","3.35097408295","1399.2612021","1400.53217602","1400.614187","1403.61710501","0","1403.63138509","1411.46910906",""
"sujeto_5fecb1ee","1","2","29","61","1411.59935403","direct","1","1","1","¿Qué país africano fue 
fundado por esclavos?","Liberia","Chad","","0","0","0","competitive","left","1.05713391304","1412.65658212","3.94286608696","1416.7568922","4.47366309166","1421.23059416","1.52633690834","1422.80904508","1424.80066514","1424.87597919","1427.87891817","0","1427.89416909","1435.88498306",""
"sujeto_5fecb1ee","1","2","30","62","1436.03003716","inverse","4","1","2","¿A cuánto asciende la cima
 del monte Everest?","7.990 mts","8.848 mts","","0","0","1","competitive","right","3.78482294083","1439.81492305","1.21517705917","1441.18889308","3.85205984116","1445.04099107","2.14794015884","1447.23881316","1448.42366505","1448.50590706","1451.508811","0","1451.52350903","1458.70753407",""
"sujeto_5fecb1ee","1","2","31","63","1458.85792303","direct","4","1","1","¿Cuál es el país mas chico?","Sealand","Luxemburgo","","1","1","1","competitive","left","1.96838998795","1460.82639098","3.03161001205","1464.01470613","2.47658205032","1466.49135303","3.52341794968","1470.06842899","1471.93195319","1472.02028108","1475.0232501","1","1475.0378871","1478.1601882",""
"sujeto_5fecb1ee","1","2","32","64","1478.30729413","inverse","2","1","4","¿Cuántas pirámides hay en Egipto?","10000","11000","","1","1","1","competitive","left","2.27120804787","1480.57854605","2.72879195213","1483.4737711","2.85183787346","1486.32570815","3.14816212654","1489.51177406","1490.54538298","1490.63006306","1493.63303208","1","1493.64730811","1498.7564261",""
"sujeto_5fecb1ee","1","3","1","65","1609.25663114","direct","2","1","2","¿Cuál es el quinto país con 
mas extensión?","Canadá","Brasil","","1","1","0","competitive","right","0.99222612381","1610.2489202","4.00777387619","1614.40866303","3.41021704674","1617.81894803","2.58978295326","1620.4441812","1621.77747416","1621.86158919","1624.86459017","1","1624.87916708","1632.60555315","1498.77393818"
"sujeto_5fecb1ee","1","3","2","66","1632.74684501","inverse","1","1","2","¿Qué rasgo facial no tiene
 la Mona Lisa?","Cejas","Pómulos","","0","0","1","competitive","right","0.907188892365","1633.6540792","4.09281110764","1637.90769005","4.77933597565","1642.68709421","1.22066402435","1643.95975709","1645.71017098","1645.79361606","1648.79661202","0","1648.81129813","1655.08268213",""
"sujeto_5fecb1ee","1","3","3","67","1655.22988319","direct","4","1","3","¿Cuál es el país con 
mayor población?","Esados Unidos","China","right","0","0","1","competitive","right","0.719305038452","1655.94929814","4.28069496155","1660.42066407","2.44152379036","1662.86224604","3.55847620964","1666.47086406","1668.11688018","1668.20553398","1671.2085042","1","1671.22322011","1674.5905602",""
"sujeto_5fecb1ee","1","3","4","68","1674.72512507","inverse","1","1","1","La palabra dinosaurio significa","Lagarto Terrible","Lagarto Dragón","","1","1","0","competitive","right","1.56215000153","1676.28734112","3.43784999847","1679.8803091","4.02695798874","1683.90733314","1.97304201126","1685.93154311","1687.10188198","1687.18208408","1690.18507719","1","1690.19935513","1693.06115913",""
"sujeto_5fecb1ee","1","3","5","69","1693.20143104","direct","2","1","3","¿Qué es el membrillero?","Arbol","Arbusto","","0","0","0","competitive","right","2.00383806229","1695.20531106","2.99616193771","1698.35729408","3.66696596146","1702.0243032","2.33303403854","1704.40781212","1706.36193204","1706.44201016","1709.44499302","0","1709.46070004","1715.92473102",""
"sujeto_5fecb1ee","1","3","6","70","1716.06122208","inverse","3","1","3","¿Alrededor de qué planeta orbita 
el satélite Europa?","Jupiter","Saturno","","1","1","1","competitive","left","0.741160869598","1716.80244517","4.2588391304","1721.21819305","5.14518690109","1726.36342406","0.854813098907","1727.26973701","1728.81455612","1728.8872571","1731.89022207","1","1731.90487504","1734.11006212",""
"sujeto_5fecb1ee","1","3","7","71","1734.23983812","direct","3","1","1","¿Donde fue el mundial de 
fútbol de 1954?","Suiza","Suecia","","1","1","1","competitive","left","1.4655790329","1735.70549321","3.5344209671","1739.394526","4.8358669281","1744.23045611","1.1641330719","1745.44626498","1746.69888902","1746.78007102","1749.78306603","1","1749.79738498","1753.70918107",""
"sujeto_5fecb1ee","1","3","8","72","1753.8505621","inverse","1","1","4","¿Cuál de los 7 enanitos
no tenía barba?","Bashful","Mudito","","1","1","0","competitive","","0.68491601944","1754.53552914","4.31508398056","1759.01668215","6","1765.01684117","0","1765.0340941","1766.61424804","1766.68727398","1769.69026613","0","1769.70479417","1774.63389921",""
"sujeto_5fecb1ee","1","3","9","73","1774.79207516","direct","3","1","2","¿Cual red social es
mas utilizada mundialmente?","Instagram","Facebook","","1","1","0","competitive","left","0.808459997177","1775.6006012","4.19154000282","1779.94868112","3.67077898979","1783.61952519","2.32922101021","1785.99987507","1787.91726398","1788.00106406","1791.00405407","1","1791.01869321","1793.95321512",""
"sujeto_5fecb1ee","1","3","10","74","1794.10439706","inverse","4","1","1","¿Cuándo se inició la copa
 América de fútbol?","1916","1923","","1","1","1","competitive","left","1.17810201645","1795.28254318","3.82189798355","1799.2582612","3.98219799995","1803.24052715","2.01780200005","1805.30928612","1807.2067461","1807.29384518","1810.29682016","1","1810.31126118","1812.96736717",""
"sujeto_5fecb1ee","1","3","11","75","1813.096488","direct","3","1","4","¿Cuántos presidentes de EEUU
han muerto asesinados?","3","4","","0","0","1","competitive","left","1.17797207832","1814.27450204","3.82202792168","1818.24969006","2.68480181694","1820.9345541","3.31519818306","1824.30095506","1825.78492618","1825.8695662","1828.87255812","0","1828.886796","1832.53090906",""
"sujeto_5fecb1ee","1","3","12","76","1832.67146921","inverse","2","1","4","¿Cuántas veces participó EEUU
 en la copa América?","4","5","","0","0","1","competitive","right","2.40296912193","1835.07448101","2.59703087807","1837.84318399","3.22827601433","1841.07149911","2.77172398567","1843.87946105","1845.32352805","1845.39777708","1848.40070009","0","1848.41533208","1854.53247714",""
"sujeto_5fecb1ee","1","3","13","77","1854.66657305","direct","4","1","1","¿Cuál de estos países 
no formaba la URSS?","Azeribayán","Afganistán","","0","0","1","competitive","","0.807926893234","1855.47456503","4.19207310677","1859.82305813","6","1865.82321501","0","1865.83891106","1867.15199208","1867.22459817","1870.22758698","0","1870.242311","1878.22445107",""
"sujeto_5fecb1ee","1","3","14","78","1878.36045814","inverse","1","1","1","¿En qué año se inauguró
 el teatro Solís?","1867","1856","","0","0","0","individual","left","2.76591014862","1881.12641215","2.23408985138","1883.51620507","3.02818083763","1886.54444599","2.97181916237","1889.56958604","1890.62590909","1890.67123818","1893.67169499","0","1893.68802404","1900.33583903",""
"sujeto_5fecb1ee","1","3","15","79","1900.47548318","direct","1","1","4","¿A qué velocidad vuela 
el avión más rápido?","3529","3874","","0","0","0","competitive","left","1.70583701134","1902.18136215","3.29416298866","1905.6467402","3.86460113525","1909.5113821","2.13539886475","1911.69701815","1913.45254207","1913.53172612","1916.53340602","0","1916.54974508","1918.66003013",""
"sujeto_5fecb1ee","1","3","16","80","1918.80190706","inverse","3","1","4","¿De qué año es la primer 
película cinematográfica?","1897","1888","","0","0","0","competitive","right","3.58939003944","1922.39134121","1.41060996056","1923.95538998","3.72887396812","1927.6843071","2.27112603188","1929.98882318","1931.1217742","1931.2075901","1934.21059513","0","1934.2241931","1939.63396811",""
"sujeto_5fecb1ee","1","3","17","81","1939.775599","direct","2","1","3","¿Cuántos países 
tiene nuestro planeta?","191","194","","1","1","1","competitive","right","1.43965601921","1941.21532798","3.56034398079","1944.93357921","4.45657396317","1949.39021015","1.54342603683","1950.98399901","1952.34123302","1952.41844511","1955.42142701","1","1955.43609715","1958.67440915",""
"sujeto_5fecb1ee","1","3","18","82","1958.80423212","inverse","2","1","2","¿Cuántos habitantes
 tiene Buenos Aires?","2.9000.000","3650000","","0","0","0","competitive","left","1.38389611244","1960.1881752","3.61610388756","1963.95974112","4.75636792183","1968.71617603","1.24363207817","1969.99426818","1971.39153099","1971.47796011","1974.48092914","0","1974.49516916","1980.32455921",""
"sujeto_5fecb1ee","1","3","19","83","1980.46424007","direct","2","1","1","¿Cuántos kilos forman una tonelada?","1000","1500","left","1","1","1","individual","left","1.65379190445","1982.11810207","3.34620809555","1985.6198082","2.0052011013","1987.62506509","3.9947988987","1991.66932511","1993.55668521","1993.60444808","1996.60739303","1","1996.622118","2002.57954216",""
"sujeto_5fecb1ee","1","3","20","84","2002.72392011","inverse","4","1","4","¿Cuántos estados tiene la 
República del Perú? ","24","23","","0","0","1","competitive","right","1.39194393158","2004.11592698","3.60805606842","2007.88203907","3.55888581276","2011.44098616","2.44111418724","2013.916291","2014.93848014","2015.01722407","2018.02022099","0","2018.0348351","2022.98015308",""
"sujeto_5fecb1ee","1","3","21","85","2023.11934614","direct","3","1","3","¿En qué año nació Cristóbal Colón? ","1451","1447","","0","0","1","competitive","left","0.84154009819","2023.96095109","4.15845990181","2028.27450204","4.33724308014","2032.61179018","1.66275691986","2034.32681799","2036.17271614","2036.25544","2039.25843501","0","2039.27276206","2043.50074816",""
"sujeto_5fecb1ee","1","3","22","86","2043.64096498","inverse","4","1","4","¿Cuánto mide la 
Montaña Aconcagua? ","6234","6962","","0","0","1","competitive","left","0.978773117065","2044.61981201","4.02122688293","2048.80281401","3.55785489082","2052.36072111","2.44214510918","2054.85391712","2056.14325809","2056.2214911","2059.2244401","0","2059.23875213","2066.42239809",""
"sujeto_5fecb1ee","1","3","23","87","2066.561481","direct","2","1","4","¿Cuánto mide el punto
 más profundo del océano? ","12508","11003","","0","0","1","competitive","left","0.981059074402","2067.54260421","4.0189409256","2071.71327519","2.61318302155","2074.32652116","3.38681697845","2077.76360416","2079.01516914","2079.09806705","2082.10105419","0","2082.11567998","2086.32077909",""
"sujeto_5fecb1ee","1","3","24","88","2086.45004821","inverse","1","1","3","¿Cuántos álbumes ha publicado 
el cantante Jaime Roos? ","41","34","","0","0","1","competitive","right","1.23539495468","2087.6855042","3.76460504532","2091.60762501","3.2927069664","2094.90039611","2.7072930336","2097.6568141","2099.1466732","2099.22494507","2102.22793412","0","2102.24256921","2108.43871498",""
"sujeto_5fecb1ee","1","3","25","89","2108.59649205","direct","4","1","3","¿En qué año nació el 
ex-presidente Jorge Battle? ","1921","1927","","1","1","1","competitive","right","3.81677484512","2112.413311","1.18322515488","2113.76895905","4.55423498154","2118.3232522","1.44576501846","2119.82050705","2121.5511961","2121.63872504","2124.64171314","1","2124.65520716","2128.14125919",""
"sujeto_5fecb1ee","1","3","26","90","2128.29017305","inverse","1","1","3","¿Cuántas presidencias 
constitucionales  hubo en Uruguay? ","41","42","","0","0","1","competitive","left","1.25395584106","2129.54417419","3.74604415894","2133.44589615","3.93513607979","2137.38107014","2.06486392021","2139.49653411","2140.70026112","2140.78146505","2143.78442121","0","2143.79878807","2149.58243418",""
"sujeto_5fecb1ee","1","3","27","91","2149.71686602","direct","1","1","2","¿Quién escribió mas sinfonías?","Mozart","Haydn","","1","1","0","competitive","left","0.97716999054","2150.69410515","4.02283000946","2154.88902211","3.14194178581","2158.031003","2.85805821419","2160.91966105","2162.13715816","2162.22089601","2165.22387815","1","2165.23860216","2168.9900322",""
"sujeto_5fecb1ee","1","3","28","92","2169.14194512","inverse","4","1","2","¿En qué año nació Michael Jackson?","1958","1953","","1","1","1","competitive","left","1.43987011909","2170.58187914","3.56012988091","2174.30036712","3.63435482979","2177.93476105","2.36564517021","2180.35071301","2182.32891607","2182.41882205","2185.4217732","1","2185.43644309","2191.29873013",""
"sujeto_5fecb1ee","1","3","29","93","2191.45436502","direct","3","1","2","¿En qué año entró en vigencia 
la ley antitabaco en Uruguay?","2005","2006","","1","1","1","competitive","right","1.45526695251","2192.90971518","3.54473304749","2196.61168504","5.36279988289","2201.97454906","0.637200117111","2202.66272521","2204.25746918","2204.32990813","2207.33283401","1","2207.34713316","2212.68116212",""
"sujeto_5fecb1ee","1","3","30","94","2212.83288312","inverse","3","1","1","¿Cuándo se subió el 
primer video a youtube?","2004","2005","","0","0","1","competitive","right","1.47854089737","2214.31146502","3.52145910263","2217.98815799","3.18022704124","2221.16842413","2.81977295876","2224.03905106","2225.3447032","2225.42351508","2228.42644811","0","2228.44084716","2236.19643903",""
"sujeto_5fecb1ee","1","3","31","95","2236.34254718","direct","2","1","1","¿Cuántos habitantes tiene India?","1200 millones","1300 millones","","0","0","0","competitive","right","1.17269611359","2237.51530504","3.82730388641","2241.49896002","4.14623904228","2245.64523721","1.85376095772","2247.55036211","2249.51997614","2249.60075712","2252.60375118","0","2252.619277","2258.66680717",""
"sujeto_5fecb1ee","1","3","32","96","2258.82123804","inverse","4","1","2","¿A qué edad murió Bob Marley?","36","37","","0","0","1","","","","","","","","","","","","","","","2263.82879519","2266.93121219",""
"sujeto_5fecb1ee","1","4","1","97","2405.64695907","direct","2","1","1","¿Cuantos años dirigió la selección 
uruguaya Tabarez?","15 años","13 años","","0","0","0","competitive","right","1.07557296753","2406.72259307","3.92442703247","2410.814327","3.3591299057","2414.17351508","2.6408700943","2416.84961009","2418.04078007","2418.11812901","2421.12112617","0","2421.13585401","2428.20789409","2266.94135904"
"sujeto_5fecb1ee","1","4","2","98","2428.3536582","inverse","4","1","1","¿Cuantas teclas tiene un teclado 
de computadora generalmente? ","Entre 99 y 108","Entre 109 y 113","","1","1","1","individual","right","1.625674963","2429.97937799","3.374325037","2433.49774003","3.62347388268","2437.12125301","2.37652611732","2439.54812217","2440.55092406","2440.59910512","2443.60172915","1","2443.61645198","2445.98791814",""
"sujeto_5fecb1ee","1","4","3","99","2446.13476419","direct","1","1","1","¿Cuál Departamento tiene
 mayor superficie?","Río Negro","Soriano","","0","0","0","individual","left","1.45737910271","2447.59221315","3.54262089729","2451.27336812","3.79661798477","2455.07004499","2.20338201523","2457.32425499","2459.03773999","2459.07472014","2462.07773018","0","2462.09218502","2466.41828513",""
"sujeto_5fecb1ee","1","4","4","100","2466.56082106","inverse","3","1","2","¿Cuál es el apellido de las 
hermanastras  de  cenicienta?","Tremaine","Truman","","0","0","1","competitive","left","0.980037927628","2467.54092813","4.01996207237","2471.73235416","4.00430607796","2475.73670721","1.99569392204","2477.78426099","2479.65375209","2479.73564911","2482.73856902","0","2482.75299001","2485.44893718",""
"sujeto_5fecb1ee","1","4","5","101","2485.60447121","direct","4","1","4","¿Cuál película ganó un
 Oscar a mejor película?","Alto Impacto","Cache","","0","0","1","competitive","right","1.51616096497","2487.1207242","3.48383903503","2490.77635503","5.40410995483","2496.18050599","0.595890045166","2496.82818818","2497.94757318","2498.02771807","2501.03070903","0","2501.04531717","2503.30995107",""
"sujeto_5fecb1ee","1","4","6","102","2503.46488714","inverse","1","1","3","¿A cuántos centímetros
equivale la medida pié?","25","30","","0","0","1","competitive","right","0.910560846329","2504.37549305","4.08943915367","2508.61809301","4.14121508598","2512.75934601","1.85878491402","2514.65265703","2515.69265819","2515.77068901","2518.77277803","0","2518.78735018","2524.18827701",""
"sujeto_5fecb1ee","1","4","7","103","2524.32189298","direct","2","1","2","¿Qué departamento es mas grande?","Cerro Largo","Paysandú","","0","0","0","competitive","right","0.869269132614","2525.19123912","4.13073086739","2529.4781332","4.13085508347","2533.609025","1.86914491653","2535.53053999","2537.13030505","2537.214926","2540.21785903","0","2540.23162198","2544.34160709",""
"sujeto_5fecb1ee","1","4","8","104","2544.48316908","inverse","2","1","3","¿Quién pintó la Mona Lisa?","Picasso","Da Vinci","right","0","0","1","competitive","right","1.06571292877","2545.54892612","3.93428707123","2549.63868403","4.46809887886","2554.10684299","1.53190112114","2555.68990207","2557.29576111","2557.37397909","2560.37696314","1","2560.39224815","2562.55456519",""
"sujeto_5fecb1ee","1","4","9","105","2562.71006608","direct","4","1","3","¿Cuántos litros hay en un galon?","3.54","3.78","","1","1","1","individual","left","1.36163187027","2564.07174015","3.63836812973","2567.86482716","2.49280500412","2570.35770798","3.50719499588","2573.91519618","2575.43310714","2575.48171616","2578.48469019","1","2578.499264","2584.28982306",""
"sujeto_5fecb1ee","1","4","10","106","2584.43436909","inverse","4","1","1","¿Cuántas teclas tiene
 un piano moderno?","80","88","","0","0","1","competitive","right","2.7500398159","2587.18445206","2.2499601841","2589.607445","4.52484297752","2594.13232899","1.47515702248","2595.66107798","2596.669523","2596.74454904","2599.74755001","0","2599.76192904","2606.55968499",""
"sujeto_5fecb1ee","1","4","11","107","2606.69650602","direct","4","1","3","¿Cuántos países hay en África?","54","62","","0","0","1","competitive","right","1.05269503593","2607.74927711","3.94730496407","2611.86512208","2.93494415283","2614.80013299","3.06505584717","2617.9170301","2619.60757804","2619.68596506","2622.68892598","0","2622.70260119","2630.50674701",""
"sujeto_5fecb1ee","1","4","12","108","2630.63741517","inverse","1","1","3","¿En qué siglo se crearon
 las primeras pistolas?","XV","XIII","","1","1","1","competitive","left","0.917479038239","2631.55493903","4.08252096176","2635.7971642","4.91851401329","2640.71571612","1.08148598671","2641.84935808","2643.79727411","2643.88325","2646.886235","1","2646.9018302","2650.13493013",""
"sujeto_5fecb1ee","1","4","13","109","2650.26879406","direct","3","1","4","¿En qué año se estrenó 
la serie friends?","1994","1995","","0","0","1","competitive","right","0.928869009018","2651.19777417","4.07113099098","2655.44222212","4.11528396606","2659.55754399","1.88471603394","2661.492697","2663.36804605","2663.44361305","2666.44660521","0","2666.46231198","2671.46479511",""
"sujeto_5fecb1ee","1","4","14","110","2671.61267304","inverse","3","1","4","¿En qué año nació Hitler?","1889","1887","","0","0","1","competitive","right","0.768771886826","2672.3814981","4.23122811317","2676.76847219","3.65174102783","2680.42028117","2.34825897217","2682.81999612","2683.93437815","2684.02139211","2687.02438807","0","2687.03869009","2692.06569314",""
"sujeto_5fecb1ee","1","4","15","111","2692.206352","direct","1","1","4","¿Cuánto pesa un elefante Africano?","6000 kilos","5400 kilos","","0","0","0","competitive","right","0.672768115997","2692.87919617","4.327231884","2697.37744617","2.94355297089","2700.32104015","3.05644702911","2703.41241217","2704.76834202","2704.84803915","2707.85102105","0","2707.86491609","2714.57199812",""
"sujeto_5fecb1ee","1","4","16","112","2714.69980001","inverse","1","1","2","¿Qué porcentaje de 
la población es zurda?","10%","7%","","1","1","0","competitive","right","3.80991387367","2718.50975704","1.19008612633","2719.8398931","2.04481601715","2721.88477206","3.95518398285","2725.89025807","2727.13337898","2727.20974016","2730.21272898","1","2730.22625303","2736.206007",""
"sujeto_5fecb1ee","1","4","17","113","2736.34446716","direct","1","1","2","¿En qué año se estrenó
Volver al futuro?","1984","1985","","0","0","1","competitive","right","0.82506608963","2737.1696012","4.17493391037","2741.5185492","2.83183407784","2744.35044909","3.16816592216","2747.56840515","2749.13020921","2749.204144","2752.20712709","0","2752.2218461","2759.31329799",""
"sujeto_5fecb1ee","1","4","18","114","2759.45741415","inverse","3","1","2","¿Cuántos jugadores hay en un 
equipo de baseball?","9","8","","1","1","0","competitive","right","0.833819150925","2760.29130721","4.16618084908","2764.61320519","3.33590292931","2767.94914818","2.66409707069","2770.66460919","2772.27887702","2772.36510611","2775.3680861","1","2775.38293004","2780.36017513",""
"sujeto_5fecb1ee","1","4","19","115","2780.50167918","direct","2","1","1","¿Cuántos Oscar ganó
 la película titanic?","13","11","","1","1","1","individual","left","1.1212041378","2781.62295604","3.8787958622","2785.65736914","2.80439710617","2788.46180201","3.19560289383","2791.70746207","2793.00951815","2793.0586741","2796.06163716","1","2796.07688618","2800.67877507",""
"sujeto_5fecb1ee","1","4","20","116","2800.828372","inverse","4","1","4","¿En qué año comenzó
la segunda guerra mundial?","1939","1976","left","0","0","1","competitive","left","1.8302590847","2802.65870714","3.1697409153","2806.01676607","3.46473002434","2809.48155403","2.53526997566","2812.06712699","2813.86699915","2813.95104504","2816.95402598","1","2816.9685812","2820.95574403",""
"sujeto_5fecb1ee","1","4","21","117","2821.10357904","direct","2","1","4","¿Cuántos biomas hay en Uruguay?","5","4","","0","0","1","competitive","right","0.856792926788","2821.96043921","4.14320707321","2826.26101112","3.31919717789","2829.58026719","2.68080282211","2832.31104207","2834.10836816","2834.17997408","2837.18293619","0","2837.19760013","2843.44674206",""
"sujeto_5fecb1ee","1","4","22","118","2843.581496","inverse","2","1","3","¿Cuándo murió Pablo Escobar?","1993","1997","","1","1","1","competitive","left","0.748599052429","2844.33013821","4.25140094757","2848.73877811","4.30006098747","2853.0388732","1.69993901253","2854.78992701","2856.57275319","2856.65741801","2859.66041112","1","2859.67587018","2865.37953806",""
"sujeto_5fecb1ee","1","4","23","119","2865.52647305","direct","1","1","4","¿Qué serie ha ganado mas premios?","Friends","Murphy Brown","","1","1","0","competitive","left","0.693242073059","2866.21978116","4.30675792694","2870.68219209","2.94536185265","2873.62761807","3.05463814735","2876.71725011","2878.0696671","2878.15213418","2881.15512204","1","2881.16937613","2886.73077703",""
"sujeto_5fecb1ee","1","4","24","120","2886.8728621","inverse","4","1","2","¿Cuántas fichas tiene el dominó?","26","28","","1","1","1","competitive","right","2.0955619812","2888.96849608","2.9044380188","2892.05878019","4.17146396637","2896.23030305","1.82853603363","2898.1099782","2899.16530108","2899.26123214","2902.26423311","1","2902.27893901","2907.52202702",""
"sujeto_5fecb1ee","1","4","25","121","2907.66322613","direct","2","1","4","¿Cuántos son los dientes de leche?","20","25","","0","0","1","competitive","","2.96285200119","2910.62612605","2.03714799881","2912.83456516","6","2918.83472419","0","2918.85581899","2920.56617212","2920.63991404","2923.64288616","0","2923.65760899","2925.80335307",""
"sujeto_5fecb1ee","1","4","26","122","2925.94223714","inverse","3","1","3","¿Cuántos gramos son una onza?","22","28","","0","0","1","competitive","right","1.0246720314","2926.96697617","3.9753279686","2931.0970242","2.89675807953","2933.99384904","3.10324192047","2937.13056016","2939.12542605","2939.19846511","2942.1993041","0","2942.21565819","2948.50591421",""
"sujeto_5fecb1ee","1","4","27","123","2948.63454008","direct","3","1","1","¿Cuándo salió el primer album
 de los Beatles?","1963","1962","","1","1","1","competitive","","0.640126943588","2949.27475405","4.35987305641","2953.8050251","6","2959.80514717","0","2959.82237411","2960.98600411","2961.05879307","2964.06175709","0","2964.07607818","2967.84812117",""
"sujeto_5fecb1ee","1","4","28","124","2967.99402714","inverse","3","1","3","¿Quién fundó la empresa apple?","Carlos Slim","Steve Jobs","","1","1","1","competitive","right","0.667254209518","2968.66132307","4.33274579048","2973.16753006","2.59660291672","2975.764189","3.40339708328","2979.21842408","2980.33305907","2980.41947508","2983.42243409","1","2983.43709803","2989.73488808",""
"sujeto_5fecb1ee","1","4","29","125","2989.87202215","direct","4","1","2","¿Cuántos municipios hay
 en Montevideo?","8","7","","1","1","1","competitive","left","1.72889614105","2991.60096407","3.27110385895","2995.02881098","4.14799809456","2999.17685413","1.85200190544","3001.07906318","3002.99381709","3003.08085299","3006.08377814","1","3006.09850812","3008.17964411",""
"sujeto_5fecb1ee","1","4","30","126","3008.31711006","inverse","1","1","1","¿Cuántos kilómetros hay
 de Montevideo a Artigas?","632","599","","0","0","0","individual","left","3.86152982712","3012.17871213","1.13847017288","3013.47183108","5.43272686005","3018.90459704","0.567273139954","3019.52359414","3021.00675511","3021.05724001","3024.06023407","0","3024.07448816","3030.12660313",""
"sujeto_5fecb1ee","1","4","31","127","3030.27646899","direct","2","1","2","¿En qué año nació 
Leonardo Da Vinci?","1452","1511","","1","1","0","competitive","right","1.28491091728","3031.56142211","3.71508908272","3035.43137217","4.8658721447","3040.29730511","1.1341278553","3041.48324203","3043.33687401","3043.41669321","3046.41968918","1","3046.434237","3049.58067203",""
"sujeto_5fecb1ee","1","4","32","128","3049.71848011","inverse","3","1","1","¿A qué continente
 pertenece el país Gabón?","Africa","Oceanía","","0","0","1","individual","left","1.54262781143","3051.26117015","3.45737218857","3054.87607408","4.84490990639","3059.72104406","1.15509009361","3060.91058803","3062.72227907","3062.7610352","3065.76395321","0","3065.77886009","3071.01670814",""
