"code","nro_aplicante","nro_bloque","nro_trial_bloque","nro_trial_global","show_game_type","choice_order","rival","pay_individual","pay_competitive","question","answer_left_text","answer_right_text","correct_answer","outcome_individual","outcome_competitive","outcome_rival","game_type","answer","social_time","rt_game_type","feedback_delay","show_question","answer_time","rt_answer_global","feedback_delay_2","show_jitter","jitter_time","show_outcome","outcome_time","outcome_participant_real","show_final_jitter","second_jitter_time","inicio_descanso"
"sujeto_0067839","1","1","1","1","525.117383003","direct","3","1","4","¿Cuántos centímetros corresponden
al talle 36 del calzado?","23","24","","0","0","1","competitive","right","2.73111486435","527.848570108","2.26888513565","530.285761118","5.1793410778","535.465166092","0.820658922195","536.324126005","537.352427959","537.423422098","540.423771143","0","540.440720081","542.602135181",""
"sujeto_0067839","1","1","2","2","542.742864132","inverse","3","1","2","¿Cuántas metros mide la Intendencia
Municipal de Montevideo? ","84","78","","0","0","1","individual","","3.03429698944","545.777228117","1.96570301056","547.914489031","6","553.91465807","0","553.930824041","555.808866978","555.84928298","558.851758003","0","558.866821051","560.959571123",""
"sujeto_0067839","1","1","3","3","561.10287714","direct","1","1","3","¿Cuántas La Pasiva
 hay en uruguay?","15","11","","1","1","1","competitive","left","2.58426189423","563.687182188","2.41573810577","566.288727045","3.22043895721","569.50921011","2.77956104279","572.341331959","573.952996969","574.026132107","577.02905798","1","577.043399096","581.321737051",""
"sujeto_0067839","1","1","4","4","581.461320162","inverse","3","1","3","¿De que color es la camiseta de uruguay?","blanca","celeste","right","1","1","1","competitive","right","3.2658469677","584.727267981","1.7341530323","586.648634195","3.6214621067","590.270162106","2.3785378933","592.702095032","593.906814098","593.986185074","596.989128113","1","597.003043175","600.456959009",""
"sujeto_0067839","1","1","5","5","600.604501963","direct","2","1","1","¿Cuánto metros mide
la torre Eiffel?","333","324","","1","1","1","competitive","right","2.85671901703","603.461268187","2.14328098297","605.760418177","4.0427570343","609.803238153","1.9572429657","611.812528133","613.333934069","613.412909985","616.415827036","1","616.429751158","623.466399193",""
"sujeto_0067839","1","1","6","6","623.614900112","inverse","3","1","4","¿Cuantas ciudades existen
 en todo el uruguay?","63","72","","0","0","1","competitive","left","2.1602871418","625.775230169","2.8397128582","628.771528959","5.94666790962","634.718259096","0.0533320903778","634.807654142","635.862414122","635.940587997","638.943546057","0","638.957635164","646.58417201",""
"sujeto_0067839","1","1","7","7","646.726718187","direct","1","1","1","¿Cuantos estados tiene África?","52","54","","1","1","0","competitive","left","2.87545800209","649.602223158","2.12454199791","651.884016991","3.10607409477","654.990149021","2.89392590523","657.935383081","659.799368143","659.869388103","662.871711969","1","662.887892962","668.648951054",""
"sujeto_0067839","1","1","8","8","668.821966171","inverse","4","1","4","¿En qué año nació
 Stephen Hawking?","1952","1942","","0","0","1","competitive","right","4.94824004173","673.770248175","0.0517599582672","673.976890087","3.70420193672","677.681149006","2.29579806328","680.030148983","681.474465132","681.547334194","684.550316095","0","684.564920187","690.66428113",""
"sujeto_0067839","1","1","9","9","690.799659967","direct","2","1","3","¿Cuánto años tenía Artigas
 cuando se fue a Paraguay?","56","57","","1","1","1","competitive","left","1.89157295227","692.691297054","3.10842704773","695.974095106","4.19611120224","700.170248032","1.80388879776","702.008337975","703.557821989","703.625928164","706.627743006","1","706.64372015","712.691006184",""
"sujeto_0067839","1","1","10","10","712.828397036","inverse","1","1","2","¿Cuantos milímetros 
mide una hoja A2?","420x592","420x594","","0","0","1","competitive","","2.76376199722","715.592221975","2.23623800278","718.014424086","6","724.014537096","0","724.035562038","725.60402298","725.686843157","728.689823151","0","728.704235077","735.77788496",""
"sujeto_0067839","1","1","11","11","735.956079006","direct","3","1","3","¿Cuál es la menor temperatura 
registrada en Uruguay?","-5.4","-7.4","","0","0","1","competitive","left","2.07410502434","738.030246973","2.92589497566","741.114755154","4.05738806725","745.172180176","1.94261193275","747.147837162","748.829915047","748.899475098","751.902402163","0","751.917103052","755.64776516",""
"sujeto_0067839","1","1","12","12","755.784775019","inverse","2","1","2","¿Cuantos años hace que 
se fundó facebook?","18","17","","0","0","0","competitive","right","3.39342498779","759.17824316","1.60657501221","760.937282085","2.89993214607","763.837258101","3.10006785393","766.974431038","768.347099066","768.426136971","771.429059982","0","771.442532063","774.217113972",""
"sujeto_0067839","1","1","13","13","774.344244003","direct","1","1","4","¿Cuál animal es más
 pesado en promedio?","Rinoceronte","Hipopotamo","","0","0","0","competitive","right","3.72692799568","778.071218014","1.27307200432","779.563691139","4.38648700714","783.950219154","1.61351299286","785.617638111","786.696907997","786.769389153","789.771725178","0","789.78563714","793.626639128",""
"sujeto_0067839","1","1","14","14","793.771423101","inverse","1","1","2","¿Qué personaje de dragon ball 
murió más veces?","Chaoz","Krillin","","1","1","0","competitive","right","1.98079299927","795.752289057","3.01920700073","798.924664021","4.01547884941","802.940181017","1.98452115059","804.9770751","806.434863091","806.511891127","809.514770031","1","809.528918028","817.301851034",""
"sujeto_0067839","1","1","15","15","817.431261063","direct","3","1","2","La universidad de oxford. 
existe desde:","1096","1249","","1","1","0","competitive","right","3.13192987442","820.56323719","1.86807012558","822.588840008","3.44331502914","826.032199144","2.55668497086","828.639424086","829.688235044","829.774250984","832.777243137","1","832.791400194","839.482254028",""
"sujeto_0067839","1","1","16","16","839.676797152","inverse","3","1","1","¿Qué escritor latino ganó antes
 el premio nobel?"," García Marquez","Neruda","","0","0","1","individual","right","3.34536790848","843.022227049","1.65463209152","844.849183083","4.85600495338","849.705250978","1.14399504662","850.902268171","852.642271996","852.686253071","855.689218044","0","855.703284025","859.163763046",""
"sujeto_0067839","1","1","17","17","859.304512978","direct","4","1","3","¿Cuántos dientes tiene un
 tiburón blanco?","6000","3000","","0","0","1","competitive","left","4.63871598244","863.943294048","0.361284017563","864.460494995","3.30071187019","867.761270046","2.69928812981","870.511348009","871.550307989","871.628985167","874.631988049","0","874.645853996","879.451766968",""
"sujeto_0067839","1","1","18","18","879.598412991","inverse","4","1","1","¿Cuánto mide el paralelo Ecuador?","40.000km","70.000km","","0","0","1","individual","left","3.20079898834","882.799278021","1.79920101166","884.770327091","3.7888469696","888.55923605","2.2111530304","890.820371151","892.776453018","892.821228027","895.823785067","0","895.83834219","899.439747095",""
"sujeto_0067839","1","1","19","19","899.574093103","direct","4","1","2","¿Cuál fue el primer libro 
de Stephen King?","Carrie","The Stand","","1","1","1","competitive","right","4.16911077499","903.743249178","0.830889225006","904.73120904","3.37496590614","908.106235981","2.62503409386","910.782138109","912.52621603","912.600286007","915.603245974","1","915.61737299","920.09120512",""
"sujeto_0067839","1","1","20","20","920.219216108","inverse","2","1","3","¿Qué civilización practicaba
 la momificación?","Grecia","Egipto","right","0","0","1","competitive","right","3.12099599838","923.340274096","1.87900400162","925.388940096","3.73029303551","929.119292974","2.26970696449","931.426290989","933.365571976","933.444213152","936.447124958","1","936.462080002","940.690890074",""
"sujeto_0067839","1","1","21","21","940.829749107","direct","4","1","4","¿Cuántos millones de visitas
 recibe google por minuto?","3.0","4.5","","0","0","1","competitive","right","2.41242408752","943.242215157","2.58757591248","946.017186165","4.03596401215","950.053191185","1.96403598785","952.069739103","953.584613085","953.67132616","956.671763182","0","956.688838005","963.8077631",""
"sujeto_0067839","1","1","22","22","963.940636158","inverse","1","1","3","La máquina de fax. se inventó en:","1843","1960","","0","0","1","competitive","left","1.80859994888","965.749279976","3.19140005112","969.097193003","5.18500995636","974.282248974","0.81499004364","975.149240971","976.391345024","976.466096163","979.46907115","0","979.483276129","982.719540119",""
"sujeto_0067839","1","1","23","23","982.85158205","direct","2","1","4","En la verdadera historia de los
 300 espartanos. habían:","300 soldados","4300 soldados","","1","1","1","competitive","right","3.29663681984","986.148326159","1.70336318016","988.040848017","4.81030797958","992.851222992","1.18969202042","994.075047016","995.336240053","995.409377098","998.412353039","1","998.426720142","1002.22775817",""
"sujeto_0067839","1","1","24","24","1002.36108613","inverse","1","1","4","¿Cuántos milímetros crece
 el pelo por día?","0.4","0.04","","0","0","0","competitive","left","2.90715003014","1005.26834702","2.09284996986","1007.53053308","3.74067902565","1011.27127504","2.25932097435","1013.58484817","1015.34553719","1015.419034","1018.42202497","0","1018.43689299","1025.1719861",""
"sujeto_0067839","1","1","25","25","1025.32151604","direct","4","1","1","¿Cuánto mide la baldosa gris 
clásica de Montevideo?","22x22 cm.","20x20 cm.","","1","1","1","individual","left","2.73567295074","1028.05723119","2.26432704926","1030.51132607","5.75484800339","1036.26621604","0.245151996613","1036.56499815","1038.56020713","1038.59777212","1041.59974504","1","1041.61591601","1047.15872002",""
"sujeto_0067839","1","1","26","26","1047.30100203","inverse","2","1","2","¿Cuántas películas de rápidos
 y furiosos hay?","10","11","","1","1","0","competitive","left","4.02323102951","1051.32429814","0.97676897049","1052.45795918","4.81523013115","1057.2732482","1.18476986885","1058.49170208","1059.84973001","1059.92617011","1062.92776799","1","1062.94300818","1064.97771502",""
"sujeto_0067839","1","1","27","27","1065.11147618","direct","3","1","1","¿Cuántos masters 1000
 ganó Del Potro?","1","2","","1","1","1","competitive","right","2.96479105949","1068.07635212","2.03520894051","1070.28272009","5.35350084305","1075.63628197","0.646499156952","1076.33451509","1078.08907104","1078.16808605","1081.17104912","1","1081.18600917","1088.58232403",""
"sujeto_0067839","1","1","28","28","1088.72086906","inverse","2","1","4","¿Cuántos meses dura el 
embarazo de una leona?","3 meses","4 meses","","0","0","1","competitive","right","3.41633796692","1092.13727307","1.58366203308","1093.87912416","4.59408307076","1098.47324896","1.40591692924","1099.91290617","1101.02398515","1101.09748507","1104.09972119","0","1104.11464715","1110.83573699",""
"sujeto_0067839","1","1","29","29","1110.98231006","direct","1","1","1","¿En qué año fue creado
 el sandwich?","1762","1653","","1","1","0","competitive","right","4.49188399315","1115.47423911","0.508116006851","1116.13720417","4.40499210358","1120.54225302","1.59500789642","1122.1915772","1123.79011297","1123.87604713","1126.87903714","1","1126.89284301","1130.36347008",""
"sujeto_0067839","1","1","30","30","1130.49458504","inverse","4","1","2","El nombre de la moneda de Vietnam es:","Dinar","Dong","","0","0","1","individual","left","4.60758304596","1135.102211","0.392416954041","1135.65018106","4.3039689064","1139.95420718","1.6960310936","1141.70142508","1143.13341117","1143.18504405","1146.18801808","0","1146.20222211","1152.37065196",""
"sujeto_0067839","1","1","31","31","1152.52150607","direct","2","1","1","¿cuantos aleteos puede dar 
un colibrí por segundo?","120","50","","0","0","0","competitive","left","2.7687189579","1155.29032302","2.2312810421","1157.69422197","4.75088810921","1162.44514298","1.24911189079","1163.74635315","1165.47873902","1165.56373501","1168.56672716","0","1168.58101797","1172.79329419",""
"sujeto_0067839","1","1","32","32","1172.93224406","inverse","4","1","3","¿Qué altura promedio tienen
 los hombres uruguayos?","1.73 m","1.72 m","","1","1","1","competitive","left","2.84495186806","1175.77724004","2.15504813194","1178.12190104","4.08431506157","1182.20625997","1.91568493843","1184.17295218","1185.43538404","1185.50714016","1188.51009297","1","1188.52494907","1193.00088596",""
"sujeto_0067839","1","2","1","33","1332.29232311","direct","1","1","1","¿En qué año nació 
el actor Bradd Pitt?","1967","1963","","1","1","1","competitive","left","2.35989618301","1334.65226817","2.64010381699","1337.46792197","3.98731899261","1341.45531106","2.01268100739","1343.52137399","1344.61722207","1344.68965912","1347.69264698","1","1347.70675111","1353.63434505","1193.01575112"
"sujeto_0067839","1","2","2","34","1353.80761099","inverse","2","1","1","¿Cual es el segundo 
monte más alto?","Kanchenjunga","K2","","1","1","1","competitive","right","3.42258787155","1357.23027015","1.57741212845","1358.96421313","4.86604094505","1363.83032203","1.13395905495","1365.01570106","1366.46805406","1366.55051208","1369.55349302","1","1369.56766415","1372.99748611",""
"sujeto_0067839","1","2","3","35","1373.13550115","direct","3","1","1","¿Cuándo finalizó la construcción
 del Palacio Legislativo?","1925","1917","","0","0","1","individual","left","2.06974601746","1375.20531607","2.93025398254","1378.323699","4.53151607513","1382.85526109","1.46848392487","1384.37516618","1386.01684904","1386.05891418","1389.06187797","0","1389.07683301","1394.773417",""
"sujeto_0067839","1","2","4","36","1394.91129017","inverse","3","1","3","¿Cuántos integrantes tenía
 en su inicio  el cuarteto de nos?","3","4","","1","1","1","competitive","right","2.82996106148","1397.74131513","2.17003893852","1400.06598806","4.54130220413","1404.60735106","1.45869779587","1406.12081003","1407.25391197","1407.33849502","1410.33973813","1","1410.35569","1416.00545812",""
"sujeto_0067839","1","2","5","37","1416.15738106","direct","2","1","3","¿Qué valor tiene el número pi?","3.14","4.18","left","0","0","1","competitive","left","3.85989522934","1420.01734304","1.14010477066","1421.31339216","2.66391205788","1423.97734618","3.33608794212","1427.36194396","1428.81572819","1428.89754009","1431.89972806","1","1431.91485906","1438.83584118",""
"sujeto_0067839","1","2","6","38","1438.96644497","inverse","2","1","2","¿Cuál es la esperanza de vida
 en Uruguay?","75","77","","1","1","0","competitive","right","2.06183695793","1441.02834606","2.93816304207","1444.121912","3.74632000923","1447.86829305","2.25367999077","1450.15959215","1451.81342196","1451.89409709","1454.89576507","1","1454.91181016","1461.371768",""
"sujeto_0067839","1","2","7","39","1461.52923512","direct","1","1","2","¿Cuantos pisos tiene la torre 
de las comunicaciones?","26","32","","1","1","0","competitive","right","3.44101405144","1464.970294","1.55898594856","1466.68525219","4.16603398323","1470.85133004","1.83396601677","1472.72141814","1474.55019212","1474.62196803","1477.62495804","1","1477.64003205","1479.78622317",""
"sujeto_0067839","1","2","8","40","1479.92525411","inverse","2","1","4","¿En qué país sudamericano 
no hay McDonalds?","Bolivia","Venezuela","","0","0","1","competitive","right","1.88608598709","1481.81138802","3.11391401291","1485.11101508","2.85318994522","1487.96424413","3.14681005478","1491.16224098","1492.47161603","1492.548841","1495.55184102","0","1495.56542301","1501.92378402",""
"sujeto_0067839","1","2","9","41","1502.06777096","direct","3","1","1","¿En qué año empieza
 la Edad Media?","476","512","","1","1","1","competitive","right","3.81050014496","1505.87833714","1.18949985504","1507.24100399","4.65428709984","1511.89535308","1.34571290016","1513.29073119","1514.69446611","1514.77498198","1517.7757771","1","1517.79190898","1520.78046608",""
"sujeto_0067839","1","2","10","42","1520.92679405","inverse","3","1","4","¿Hace cuántos años surgió
 el ser humano?","200mil","300mil","","0","0","0","competitive","left","1.67745089531","1522.60430908","3.32254910469","1526.06791496","3.88027000427","1529.94822216","2.11972999573","1532.11814904","1534.00411916","1534.08646512","1537.08939815","0","1537.10406709","1540.41226602",""
"sujeto_0067839","1","2","11","43","1540.57141018","direct","3","1","4","¿Cuántas cuadras tiene
 actualmente 18 de julio? ","36","33","","0","0","1","competitive","right","2.45389914513","1543.02535701","2.54610085487","1545.71301198","4.87720608711","1550.5902791","1.12279391289","1551.74591708","1553.44812012","1553.52931118","1556.53229809","0","1556.54733205","1561.27361798",""
"sujeto_0067839","1","2","12","44","1561.41509509","inverse","1","1","4","¿Qué juego de equipo se 
considera mas rápido?","Lacrosse","Badminton","","0","0","0","competitive","right","1.60114383698","1563.01630402","3.39885616302","1566.56791019","5.96828508377","1572.53625202","0.0317149162292","1572.62122512","1573.86377716","1573.93810296","1576.93977404","0","1576.95590997","1584.95107913",""
"sujeto_0067839","1","2","13","45","1585.07399297","direct","1","1","3","¿Qué promedio de edad 
vive una jirafa? ","25","20","","0","0","1","competitive","right","2.01433897018","1587.0883801","2.98566102982","1590.23218107","3.48208403587","1593.714324","2.51791596413","1596.26795602","1598.02944899","1598.10306501","1601.10606003","0","1601.12005401","1607.07577205",""
"sujeto_0067839","1","2","14","46","1607.22164011","inverse","1","1","2","¿Cuántos grandes lagos hay?","7","5","","0","0","1","competitive","left","2.19965410233","1609.42133808","2.80034589767","1612.37710714","3.96617102623","1616.34331799","2.03382897377","1618.41269016","1619.70484805","1619.78053808","1622.78351808","0","1622.79849505","1630.61824703",""
"sujeto_0067839","1","2","15","47","1630.7659781","direct","3","1","2","¿Cuántos discos de estudio
 grabó Johhny Cash? ","54","43","","1","1","0","individual","right","4.98332691193","1635.74937201","0.0166730880737","1635.92284298","4.17239308357","1640.09530306","1.82760691643","1641.97515917","1643.25380397","1643.29239202","1646.29535413","1","1646.31040907","1652.95741105",""
"sujeto_0067839","1","2","16","48","1653.111835","inverse","4","1","1","¿Cuántos barrios tiene
 Montevideo? ","71","62","","0","0","1","individual","right","1.68042397499","1654.79233003","3.31957602501","1658.266958","3.91221094131","1662.17920399","2.08778905869","1664.30206609","1665.3090961","1665.35399604","1668.35697198","0","1668.37115097","1673.83313799",""
"sujeto_0067839","1","2","17","49","1673.97202897","direct","3","1","3","¿Qué edad tiene Homero Simpson?","36","42","","0","0","1","competitive","right","1.87637495995","1675.84848309","3.12362504005","1679.16153908","3.054666996","1682.21626401","2.945333004","1685.21337605","1686.58936906","1686.66491008","1689.66777611","0","1689.68279409","1694.07150102",""
"sujeto_0067839","1","2","18","50","1694.23336697","inverse","4","1","2","¿Cuántos países con monarquía 
hay en europa actualmente? ","6","10","","1","1","1","individual","left","4.02488899231","1698.25831914","0.97511100769","1699.39040613","3.7658560276","1703.15630603","2.2341439724","1705.42407417","1706.86232209","1706.90899801","1709.911906","1","1709.925951","1716.0827651",""
"sujeto_0067839","1","2","19","51","1716.21126914","direct","2","1","3","¿Cuántos capítulos de
 Friends existen? ","236","228","","1","1","1","competitive","left","4.16999697685","1720.38131118","0.830003023148","1721.35148001","3.35979104042","1724.71131516","2.64020895958","1727.4023571","1728.70792818","1728.78679609","1731.789783","1","1731.80369902","1734.17933702",""
"sujeto_0067839","1","2","20","52","1734.32257318","inverse","1","1","3","¿Cuántas óperas compuso Mozart? ","27","22","","1","1","1","competitive","right","2.16074609756","1736.48338318","2.83925390244","1739.47612","4.41822504997","1743.89439106","1.58177495003","1745.528934","1746.82109904","1746.89623308","1749.89915299","1","1749.91319513","1757.22464705",""
"sujeto_0067839","1","2","21","53","1757.36434698","direct","4","1","3","¿Cuántos mundiales de fútbol 
femenino ha realizado FIFA? ","9","7","","1","1","1","competitive","left","3.61391592026","1760.97830796","1.38608407974","1762.52204299","4.40824604034","1766.93033099","1.59175395966","1768.55521512","1769.79891515","1769.8725071","1772.87544703","1","1772.88963413","1778.99212313",""
"sujeto_0067839","1","2","22","54","1779.12484813","inverse","3","1","2","¿Cuál es la temperatura 
media anual en Montevideo? ","17.5","16.3","","0","0","1","individual","left","4.88047599792","1784.00538611","0.119524002075","1784.28182817","4.69145107269","1788.97334504","1.30854892731","1790.33547807","1792.274086","1792.31881905","1795.32178402","0","1795.33689713","1801.90642905",""
"sujeto_0067839","1","2","23","55","1802.07129812","direct","2","1","2","¿En qué año se estrenó el
 videojuego The Sims? ","2000","2002","","0","0","0","competitive","right","3.10897612572","1805.18032002","1.89102387428","1807.22884011","4.75844216347","1811.98734403","1.24155783653","1813.2807622","1815.14279103","1815.21459699","1818.21753216","0","1818.23159719","1825.62376118",""
"sujeto_0067839","1","2","24","56","1825.76705718","inverse","2","1","1","¿Cuál es la canción con 
mas covers? ","Yesterday","Stand by me","","0","0","0","competitive","right","2.62522315979","1828.39232397","2.37477684021","1830.92482305","3.56546187401","1834.49035501","2.43453812599","1836.97524714","1838.37380719","1838.44268012","1841.44376898","0","1841.4608171","1845.63164997",""
"sujeto_0067839","1","2","25","57","1845.77876902","direct","1","1","4","¿Cuánto duró la guerra
 de los 100 años?","116","123","","0","0","0","competitive","left","3.80150008202","1849.58031416","1.19849991798","1850.93442798","3.14686489105","1854.08133602","2.85313510895","1856.968678","1858.44947505","1858.52052712","1861.52346396","0","1861.53742814","1863.85715199",""
"sujeto_0067839","1","2","26","58","1864.00579119","inverse","4","1","4","¿Qué color tiene la  bandera de Brasil?","Amarillo","Naranja","left","0","0","1","individual","left","2.64551496506","1866.65137219","2.35448503494","1869.17712212","4.97016716003","1874.14733005","1.02983283997","1875.22833109","1876.79486108","1876.84588718","1879.84886503","1","1879.86301112","1882.89581299",""
"sujeto_0067839","1","2","27","59","1883.04877305","direct","4","1","3","¿Qué carabela de 
Colon no volvió del viaje?","Santa María","La pinta","","0","0","1","competitive","left","2.93154191971","1885.98041701","2.06845808029","1888.25311613","5.3912050724","1893.64438796","0.608794927597","1894.30634403","1895.7974081","1895.872648","1898.87563419","0","1898.8896091","1900.98908114",""
"sujeto_0067839","1","2","28","60","1901.12541008","inverse","4","1","4","¿Cuántos huesos tiene
 un adulto humano?","217","206","","0","0","1","competitive","left","3.4069018364","1904.5323801","1.5930981636","1906.31247997","3.80777096748","1910.12030911","2.19222903252","1912.36337519","1913.63440299","1913.71419597","1916.71715403","0","1916.73134208","1924.56903911",""
"sujeto_0067839","1","2","29","61","1924.71642399","direct","1","1","1","¿Qué país africano fue 
fundado por esclavos?","Liberia","Chad","","0","0","0","competitive","left","1.9938890934","1926.71037698","3.0061109066","1929.87310815","4.52023100853","1934.39340401","1.47976899147","1935.926579","1937.91820598","1937.99385905","1940.99685812","0","1941.01191497","1949.00276208",""
"sujeto_0067839","1","2","30","62","1949.14636803","inverse","4","1","2","¿A cuánto asciende la cima
 del monte Everest?","7.990 mts","8.848 mts","","0","0","1","individual","right","3.43994498253","1952.5863781","1.56005501747","1954.30489016","4.52839303017","1958.83335114","1.47160696983","1960.33870816","1961.52355003","1961.57270718","1964.57566619","0","1964.58994412","1971.77395701",""
"sujeto_0067839","1","2","31","63","1971.92871809","direct","4","1","1","¿Cuál es el país mas chico?","Sealand","Luxemburgo","","1","1","1","individual","left","3.95154118538","1975.88032913","1.04845881462","1977.08314919","4.96414399147","1982.04733896","1.03585600853","1983.11820507","1984.98171306","1985.03523207","1988.03818297","1","1988.05276203","1991.17506003",""
"sujeto_0067839","1","2","32","64","1991.32063103","inverse","2","1","4","¿Cuántas pirámides hay en Egipto?","10000","11000","","1","1","1","competitive","right","2.27066588402","1993.59134316","2.72933411598","1996.49216199","4.15607905388","2000.64827919","1.84392094612","2002.54200602","2003.57562613","2003.65890718","2006.66189003","1","2006.67651701","2011.78559804",""
"sujeto_0067839","1","3","1","65","2139.2838881","direct","2","1","2","¿Cuál es el quinto país con 
mas extensión?","Canadá","Brasil","","1","1","0","competitive","right","2.16345715523","2141.44743204","2.83654284477","2144.45004296","4.00830507278","2148.45840907","1.99169492722","2150.50333905","2151.83664107","2151.92087197","2154.92377019","1","2154.93868303","2162.65907907","2011.80077314"
"sujeto_0067839","1","3","2","66","2162.80619407","inverse","1","1","2","¿Qué rasgo facial no tiene
 la Mona Lisa?","Cejas","Pómulos","","0","0","1","competitive","left","3.58914518356","2166.3954041","1.41085481644","2167.96357703","5.95573401451","2173.91937518","0.0442659854889","2174.01662612","2175.76706815","2175.85041499","2178.85174799","0","2178.86769414","2185.13575816",""
"sujeto_0067839","1","3","3","67","2185.28543115","direct","4","1","3","¿Cuál es el país con 
mayor población?","Esados Unidos","China","right","0","0","1","competitive","right","2.3188970089","2187.60437298","2.6811029911","2190.43849707","3.2218580246","2193.66039896","2.7781419754","2196.49279499","2198.13880396","2198.22749901","2201.23048019","1","2201.24460196","2204.6119411",""
"sujeto_0067839","1","3","4","68","2204.74636412","inverse","1","1","1","La palabra dinosaurio significa","Lagarto Terrible","Lagarto Dragón","","1","1","0","individual","right","2.22095108032","2206.96737599","2.77904891968","2209.91854215","3.63680505753","2213.55540705","2.36319494247","2215.97057605","2217.14087701","2217.18829513","2220.19120502","1","2220.20521212","2223.06707716",""
"sujeto_0067839","1","3","5","69","2223.20701599","direct","2","1","3","¿Qué es el membrillero?","Arbol","Arbusto","","0","0","0","competitive","right","3.01630210876","2226.22339296","1.98369789124","2228.36170197","4.56863093376","2232.93040609","1.43136906624","2234.41386008","2236.36796999","2236.44731903","2239.45022511","0","2239.46532607","2245.92931104",""
"sujeto_0067839","1","3","6","70","2246.08355999","inverse","3","1","3","¿Alrededor de qué planeta orbita 
el satélite Europa?","Jupiter","Saturno","","1","1","1","competitive","left","2.9817841053","2249.06540918","2.0182158947","2251.25680709","4.62750792503","2255.8843751","1.37249207497","2257.29229403","2258.837111","2258.90907407","2261.91202617","1","2261.92691112","2264.13175702",""
"sujeto_0067839","1","3","7","71","2264.27866101","direct","3","1","1","¿Donde fue el mundial de 
fútbol de 1954?","Suiza","Suecia","","1","1","1","individual","left","3.13263297081","2267.41136408","1.86736702919","2269.466676","4.53067708015","2273.99739504","1.46932291985","2275.50137997","2276.75402713","2276.80250216","2279.80547619","1","2279.81964612","2283.73142004",""
"sujeto_0067839","1","3","8","72","2283.87073708","inverse","1","1","4","¿Cuál de los 7 enanitos
no tenía barba?","Bashful","Mudito","","1","1","0","competitive","left","1.68459200859","2285.55539417","3.31540799141","2289.02707505","4.46424293518","2293.49138212","1.53575706482","2295.07738614","2296.65745807","2296.74594402","2299.7489121","1","2299.76296711","2304.69207811",""
"sujeto_0067839","1","3","9","73","2304.83093214","direct","3","1","2","¿Cual red social es
mas utilizada mundialmente?","Instagram","Facebook","","1","1","0","","","","","","","","","","","","","","","2309.85423017","2312.78868818",""
"sujeto_0067839","1","3","10","74","2312.90370512","inverse","4","1","1","¿Cuándo se inició la copa
 América de fútbol?","1916","1923","","1","1","1","individual","left","2.46361303329","2315.3673861","2.53638696671","2318.07372618","3.93555498123","2322.00933909","2.06444501877","2324.12561297","2326.0230751","2326.06097698","2329.06395102","1","2329.07803702","2331.73176098",""
"sujeto_0067839","1","3","11","75","2331.86318612","direct","3","1","4","¿Cuántos presidentes de EEUU
han muerto asesinados?","3","4","","0","0","1","competitive","right","2.15518116951","2334.01844001","2.84481883049","2337.01821017","3.1751241684","2340.19337797","2.8248758316","2343.06806517","2344.55202508","2344.63573217","2347.63876009","0","2347.65292597","2351.29703212",""
"sujeto_0067839","1","3","12","76","2351.43821406","inverse","2","1","4","¿Cuántas veces participó EEUU
 en la copa América?","4","5","","0","0","1","competitive","right","2.80617880821","2354.24445796","2.19382119179","2356.60886002","4.10945296288","2360.71837497","1.89054703712","2362.64576197","2364.08987212","2364.16329718","2367.16376615","0","2367.18104911","2373.29817319",""
"sujeto_0067839","1","3","13","77","2373.43194103","direct","4","1","1","¿Cuál de estos países 
no formaba la URSS?","Azeribayán","Afganistán","","0","0","1","individual","right","2.97399401665","2376.40597796","2.02600598335","2378.58921218","5.10315012932","2383.69240308","0.896849870682","2384.64112115","2385.95411301","2385.99195504","2388.99491811","0","2389.00917315","2396.99125004",""
"sujeto_0067839","1","3","14","78","2397.14310813","inverse","1","1","1","¿En qué año se inauguró
 el teatro Solís?","1867","1856","","0","0","0","competitive","left","3.18331098557","2400.32646704","1.81668901443","2402.30177116","4.99055099487","2407.29235816","1.00944900513","2408.35346818","2409.40979314","2409.48731613","2412.49022913","0","2412.50427198","2419.15182304",""
"sujeto_0067839","1","3","15","79","2419.28938913","direct","1","1","4","¿A qué velocidad vuela 
el avión más rápido?","3529","3874","","0","0","0","competitive","right","1.46800303459","2420.75745797","3.53199696541","2424.44646502","4.13285493851","2428.57935905","1.86714506149","2430.4970901","2432.2517581","2432.33200598","2435.33498716","0","2435.34902406","2437.45923996",""
"sujeto_0067839","1","3","16","80","2437.60112309","inverse","3","1","4","¿De qué año es la primer 
película cinematográfica?","1897","1888","","0","0","0","competitive","","2.92719197273","2440.52836514","2.07280802727","2442.77151608","6","2448.77167416","0","2448.7914021","2449.92372799","2450.00814009","2453.01114011","0","2453.02540112","2458.43515611",""
"sujeto_0067839","1","3","17","81","2458.57704115","direct","2","1","3","¿Cuántos países 
tiene nuestro planeta?","191","194","","1","1","1","competitive","right","2.18135809898","2460.7584641","2.81864190102","2463.73204398","5.47422885895","2469.20630717","0.525771141052","2469.76859403","2471.12581515","2471.20215416","2474.20376205","1","2474.21904016","2477.45576596",""
"sujeto_0067839","1","3","18","82","2477.58818817","inverse","2","1","2","¿Cuántos habitantes
 tiene Buenos Aires?","2.9000.000","3650000","","0","0","0","competitive","right","2.94914698601","2480.53740811","2.05085301399","2482.75864911","5.02672815323","2487.78543997","0.973271846771","2488.79491019","2490.19177318","2490.26194596","2493.26492119","0","2493.27884007","2499.10820603",""
"sujeto_0067839","1","3","19","83","2499.26383996","direct","2","1","1","¿Cuántos kilos forman una tonelada?","1000","1500","left","1","1","1","individual","left","3.73447299004","2502.9983561","1.26552700996","2504.42103219","3.68029594421","2508.10139108","2.31970405579","2510.45525408","2512.34256601","2512.38970518","2515.39266205","1","2515.40751219","2521.36494112",""
"sujeto_0067839","1","3","20","84","2521.52573419","inverse","4","1","4","¿Cuántos estados tiene la 
República del Perú? ","24","23","","0","0","1","competitive","right","2.89657092094","2524.42235017","2.10342907906","2526.69841909","3.96392989159","2530.66238809","2.03607010841","2532.73325896","2533.75540519","2533.83409905","2536.8357451","0","2536.85183311","2541.79714704",""
"sujeto_0067839","1","3","21","85","2541.95370507","direct","3","1","3","¿En qué año nació Cristóbal Colón? ","1451","1447","","0","0","1","competitive","","2.02970504761","2543.98346019","2.97029495239","2547.10950303","6","2553.10964513","0","2553.12699604","2554.97173619","2555.0454042","2558.04839206","0","2558.06264496","2562.28777099",""
"sujeto_0067839","1","3","22","86","2562.43095899","inverse","4","1","4","¿Cuánto mide la 
Montaña Aconcagua? ","6234","6962","","0","0","1","individual","right","3.45059895515","2565.881634","1.54940104485","2567.60029006","5.09110999107","2572.69144416","0.908890008926","2573.65491915","2574.94372416","2574.98929596","2577.99224114","0","2578.00615597","2585.18979406",""
"sujeto_0067839","1","3","23","87","2585.32379508","direct","2","1","4","¿Cuánto mide el punto
 más profundo del océano? ","12508","11003","","0","0","1","competitive","left","1.8455619812","2587.1694231","3.1544380188","2590.51594901","3.34438204765","2593.86037111","2.65561795235","2596.54864812","2597.80017018","2597.88309407","2600.88608599","0","2600.9000001","2605.10621214",""
"sujeto_0067839","1","3","24","88","2605.23464298","inverse","1","1","3","¿Cuántos álbumes ha publicado 
el cantante Jaime Roos? ","41","34","","0","0","1","competitive","right","1.93074393272","2607.16543603","3.06925606728","2610.40773916","4.46261096001","2614.87041306","1.53738903999","2616.44321418","2617.93171811","2618.01078606","2621.01173496","0","2621.02776718","2627.22376919",""
"sujeto_0067839","1","3","25","89","2627.36276007","direct","4","1","3","¿En qué año nació el 
ex-presidente Jorge Battle? ","1921","1927","","1","1","1","individual","left","2.61263895035","2629.97547317","2.38736104965","2632.51986313","4.46647715569","2636.98637915","1.53352284431","2638.57147408","2640.30218005","2640.33886504","2643.33973503","1","2643.35590005","2646.83974314",""
"sujeto_0067839","1","3","26","90","2646.99079418","inverse","1","1","3","¿Cuántas presidencias 
constitucionales  hubo en Uruguay? ","41","42","","0","0","1","competitive","left","1.77758288383","2648.76844597","3.22241711617","2652.14715409","4.72413277626","2656.871346","1.27586722374","2658.18163109","2659.38534498","2659.46465206","2662.46759701","0","2662.48254514","2668.26618409",""
"sujeto_0067839","1","3","27","91","2668.43348598","direct","1","1","2","¿Quién escribió mas sinfonías?","Mozart","Haydn","","1","1","0","competitive","left","3.18187785149","2671.61543012","1.81812214851","2673.58811712","3.84525609016","2677.43341398","2.15474390984","2679.62600398","2680.84345198","2680.92687201","2683.929847","1","2683.9438231","2687.69174409",""
"sujeto_0067839","1","3","28","92","2687.84504819","inverse","4","1","2","¿En qué año nació Michael Jackson?","1958","1953","","1","1","1","individual","right","3.30131602287","2691.14640808","1.69868397713","2693.01814103","4.17922091484","2697.19740319","1.82077908516","2699.05205703","2701.030231","2701.07002115","2704.07300806","1","2704.08722496","2709.949507",""
"sujeto_0067839","1","3","29","93","2710.08891606","direct","3","1","2","¿En qué año entró en vigencia 
la ley antitabaco en Uruguay?","2005","2006","","1","1","1","individual","","2.62646818161","2712.71545815","2.37353181839","2715.26225019","6","2721.26235604","0","2721.28065419","2722.87537217","2722.91516709","2725.91814303","0","2725.93225408","2731.26622796",""
"sujeto_0067839","1","3","30","94","2731.40036297","inverse","3","1","1","¿Cuándo se subió el 
primer video a youtube?","2004","2005","","0","0","1","individual","left","1.76500701904","2733.16541719","3.23499298096","2736.55779099","3.17454409599","2739.73237801","2.82545590401","2742.60746217","2743.91311407","2743.95886517","2746.96182704","0","2746.97575998","2754.73139",""
"sujeto_0067839","1","3","31","95","2754.86117005","direct","2","1","1","¿Cuántos habitantes tiene India?","1200 millones","1300 millones","","0","0","0","individual","right","2.61523604393","2757.47645211","2.38476395607","2760.05084014","3.54457998276","2763.59546018","2.45542001724","2766.08654213","2768.05618","2768.10422802","2771.10717797","0","2771.12201214","2777.16776514",""
"sujeto_0067839","1","3","32","96","2777.32455707","inverse","4","1","2","¿A qué edad murió Bob Marley?","36","37","","0","0","1","individual","left","1.6298789978","2778.95448399","3.3701210022","2782.48096013","2.43241500854","2784.91343498","3.56758499146","2788.53010702","2790.427948","2790.46620512","2793.46774006","0","2793.483603","2796.58611417",""
"sujeto_0067839","1","4","1","97","2949.79867005","direct","2","1","1","¿Cuantos años dirigió la selección 
uruguaya Tabarez?","15 años","13 años","","0","0","0","individual","left","2.31373977661","2952.11245298","2.68626022339","2954.98399019","3.87840104103","2958.86246014","2.12159895897","2961.02093816","2962.21212411","2962.25507498","2965.25805306","0","2965.27174401","2972.34373903","2796.600986"
"sujeto_0067839","1","4","2","98","2972.52336311","inverse","4","1","1","¿Cuantas teclas tiene un teclado 
de computadora generalmente? ","Entre 99 y 108","Entre 109 y 113","","1","1","1","individual","right","1.3370552063","2973.8604672","3.6629447937","2977.69700503","5.44440603256","2983.14145207","0.555593967438","2983.7487781","2984.75150299","2984.79873919","2987.80170918","1","2987.81601","2990.18744111",""
"sujeto_0067839","1","4","3","99","2990.33424616","direct","1","1","1","¿Cuál Departamento tiene
 mayor superficie?","Río Negro","Soriano","","0","0","0","competitive","left","2.80018210411","2993.13449097","2.19981789589","2995.48846912","3.62893509865","2999.11744404","2.37106490135","3001.52437711","3003.237854","3003.30855799","3006.31153107","0","3006.32643819","3010.65252519",""
"sujeto_0067839","1","4","4","100","3010.79439306","inverse","3","1","2","¿Cuál es el apellido de las 
hermanastras  de  cenicienta?","Tremaine","Truman","","0","0","1","individual","left","2.86900496483","3013.663445","2.13099503517","3015.96716213","4.29118108749","3020.25838304","1.70881891251","3022.01873612","3023.88773918","3023.93642712","3026.93936419","0","3026.95338011","3029.64774609",""
"sujeto_0067839","1","4","5","101","3029.78889298","direct","4","1","4","¿Cuál película ganó un
 Oscar a mejor película?","Alto Impacto","Cache","","0","0","1","individual","right","2.87547492981","3032.66441798","2.12452507019","3034.94330716","4.92204999924","3039.8654182","1.07795000076","3040.99499512","3042.11436915","3042.16276813","3045.16375899","0","3045.17987299","3047.44450212",""
"sujeto_0067839","1","4","6","102","3047.58108711","inverse","1","1","3","¿A cuántos centímetros
equivale la medida pié?","25","30","","0","0","1","competitive","right","2.35326218605","3049.93438911","2.64673781395","3052.73692703","4.2254319191","3056.96239996","1.7745680809","3058.78765297","3059.82760811","3059.90508413","3062.90776205","0","3062.9217732","3068.32273006",""
"sujeto_0067839","1","4","7","103","3068.47353315","direct","2","1","2","¿Qué departamento es mas grande?","Cerro Largo","Paysandú","","0","0","0","competitive","left","3.98888301849","3072.46246314","1.01111698151","3073.63084698","4.34850692749","3077.97939515","1.65149307251","3079.66520619","3081.26373696","3081.33303118","3084.33603907","0","3084.35002398","3088.46001697",""
"sujeto_0067839","1","4","8","104","3088.60087013","inverse","2","1","3","¿Quién pintó la Mona Lisa?","Picasso","Da Vinci","right","0","0","1","competitive","left","2.48147702217","3091.082412","2.51852297783","3093.77133203","3.59797096252","3097.36934018","2.40202903748","3099.80880117","3101.41462302","3101.49260998","3104.49559402","0","3104.51071715","3106.67174506",""
"sujeto_0067839","1","4","9","105","3106.82858706","direct","4","1","3","¿Cuántos litros hay en un galon?","3.54","3.78","","1","1","1","individual","right","3.43813085556","3110.266783","1.56186914444","3111.98273301","3.20266509056","3115.18546009","2.79733490944","3118.03368902","3119.55153108","3119.60186505","3122.60483408","1","3122.61885715","3128.41122913",""
"sujeto_0067839","1","4","10","106","3128.55485415","inverse","4","1","1","¿Cuántas teclas tiene
 un piano moderno?","80","88","","0","0","1","individual","left","2.1695830822","3130.72447896","2.8304169178","3133.71125412","4.69208216667","3138.40337515","1.30791783333","3139.74607706","3140.75454402","3140.7969451","3143.79974914","0","3143.81371713","3150.60737514",""
"sujeto_0067839","1","4","11","107","3150.74839306","direct","4","1","3","¿Cuántos países hay en África?","54","62","","0","0","1","competitive","left","3.24901795387","3153.99745417","1.75098204613","3155.92285299","3.78646302223","3159.70935416","2.21353697777","3161.97428799","3163.66372609","3163.74178505","3166.74474597","0","3166.7587111","3174.56340909",""
"sujeto_0067839","1","4","12","108","3174.73059702","inverse","1","1","3","¿En qué siglo se crearon
 las primeras pistolas?","XV","XIII","","1","1","1","competitive","left","1.33381485939","3176.06447816","3.66618514061","3179.88495111","5.09438300133","3184.97937703","0.905616998672","3185.92002797","3187.86794114","3187.95386505","3190.95685601","1","3190.97117519","3194.20377707",""
"sujeto_0067839","1","4","13","109","3194.35585499","direct","3","1","4","¿En qué año se estrenó 
la serie friends?","1994","1995","","0","0","1","competitive","right","1.39152503014","3195.74744701","3.60847496986","3199.51206899","4.3253390789","3203.83746815","1.6746609211","3205.54568601","3207.42100215","3207.496943","3210.49992299","0","3210.51459599","3215.52066207",""
"sujeto_0067839","1","4","14","110","3215.64955711","inverse","3","1","4","¿En qué año nació Hitler?","1889","1887","","0","0","1","individual","left","0.267963171005","3215.91760206","4.73203682899","3220.82151914","4.59388017654","3225.41544318","1.40611982346","3226.85640812","3227.97078109","3228.00745511","3231.00774097","0","3231.02471018","3236.05170918",""
"sujeto_0067839","1","4","15","111","3236.19328117","direct","1","1","4","¿Cuánto pesa un elefante Africano?","6000 kilos","5400 kilos","","0","0","0","competitive","right","1.64412307739","3237.83747506","3.35587692261","3241.36716318","3.59716892242","3244.96439004","2.40283107758","3247.41546607","3248.77136111","3248.84979701","3251.85278702","0","3251.86699009","3258.57406116",""
"sujeto_0067839","1","4","16","112","3258.71898699","inverse","1","1","2","¿Qué porcentaje de 
la población es zurda?","10%","7%","","1","1","0","competitive","left","2.35240197182","3261.07146001","2.64759802818","3263.87755203","3.67379498482","3267.55141401","2.32620501518","3269.9294591","3271.17252612","3271.24692512","3274.24992108","1","3274.26436996","3280.244138",""
"sujeto_0067839","1","4","17","113","3280.38254619","direct","1","1","2","¿En qué año se estrenó
Volver al futuro?","1984","1985","","0","0","1","competitive","right","1.94291496277","3282.32556701","3.05708503723","3285.53977919","3.60560011864","3289.14542007","2.39439988136","3291.59067798","3293.1517601","3293.22432113","3296.22727013","0","3296.24244714","3303.33389807",""
"sujeto_0067839","1","4","18","114","3303.49303317","inverse","3","1","2","¿Cuántos jugadores hay en un 
equipo de baseball?","9","8","","1","1","0","individual","right","2.91036105156","3306.40346003","2.08963894844","3308.65079498","3.79654502869","3312.44737697","2.20345497131","3314.68556499","3316.2997241","3316.33686018","3319.33974814","1","3319.35373998","3324.33098197",""
"sujeto_0067839","1","4","19","115","3324.45627403","direct","2","1","1","¿Cuántos Oscar ganó
 la película titanic?","13","11","","1","1","1","individual","right","2.48915600777","3326.94549513","2.51084399223","3329.62612319","3.46227502823","3333.08843708","2.53772497177","3335.66263914","3336.96371508","3337.0147841","3340.01575613","1","3340.03156805","3344.63424706",""
"sujeto_0067839","1","4","20","116","3344.78303814","inverse","4","1","4","¿En qué año comenzó
la segunda guerra mundial?","1939","1976","left","0","0","1","competitive","left","1.39639496803","3346.17947817","3.60360503197","3349.956146","3.5023419857","3353.45854998","2.4976580143","3356.00684714","3357.80667615","3357.89150906","3360.89446807","1","3360.90856099","3364.8956871",""
"sujeto_0067839","1","4","21","117","3365.06026506","direct","2","1","4","¿Cuántos biomas hay en Uruguay?","5","4","","0","0","1","competitive","right","1.88055086136","3366.94089818","3.11944913864","3370.23180103","3.21759700775","3373.44943905","2.78240299225","3376.26707315","3378.06371808","3378.13457608","3381.13750911","0","3381.15267301","3387.40208697",""
"sujeto_0067839","1","4","22","118","3387.53754997","inverse","2","1","3","¿Cuándo murió Pablo Escobar?","1993","1997","","1","1","1","competitive","left","2.58685493469","3390.12444806","2.41314506531","3392.6939671","3.13643121719","3395.83043909","2.86356878281","3398.74499702","3400.52773619","3400.59685397","3403.59984612","1","3403.61368799","3409.31730008",""
"sujeto_0067839","1","4","23","119","3409.4488802","direct","1","1","4","¿Qué serie ha ganado mas premios?","Friends","Murphy Brown","","1","1","0","competitive","left","1.287525177","3410.73645711","3.712474823","3414.62217617","3.86222410202","3418.48446107","2.13777589798","3420.65672898","3422.00914598","3422.09152699","3425.09447002","1","3425.10849118","3430.670156",""
"sujeto_0067839","1","4","24","120","3430.82687998","inverse","4","1","2","¿Cuántas fichas tiene el dominó?","26","28","","1","1","1","individual","right","2.20258688927","3433.02953005","2.79741311073","3435.98668504","3.99370193481","3439.98042607","2.00629806519","3442.01559615","3443.07090998","3443.11643314","3446.11935306","1","3446.13448715","3451.37754607",""
"sujeto_0067839","1","4","25","121","3451.51894999","direct","2","1","4","¿Cuántos son los dientes de leche?","20","25","","0","0","1","competitive","left","1.67245388031","3453.19144702","3.32754611969","3456.67744899","3.02086806297","3459.6983521","2.97913193703","3462.72770309","3464.43805909","3464.51280713","3467.51577497","0","3467.53001213","3469.67570615",""
"sujeto_0067839","1","4","26","122","3469.81529403","inverse","3","1","3","¿Cuántos gramos son una onza?","22","28","","0","0","1","competitive","left","2.28420090675","3472.09954405","2.71579909325","3474.95352101","3.09493708611","3478.04849911","2.90506291389","3480.987993","3482.98284602","3483.05548","3486.05842113","0","3486.07327104","3492.35974312",""
"sujeto_0067839","1","4","27","123","3492.49170613","direct","3","1","1","¿Cuándo salió el primer album
 de los Beatles?","1963","1962","","1","1","1","individual","left","2.05874800682","3494.5505271","2.94125199318","3497.64834309","3.50112295151","3501.14952612","2.49887704849","3503.69690204","3504.85975909","3504.89933014","3507.90228605","1","3507.91540003","3511.68741608",""
"sujeto_0067839","1","4","28","124","3511.83375502","inverse","3","1","3","¿Quién fundó la empresa apple?","Carlos Slim","Steve Jobs","","1","1","1","individual","right","3.71567201614","3515.54947209","1.28432798386","3516.99231815","3.08911108971","3520.08149219","2.91088891029","3523.04236007","3524.15704417","3524.19442701","3527.19734502","1","3527.21142697","3533.50926709",""
"sujeto_0067839","1","4","29","125","3533.65987515","direct","4","1","2","¿Cuántos municipios hay
 en Montevideo?","8","7","","1","1","1","individual","left","3.27356100082","3536.93350005","1.72643899918","3538.81982517","3.41254401207","3542.23240709","2.58745598793","3544.85403419","3546.76879215","3546.804919","3549.80773902","1","3549.8230722","3551.90426397",""
"sujeto_0067839","1","4","30","126","3552.04106498","inverse","1","1","1","¿Cuántos kilómetros hay
 de Montevideo a Artigas?","632","599","","0","0","0","individual","left","1.33433890343","3553.37545514","3.66566109657","3557.21233106","3.65908503532","3560.87147999","2.34091496468","3563.24596119","3564.72912002","3564.78121901","3567.78418517","0","3567.79806519","3573.85018015",""
"sujeto_0067839","1","4","31","127","3573.98326898","direct","2","1","2","¿En qué año nació 
Leonardo Da Vinci?","1452","1511","","1","1","0","competitive","left","3.55318689346","3577.53649902","1.44681310654","3579.13706303","4.79741501808","3583.93454099","1.20258498192","3585.17337203","3587.02699018","3587.1073091","3590.11026311","1","3590.12446213","3593.27087402",""
"sujeto_0067839","1","4","32","128","3593.40956712","inverse","3","1","1","¿A qué continente
 pertenece el país Gabón?","Africa","Oceanía","","0","0","1","individual","right","3.76281094551","3597.17242312","1.23718905449","3598.56731915","3.77207016945","3602.33942604","2.22792983055","3604.61764717","3606.42772698","3606.47007799","3609.47305799","0","3609.48633409","3614.72424912",""
