"code","nro_aplicante","nro_bloque","nro_trial_bloque","nro_trial_global","show_game_type","choice_order","rival","pay_individual","pay_competitive","question","answer_left_text","answer_right_text","correct_answer","outcome_individual","outcome_competitive","outcome_rival","game_type","answer","social_time","rt_game_type","feedback_delay","show_question","answer_time","rt_answer_global","feedback_delay_2","show_jitter","jitter_time","show_outcome","outcome_time","outcome_participant_real","show_final_jitter","second_jitter_time","inicio_descanso"
"sujeto_dcc3c5a9","1","1","1","1","614.927949905","direct","3","1","4","¿Cuántos centímetros corresponden
al talle 36 del calzado?","23","24","","0","0","1","individual","left","3.30925297737","618.237263918","1.69074702263","620.083876133","4.66043901443","624.744355917","1.33956098557","626.118263006","627.146558046","627.186064959","630.189039946","0","630.202985048","632.365509033",""
"sujeto_dcc3c5a9","1","1","2","2","632.505883932","inverse","3","1","2","¿Cuántas metros mide la Intendencia
Municipal de Montevideo? ","84","78","","0","0","1","competitive","left","2.97863912582","635.484616041","2.02136087418","637.655870914","3.3817050457","641.037638903","2.6182949543","643.693830967","645.571873903","645.64567399","648.648643017","0","648.662931919","650.755669117",""
"sujeto_dcc3c5a9","1","1","3","3","650.880887032","direct","1","1","3","¿Cuántas La Pasiva
 hay en uruguay?","15","11","","1","1","1","competitive","left","2.91890382767","653.799890041","2.08109617233","656.036133051","3.60376787186","659.639967918","2.39623212814","662.086945057","663.698627949","663.772511959","666.775483131","1","666.789384127","671.067728996",""
"sujeto_dcc3c5a9","1","1","4","4","671.204961061","inverse","3","1","3","¿De que color es la camiseta de uruguay?","blanca","celeste","right","1","1","1","individual","right","2.49514317513","673.700169086","2.50485682487","676.361393929","3.3667910099","679.728246927","2.6332089901","682.398082972","683.602823973","683.648838043","686.65181613","1","686.666712046","690.119400024",""
"sujeto_dcc3c5a9","1","1","5","5","690.251401901","direct","2","1","1","¿Cuánto metros mide
la torre Eiffel?","333","324","","1","1","1","competitive","left","3.07102394104","693.322470903","1.92897605896","695.389677048","2.73479104042","698.124535084","3.26520895958","701.440587997","702.961946964","703.04260397","706.045578003","1","706.059919119","713.096592903",""
"sujeto_dcc3c5a9","1","1","6","6","713.231981039","inverse","3","1","4","¿Cuantas ciudades existen
 en todo el uruguay?","63","72","","0","0","1","competitive","right","2.44480490685","715.676858902","2.55519509315","718.386121035","2.98573899269","721.371901989","3.01426100731","724.436831951","725.49142909","725.571294069","728.574299097","0","728.588434935","736.214987993",""
"sujeto_dcc3c5a9","1","1","7","7","736.360496044","direct","1","1","1","¿Cuantos estados tiene África?","52","54","","1","1","0","competitive","left","2.10311818123","738.463656902","2.89688181877","741.515120983","4.23816180229","745.753322124","1.76183819771","747.566852093","749.430854082","749.500241995","752.503197908","1","752.5182271","758.279249907",""
"sujeto_dcc3c5a9","1","1","8","8","758.421842098","inverse","4","1","4","¿En qué año nació
 Stephen Hawking?","1952","1942","","0","0","1","competitive","left","2.37373590469","760.795691013","2.62626409531","763.606382132","3.49433708191","767.100778103","2.50566291809","769.6429739","771.087263107","771.161677122","774.164617062","0","774.178918123","780.278280973",""
"sujeto_dcc3c5a9","1","1","9","9","780.416372061","direct","2","1","3","¿Cuánto años tenía Artigas
 cuando se fue a Paraguay?","56","57","","1","1","1","individual","left","2.72856807709","783.145004988","2.27143192291","785.570095062","3.42895913124","788.999098063","2.57104086876","791.604936123","793.154452085","793.190638065","796.193604946","1","796.206852913","802.25416398",""
"sujeto_dcc3c5a9","1","1","10","10","802.394823074","inverse","1","1","2","¿Cuantos milímetros 
mide una hoja A2?","420x592","420x594","","0","0","1","competitive","left","2.1005821228","804.495469093","2.8994178772","807.548941135","5.23650312424","812.785484076","0.763496875763","813.601810932","815.170269966","815.252473116","818.255465031","0","818.269663095","825.343296051",""
"sujeto_dcc3c5a9","1","1","11","11","825.474586964","direct","3","1","3","¿Cuál es la menor temperatura 
registrada en Uruguay?","-5.4","-7.4","","0","0","1","competitive","left","1.53923392296","827.013885021","3.46076607704","830.612533092","4.23227405548","834.844841003","1.76772594452","836.662883997","838.344872952","838.414806128","841.415421963","0","841.431613922","845.164911032",""
"sujeto_dcc3c5a9","1","1","12","12","845.299998999","inverse","2","1","2","¿Cuantos años hace que 
se fundó facebook?","18","17","","0","0","0","competitive","right","2.56313085556","847.863193989","2.43686914444","850.454654932","3.56162905693","854.016324997","2.43837094307","856.490251064","857.862982035","857.942341089","860.945297003","0","860.959289074","863.733947039",""
"sujeto_dcc3c5a9","1","1","13","13","863.873507977","direct","1","1","4","¿Cuál animal es más
 pesado en promedio?","Rinoceronte","Hipopotamo","","0","0","0","competitive","right","2.5709798336","866.444551945","2.4290201664","869.046589136","3.94502592087","872.991652966","2.05497407913","875.083478928","876.162722111","876.235235929","879.238228083","0","879.251642942","883.092643976",""
"sujeto_dcc3c5a9","1","1","14","14","883.272426128","inverse","1","1","2","¿Qué personaje de dragon ball 
murió más veces?","Chaoz","Krillin","","1","1","0","competitive","left","1.83343791962","885.10591197","3.16656208038","888.44255805","3.42447900772","891.867101908","2.57552099228","894.49387598","895.951705933","896.027740002","899.030723095","1","899.04527092","906.818175077",""
"sujeto_dcc3c5a9","1","1","15","15","906.967061043","direct","3","1","2","La universidad de oxford. 
existe desde:","1096","1249","","1","1","0","competitive","right","2.10036611557","909.067492008","2.89963388443","912.121279001","3.92618584633","916.047508955","2.07381415367","918.155962944","919.204771042","919.289897919","922.291420937","1","922.307532072","928.998368025",""
"sujeto_dcc3c5a9","1","1","16","16","929.142435074","inverse","3","1","1","¿Qué escritor latino ganó antes
 el premio nobel?"," García Marquez","Neruda","","0","0","1","competitive","","2.4763481617","931.618844032","2.5236518383","934.300667048","6","940.300795078","0","940.319576979","942.05953002","942.136645079","945.139624119","0","945.154079914","948.614608049",""
"sujeto_dcc3c5a9","1","1","17","17","948.75800395","direct","4","1","3","¿Cuántos dientes tiene un
 tiburón blanco?","6000","3000","","0","0","1","individual","right","2.77214503288","951.530220032","2.22785496712","953.926641941","4.4176170826","958.344298124","1.5823829174","959.978521109","961.017482996","961.062948942","964.063405991","0","964.080724001","968.890358925",""
"sujeto_dcc3c5a9","1","1","18","18","969.034544945","inverse","4","1","1","¿Cuánto mide el paralelo Ecuador?","40.000km","70.000km","","0","0","1","individual","right","2.72101593018","971.75562501","2.27898406982","974.202060938","3.23558592796","977.437701941","2.76441407204","980.239799023","982.195414066","982.241315126","985.244285107","0","985.259061098","988.861654043",""
"sujeto_dcc3c5a9","1","1","19","19","989.012085915","direct","4","1","2","¿Cuál fue el primer libro 
de Stephen King?","Carrie","The Stand","","1","1","1","competitive","right","2.46589303017","991.478051901","2.53410696983","994.163336992","3.80370783806","997.967103004","2.19629216194","1000.21769905","1001.96172595","1002.03559709","1005.03855896","1","1005.05257297","1009.52702999",""
"sujeto_dcc3c5a9","1","1","20","20","1009.67136812","inverse","2","1","3","¿Qué civilización practicaba
 la momificación?","Grecia","Egipto","right","0","0","1","competitive","right","2.34502506256","1012.01645708","2.65497493744","1014.82746601","4.01808595657","1018.84561706","1.98191404343","1020.878124","1022.81738901","1022.89567709","1025.89864993","1","1025.91288996","1030.14166713",""
"sujeto_dcc3c5a9","1","1","21","21","1030.28217101","direct","4","1","4","¿Cuántos millones de visitas
 recibe google por minuto?","3.0","4.5","","0","0","1","individual","right","2.22664690018","1032.50886011","2.77335309982","1035.43868709","3.96224713326","1039.40099406","2.03775286674","1041.47329497","1042.98737907","1043.02365398","1046.02661991","0","1046.041924","1053.16457796",""
"sujeto_dcc3c5a9","1","1","22","22","1053.29668999","inverse","1","1","3","La máquina de fax. se inventó en:","1843","1960","","0","0","1","competitive","left","2.11559700966","1055.41232991","2.88440299034","1058.44968295","3.79976296425","1062.24950504","2.20023703575","1064.48464513","1065.72672009","1065.8028121","1068.8057971","0","1068.81994605","1072.05624795",""
"sujeto_dcc3c5a9","1","1","23","23","1072.18943191","direct","2","1","4","En la verdadera historia de los
 300 espartanos. habían:","300 soldados","4300 soldados","","1","1","1","competitive","left","1.88025593758","1074.0697329","3.11974406242","1077.36046195","3.95837807655","1081.31890011","2.04162192345","1083.39467096","1084.65538406","1084.72928691","1087.73140192","1","1087.74637604","1091.5474031",""
"sujeto_dcc3c5a9","1","1","24","24","1091.69874191","inverse","1","1","4","¿Cuántos milímetros crece
 el pelo por día?","0.4","0.04","","0","0","0","competitive","right","1.58430504799","1093.28309202","3.41569495201","1096.83606696","4.13310003281","1100.96922493","1.86689996719","1102.88701296","1104.64739108","1104.72128892","1107.72341514","0","1107.73860908","1114.471385",""
"sujeto_dcc3c5a9","1","1","25","25","1114.60734296","direct","4","1","1","¿Cuánto mide la baldosa gris 
clásica de Montevideo?","22x22 cm.","20x20 cm.","","1","1","1","individual","right","4.41428589821","1119.02167392","0.585714101791","1119.76549292","4.23623609543","1124.00177002","1.76376390457","1125.81860709","1127.81386113","1127.85224295","1130.85520911","1","1130.8704741","1136.4132731",""
"sujeto_dcc3c5a9","1","1","26","26","1136.53817511","inverse","2","1","2","¿Cuántas películas de rápidos
 y furiosos hay?","10","11","","1","1","0","competitive","left","1.41785001755","1137.95608592","3.58214998245","1141.69456792","4.56360292435","1146.25822997","1.43639707565","1147.72995996","1149.08799791","1149.16392899","1152.16690898","1","1152.18116403","1154.21542811",""
"sujeto_dcc3c5a9","1","1","27","27","1154.36218095","direct","3","1","1","¿Cuántos masters 1000
 ganó Del Potro?","1","2","","1","1","1","competitive","right","2.01528096199","1156.37751698","2.98471903801","1159.53915501","3.50432682037","1163.04352498","2.49567317963","1165.58657813","1167.3411901","1167.42086697","1170.42383409","1","1170.43862891","1177.83498502",""
"sujeto_dcc3c5a9","1","1","28","28","1177.99407291","inverse","2","1","4","¿Cuántos meses dura el 
embarazo de una leona?","3 meses","4 meses","","0","0","1","competitive","right","2.44380688667","1180.43797803","2.55619311333","1183.14550591","4.16841316223","1187.31395698","1.83158683777","1189.19924212","1190.31031394","1190.383358","1193.38632512","0","1193.40053105","1200.12298298",""
"sujeto_dcc3c5a9","1","1","29","29","1200.26085901","direct","1","1","1","¿En qué año fue creado
 el sandwich?","1762","1653","","1","1","0","competitive","left","1.73350286484","1201.99441099","3.26649713516","1205.39635396","4.18014097214","1209.57656097","1.81985902786","1211.43042111","1213.02895403","1213.09850097","1216.10145712","1","1216.11505604","1219.58567595",""
"sujeto_dcc3c5a9","1","1","30","30","1219.75128007","inverse","4","1","2","El nombre de la moneda de Vietnam es:","Dinar","Dong","","0","0","1","competitive","left","1.57444310188","1221.32577109","3.42555689812","1224.90601206","4.80687904358","1229.71295595","1.19312095642","1230.94078398","1232.37279296","1232.45776606","1235.45944405","0","1235.47505713","1241.64349604",""
"sujeto_dcc3c5a9","1","1","31","31","1241.77782893","direct","2","1","1","¿cuantos aleteos puede dar 
un colibrí por segundo?","120","50","","0","0","0","competitive","left","2.32934093475","1244.10721397","2.67065906525","1246.93484211","4.7072930336","1251.64220595","1.2927069664","1252.98671198","1254.71910191","1254.80346799","1257.80644298","0","1257.82091093","1262.03232098",""
"sujeto_dcc3c5a9","1","1","32","32","1262.17089701","inverse","4","1","3","¿Qué altura promedio tienen
 los hombres uruguayos?","1.73 m","1.72 m","","1","1","1","competitive","left","1.53106093407","1263.70200109","3.46893906593","1267.32671809","3.01318001747","1270.33993697","2.98681998253","1273.37660193","1274.639009","1274.70951605","1277.71249199","1","1277.72681212","1282.20272708",""
"sujeto_dcc3c5a9","1","2","1","33","1406.06197405","direct","1","1","1","¿En qué año nació 
el actor Bradd Pitt?","1967","1963","","1","1","1","individual","right","2.77534008026","1408.83740091","2.22465991974","1411.21798611","3.02228808403","1414.24032998","2.97771191597","1417.26884913","1418.36471391","1418.40442705","1421.40736103","1","1421.42129707","1427.34888792","1282.21420407"
"sujeto_dcc3c5a9","1","2","2","34","1427.49265099","inverse","2","1","1","¿Cual es el segundo 
monte más alto?","Kanchenjunga","K2","","1","1","1","competitive","left","2.15559792519","1429.64831996","2.84440207481","1432.64592791","4.14432907104","1436.7903161","1.85567092896","1438.68046594","1440.13286805","1440.21498203","1443.21796608","1","1443.23222995","1446.66210508",""
"sujeto_dcc3c5a9","1","2","3","35","1446.80207491","direct","3","1","1","¿Cuándo finalizó la construcción
 del Palacio Legislativo?","1925","1917","","0","0","1","competitive","left","2.16321492195","1448.96539497","2.83678507805","1451.97296906","4.11420321465","1456.08721304","1.88579678535","1458.00782108","1459.64950013","1459.72429991","1462.72728109","0","1462.74197412","1468.43952012",""
"sujeto_dcc3c5a9","1","2","4","36","1468.57748294","inverse","3","1","3","¿Cuántos integrantes tenía
 en su inicio  el cuarteto de nos?","3","4","","1","1","1","competitive","left","1.07685089111","1469.65437698","3.92314910889","1473.71621704","3.17001581192","1476.886271","2.82998418808","1479.76750708","1480.90060592","1480.98587704","1483.98885512","1","1484.00228691","1489.65207005",""
"sujeto_dcc3c5a9","1","2","5","37","1489.79110408","direct","2","1","3","¿Qué valor tiene el número pi?","3.14","4.18","left","0","0","1","competitive","left","2.82718801498","1492.61834002","2.17281198502","1494.94053411","2.80075216293","1497.74135494","3.19924783707","1500.99300504","1502.44721699","1502.52758598","1505.53052592","1","1505.54522109","1512.46337199",""
"sujeto_dcc3c5a9","1","2","6","38","1512.59625006","inverse","2","1","2","¿Cuál es la esperanza de vida
 en Uruguay?","75","77","","1","1","0","competitive","right","1.26208615303","1513.85839701","3.73791384697","1517.74003696","4.01025390625","1521.75034904","1.98974609375","1523.77366304","1525.42740703","1525.50845313","1528.51144314","1","1528.52564096","1534.98867106",""
"sujeto_dcc3c5a9","1","2","7","39","1535.13023305","direct","1","1","2","¿Cuantos pisos tiene la torre 
de las comunicaciones?","26","32","","1","1","0","competitive","left","2.82812404633","1537.95843101","2.17187595367","1540.29954696","3.948802948","1544.24840999","2.051197052","1546.3358531","1548.16464996","1548.23751593","1551.23940301","1","1551.25474","1553.40095091",""
"sujeto_dcc3c5a9","1","2","8","40","1553.55584407","inverse","2","1","4","¿En qué país sudamericano 
no hay McDonalds?","Bolivia","Venezuela","","0","0","1","competitive","left","2.07661581039","1555.63253093","2.92338418961","1558.71117401","5.15024590492","1563.86145711","0.849754095078","1564.76310396","1566.07245708","1566.14620495","1569.14921308","0","1569.16356397","1575.52329111",""
"sujeto_dcc3c5a9","1","2","9","41","1575.66098595","direct","3","1","1","¿En qué año empieza
 la Edad Media?","476","512","","1","1","1","competitive","left","1.98656105995","1577.6476109","3.01343894005","1580.8396771","3.33182001114","1584.17153597","2.66817998886","1586.88928795","1588.2930541","1588.37383008","1591.37677693","1","1591.39109206","1594.37939405",""
"sujeto_dcc3c5a9","1","2","10","42","1594.51277804","inverse","3","1","4","¿Hace cuántos años surgió
 el ser humano?","200mil","300mil","","0","0","0","competitive","right","1.53574299812","1596.04857802","3.46425700188","1599.64877391","4.40981411934","1604.05865097","1.59018588066","1605.68314099","1607.56916714","1607.65076303","1610.65374398","0","1610.6680541","1613.97850394",""
"sujeto_dcc3c5a9","1","2","11","43","1614.12164807","direct","3","1","4","¿Cuántas cuadras tiene
 actualmente 18 de julio? ","36","33","","0","0","1","individual","left","1.65407204628","1615.77576399","3.34592795372","1619.25924492","3.02246308327","1622.28175211","2.97753691673","1625.30932593","1627.01143003","1627.06088209","1630.06385303","0","1630.07841802","1634.80468202",""
"sujeto_dcc3c5a9","1","2","12","44","1634.94213796","inverse","1","1","4","¿Qué juego de equipo se 
considera mas rápido?","Lacrosse","Badminton","","0","0","0","competitive","left","2.5236389637","1637.46582007","2.4763610363","1640.11744714","3.88333106041","1644.0008409","2.11666893959","1646.15486097","1647.39797807","1647.47284293","1650.47580194","0","1650.48972511","1658.48485708",""
"sujeto_dcc3c5a9","1","2","13","45","1658.62850595","direct","1","1","3","¿Qué promedio de edad 
vive una jirafa? ","25","20","","0","0","1","individual","left","2.55439305305","1661.18294811","2.44560694695","1663.79395008","3.34501004219","1667.13900304","2.65498995781","1669.83026695","1671.59177804","1671.63164401","1674.63461399","0","1674.64895892","1680.60468102",""
"sujeto_dcc3c5a9","1","2","14","46","1680.73380709","inverse","1","1","2","¿Cuántos grandes lagos hay?","7","5","","0","0","1","individual","right","2.22428703308","1682.95813799","2.77571296692","1685.89258504","3.54549193382","1689.43814397","2.45450806618","1691.92788792","1693.21947694","1693.26291704","1696.2659049","0","1696.28008008","1704.10146093",""
"sujeto_dcc3c5a9","1","2","15","47","1704.23508811","direct","3","1","2","¿Cuántos discos de estudio
 grabó Johhny Cash? ","54","43","","1","1","0","competitive","right","1.96921801567","1706.20438099","3.03078198433","1709.40498996","3.6603140831","1713.06534505","2.3396859169","1715.44072104","1716.71932793","1716.79180193","1719.79477906","1","1719.80891395","1726.45937204",""
"sujeto_dcc3c5a9","1","2","16","48","1726.59736013","inverse","4","1","1","¿Cuántos barrios tiene
 Montevideo? ","71","62","","0","0","1","competitive","right","1.67810606956","1728.27551103","3.32189393044","1731.75089097","2.21951293945","1733.97046113","3.78048706055","1737.80112696","1738.80823994","1738.88653994","1741.88739109","0","1741.90338707","1747.36341405",""
"sujeto_dcc3c5a9","1","2","17","49","1747.52207494","direct","3","1","3","¿Qué edad tiene Homero Simpson?","36","42","","0","0","1","competitive","left","1.52748012543","1749.04961705","3.47251987457","1752.66195107","0.0276491641998","1752.68963814","5.9723508358","1758.7093451","1760.08538795","1760.16208601","1763.1634829","0","1763.17974591","1767.56749392",""
"sujeto_dcc3c5a9","1","2","18","50","1767.69767308","inverse","4","1","2","¿Cuántos países con monarquía 
hay en europa actualmente? ","6","10","","1","1","1","competitive","left","1.40405297279","1769.101789","3.59594702721","1772.85521412","3.71654510498","1776.57181907","2.28345489502","1778.90601802","1780.34432292","1780.42432809","1783.42734003","1","1783.44158411","1789.59840202",""
"sujeto_dcc3c5a9","1","2","19","51","1789.72985911","direct","2","1","3","¿Cuántos capítulos de
 Friends existen? ","236","228","","1","1","1","competitive","left","1.96111106873","1791.69102001","3.03888893127","1794.89909101","3.74081802368","1798.63995099","2.25918197632","1800.95188904","1802.25746202","1802.3368361","1805.33987904","1","1805.35304809","1807.72868109",""
"sujeto_dcc3c5a9","1","2","20","52","1807.87158203","inverse","1","1","3","¿Cuántas óperas compuso Mozart? ","27","22","","1","1","1","individual","right","1.95858097076","1809.8302331","3.04141902924","1813.04250813","3.98960709572","1817.03215694","2.01039290428","1819.094908","1820.38704395","1820.42956305","1823.432549","1","1823.446172","1830.75764894",""
"sujeto_dcc3c5a9","1","2","21","53","1830.9000349","direct","4","1","3","¿Cuántos mundiales de fútbol 
femenino ha realizado FIFA? ","9","7","","1","1","1","competitive","right","3.14230513573","1834.04238105","1.85769486427","1836.05448508","5.10287618637","1841.15740013","0.897123813629","1842.10560012","1843.34926391","1843.42339993","1846.42634892","1","1846.43970299","1852.54218411",""
"sujeto_dcc3c5a9","1","2","22","54","1852.67662597","inverse","3","1","2","¿Cuál es la temperatura 
media anual en Montevideo? ","17.5","16.3","","0","0","1","competitive","left","1.80790305138","1854.48459196","3.19209694862","1857.83358097","2.74203801155","1860.57565808","3.25796198845","1863.88413405","1865.822716","1865.90233493","1868.90532207","0","1868.91981602","1875.48744202",""
"sujeto_dcc3c5a9","1","2","23","55","1875.60499406","direct","2","1","2","¿En qué año se estrenó el
 videojuego The Sims? ","2000","2002","","0","0","0","competitive","right","1.55373501778","1877.15879393","3.44626498222","1880.76251197","3.5552778244","1884.31782794","2.4447221756","1886.81273293","1888.67472911","1888.74735498","1891.75030899","0","1891.76564097","1899.15929413",""
"sujeto_dcc3c5a9","1","2","24","56","1899.28373003","inverse","2","1","1","¿Cuál es la canción con 
mas covers? ","Yesterday","Stand by me","","0","0","0","individual","left","1.7211728096","1901.00496006","3.2788271904","1904.4239819","2.55105209351","1906.97509098","3.44894790649","1910.47460508","1911.87312913","1911.90981197","1914.91279101","0","1914.92690206","1919.09774113",""
"sujeto_dcc3c5a9","1","2","25","57","1919.22895193","direct","1","1","4","¿Cuánto duró la guerra
 de los 100 años?","116","123","","0","0","0","competitive","right","2.1542429924","1921.38326192","2.8457570076","1924.38566113","3.23766112328","1927.62339401","2.76233887672","1930.43585801","1931.91668391","1931.98799992","1934.99100494","0","1935.00516105","1937.32493997",""
"sujeto_dcc3c5a9","1","2","26","58","1937.4730711","inverse","4","1","4","¿Qué color tiene la  bandera de Brasil?","Amarillo","Naranja","left","0","0","1","competitive","left","1.3643579483","1938.83747506","3.6356420517","1942.6280241","4.09646701813","1946.72455502","1.90353298187","1948.67854095","1950.24506307","1950.33036208","1953.333359","1","1953.34766293","1956.38043904",""
"sujeto_dcc3c5a9","1","2","27","59","1956.53231812","direct","4","1","3","¿Qué carabela de 
Colon no volvió del viaje?","Santa María","La pinta","","0","0","1","competitive","right","2.35135006905","1958.8837111","2.64864993095","1961.70417213","5.35962200165","1967.06383491","0.640377998352","1967.74015808","1969.2312181","1969.30726004","1972.31026411","0","1972.32439399","1974.42386007",""
"sujeto_dcc3c5a9","1","2","28","60","1974.55899096","inverse","4","1","4","¿Cuántos huesos tiene
 un adulto humano?","217","206","","0","0","1","individual","right","1.31791186333","1975.87695003","3.68208813667","1979.71132112","3.15667581558","1982.86804414","2.84332418442","1985.76414108","1987.03518105","1987.08200407","1990.08495903","0","1990.09895396","1997.93666101",""
"sujeto_dcc3c5a9","1","2","29","61","1998.08467007","direct","1","1","1","¿Qué país africano fue 
fundado por esclavos?","Liberia","Chad","","0","0","0","individual","left","0.347438097","1998.43215299","4.652561903","2003.24275208","3.95048999786","2007.19328213","2.04951000214","2009.29408503","2011.285743","2011.32893491","2014.33189893","0","2014.34616113","2022.33541512",""
"sujeto_dcc3c5a9","1","2","30","62","2022.48090291","inverse","4","1","2","¿A cuánto asciende la cima
 del monte Everest?","7.990 mts","8.848 mts","","0","0","1","individual","left","1.35254406929","2023.83351111","3.64745593071","2027.63906813","4.45247602463","2032.09158397","1.54752397537","2033.69119596","2034.876055","2034.92422605","2037.92719507","0","2037.94145298","2045.12549591",""
"sujeto_dcc3c5a9","1","2","31","63","2045.29769301","direct","4","1","1","¿Cuál es el país mas chico?","Sealand","Luxemburgo","","1","1","1","individual","right","1.64100384712","2046.93874311","3.35899615288","2050.451823","3.96395897865","2054.41582608","2.03604102135","2056.50289297","2058.36642313","2058.40396404","2061.40688992","1","2061.42113495","2064.54343104",""
"sujeto_dcc3c5a9","1","2","32","64","2064.6783731","inverse","2","1","4","¿Cuántas pirámides hay en Egipto?","10000","11000","","1","1","1","competitive","left","1.22050499916","2065.8989141","3.77949500084","2069.828228","2.8948059082","2072.72309804","3.1051940918","2075.86182094","2076.89542913","2076.98041105","2079.9833951","1","2079.99738407","2085.10343909",""
"sujeto_dcc3c5a9","1","3","1","65","2226.90783","direct","2","1","2","¿Cuál es el quinto país con 
mas extensión?","Canadá","Brasil","","1","1","0","competitive","right","2.68033909798","2229.58821201","2.31966090202","2232.07693291","3.40230894089","2235.47928405","2.59769105911","2238.1278069","2239.46111608","2239.54662395","2242.54961014","1","2242.56389213","2250.29028606","2085.11434507"
"sujeto_dcc3c5a9","1","3","2","66","2250.43119001","inverse","1","1","2","¿Qué rasgo facial no tiene
 la Mona Lisa?","Cejas","Pómulos","","0","0","1","individual","right","1.48126101494","2251.91249609","3.51873898506","2255.57704496","4.96157598495","2260.53867912","1.03842401505","2261.61101413","2263.36143303","2263.41248608","2266.41547608","0","2266.42967796","2272.70101213",""
"sujeto_dcc3c5a9","1","3","3","67","2272.84832597","direct","4","1","3","¿Cuál es el país con 
mayor población?","Esados Unidos","China","right","0","0","1","individual","right","1.57240200043","2274.42076898","3.42759799957","2278.00575495","2.85115003586","2280.85694599","3.14884996414","2284.05549312","2285.70150805","2285.74077511","2288.74377012","1","2288.75817704","2292.12550592",""
"sujeto_dcc3c5a9","1","3","4","68","2292.25925207","inverse","1","1","1","La palabra dinosaurio significa","Lagarto Terrible","Lagarto Dragón","","1","1","0","individual","right","1.55688595772","2293.8161869","3.44311404228","2297.39923692","4.7299580574","2302.12923598","1.2700419426","2303.44998813","2304.62032413","2304.66700697","2307.66997409","1","2307.6848731","2310.54668999",""
"sujeto_dcc3c5a9","1","3","5","69","2310.68630195","direct","2","1","3","¿Qué es el membrillero?","Arbol","Arbusto","","0","0","0","competitive","left","1.34900593758","2312.03535891","3.65099406242","2315.8236661","5.54983520508","2321.37354493","0.450164794922","2321.87575912","2323.82987809","2323.90894604","2326.91193199","0","2326.92698812","2333.39101005",""
"sujeto_dcc3c5a9","1","3","6","70","2333.53008199","inverse","3","1","3","¿Alrededor de qué planeta orbita 
el satélite Europa?","Jupiter","Saturno","","1","1","1","competitive","left","1.72763490677","2335.25778008","3.27236509323","2338.68792605","5.4759311676","2344.16392493","0.524068832397","2344.72196102","2346.26675105","2346.35599709","2349.35897994","1","2349.37317896","2351.57834101",""
"sujeto_dcc3c5a9","1","3","7","71","2351.70868301","direct","3","1","1","¿Donde fue el mundial de 
fútbol de 1954?","Suiza","Suecia","","1","1","1","competitive","right","2.02438402176","2353.73312902","2.97561597824","2356.84649396","3.58462285995","2360.43118095","2.41537714005","2362.8975091","2364.15011191","2364.2322309","2367.23518109","1","2367.24932003","2371.16109896",""
"sujeto_dcc3c5a9","1","3","8","72","2371.30169296","inverse","1","1","4","¿Cuál de los 7 enanitos
no tenía barba?","Bashful","Mudito","","1","1","0","competitive","right","2.73664093018","2374.03840613","2.26335906982","2376.45379305","3.50756597519","2379.96139908","2.49243402481","2382.50850511","2384.08859706","2384.16017795","2387.16315699","1","2387.17698598","2392.10345507",""
"sujeto_dcc3c5a9","1","3","9","73","2392.24850297","direct","3","1","2","¿Cual red social es
mas utilizada mundialmente?","Instagram","Facebook","","1","1","0","competitive","right","1.73115205765","2393.97970104","3.26884794235","2397.40175104","3.39596199989","2400.7977519","2.60403800011","2403.45184994","2405.36923695","2405.45346212","2408.45543313","1","2408.47072601","2411.4052341",""
"sujeto_dcc3c5a9","1","3","10","74","2411.539891","inverse","4","1","1","¿Cuándo se inició la copa
 América de fútbol?","1916","1923","","1","1","1","competitive","left","1.33404898643","2412.87398195","3.66595101357","2416.69507504","3.79493689537","2420.49005103","2.20506310463","2422.72913909","2424.62657213","2424.69702005","2427.69998193","1","2427.71522307","2430.37136412",""
"sujeto_dcc3c5a9","1","3","11","75","2430.4992969","direct","3","1","4","¿Cuántos presidentes de EEUU
han muerto asesinados?","3","4","","0","0","1","competitive","left","1.14495110512","2431.64429593","3.85504889488","2435.65452504","4.07081079483","2439.72539496","1.92918920517","2441.70629907","2443.19023609","2443.27380204","2446.27543092","0","2446.29142308","2449.9355371",""
"sujeto_dcc3c5a9","1","3","12","76","2450.07659006","inverse","2","1","4","¿Cuántas veces participó EEUU
 en la copa América?","4","5","","0","0","1","competitive","left","1.19699001312","2451.27362514","3.80300998688","2455.2319591","4.30566811562","2459.53766513","1.69433188438","2461.28329802","2462.72744012","2462.80100203","2465.80398512","0","2465.81807995","2471.93526912",""
"sujeto_dcc3c5a9","1","3","13","77","2472.09011197","direct","4","1","1","¿Cuál de estos países 
no formaba la URSS?","Azeribayán","Afganistán","","0","0","1","competitive","left","1.53684806824","2473.62700605","3.46315193176","2477.26126313","4.71569800377","2481.97699594","1.28430199623","2483.31209397","2484.6251719","2484.696311","2487.6992631","0","2487.71346211","2495.69560909",""
"sujeto_dcc3c5a9","1","3","14","78","2495.83585501","inverse","1","1","1","¿En qué año se inauguró
 el teatro Solís?","1867","1856","","0","0","0","competitive","right","1.98846197128","2497.82436109","3.01153802872","2500.98872304","4.91967797279","2505.90846705","1.08032202721","2507.0417161","2508.098037","2508.17559314","2511.17852592","0","2511.1927309","2517.8405261",""
"sujeto_dcc3c5a9","1","3","15","79","2517.99450302","direct","1","1","4","¿A qué velocidad vuela 
el avión más rápido?","3529","3874","","0","0","0","competitive","right","2.90265202522","2520.89725709","2.09734797478","2523.16789007","3.76075315475","2526.92870498","2.23924684525","2529.20310903","2530.95861197","2531.03723192","2534.04021406","0","2534.0530889","2536.16337013",""
"sujeto_dcc3c5a9","1","3","16","80","2536.33776212","inverse","3","1","4","¿De qué año es la primer 
película cinematográfica?","1897","1888","","0","0","0","competitive","left","1.02410507202","2537.36191392","3.97589492798","2541.49513912","3.72886800766","2545.22404814","2.27113199234","2547.54489303","2548.67786813","2548.76382494","2551.76680398","0","2551.78090906","2557.19068193",""
"sujeto_dcc3c5a9","1","3","17","81","2557.36666298","direct","2","1","3","¿Cuántos países 
tiene nuestro planeta?","191","194","","1","1","1","competitive","right","1.53261685371","2558.89936495","3.46738314629","2562.52306199","4.64925694466","2567.17238307","1.35074305534","2568.57401395","2569.93119097","2570.00794911","2573.01093102","1","2573.02524805","2576.26352",""
"sujeto_dcc3c5a9","1","3","18","82","2576.41172099","inverse","2","1","2","¿Cuántos habitantes
 tiene Buenos Aires?","2.9000.000","3650000","","0","0","0","competitive","left","1.9009168148","2578.31268907","3.0990831852","2581.58050108","3.32111287117","2584.90165591","2.67888712883","2587.63339496","2589.03063202","2589.10160804","2592.10457802","0","2592.11868501","2597.94807005",""
"sujeto_dcc3c5a9","1","3","19","83","2598.07059598","direct","2","1","1","¿Cuántos kilos forman una tonelada?","1000","1500","left","1","1","1","competitive","left","1.40425801277","2599.47491908","3.59574198723","2603.22476792","3.73022794724","2606.95503092","2.26977205276","2609.26070404","2611.14739704","2611.22841311","2614.2313621","1","2614.24661207","2620.20403194",""
"sujeto_dcc3c5a9","1","3","20","84","2620.34822607","inverse","4","1","4","¿Cuántos estados tiene la 
República del Perú? ","24","23","","0","0","1","competitive","left","1.23010706902","2621.57838106","3.76989293098","2625.50640392","2.77799010277","2628.28445411","3.22200989723","2631.53902912","2632.56119204","2632.6412909","2635.64428997","0","2635.65857697","2640.60342693",""
"sujeto_dcc3c5a9","1","3","21","85","2640.74367309","direct","3","1","3","¿En qué año nació Cristóbal Colón? ","1451","1447","","0","0","1","competitive","right","1.21993517876","2641.96365499","3.78006482124","2645.88309097","3.12466406822","2649.0077939","2.87533593178","2651.93388391","2653.77979398","2653.84876704","2656.85145593","0","2656.863621","2661.09162211",""
"sujeto_dcc3c5a9","1","3","22","86","2661.24905896","inverse","4","1","4","¿Cuánto mide la 
Montaña Aconcagua? ","6234","6962","","0","0","1","competitive","left","0.984914064407","2662.23401809","4.01508593559","2666.39434004","3.05466890335","2669.44904804","2.94533109665","2672.4449501","2673.73426104","2673.8131361","2676.81539607","0","2676.83039594","2684.01405811",""
"sujeto_dcc3c5a9","1","3","23","87","2684.148844","direct","2","1","4","¿Cuánto mide el punto
 más profundo del océano? ","12508","11003","","0","0","1","individual","left","0.475455999374","2684.62434793","4.52454400063","2689.30350208","5.55092215538","2694.85446191","0.44907784462","2695.35716605","2696.60865808","2696.65688396","2699.65985298","0","2699.67482209","2703.88107204",""
"sujeto_dcc3c5a9","1","3","24","88","2704.02611208","inverse","1","1","3","¿Cuántos álbumes ha publicado 
el cantante Jaime Roos? ","41","34","","0","0","1","individual","right","1.12260603905","2705.14878106","3.87739396095","2709.1841011","3.66968607903","2712.85383105","2.33031392097","2715.23335314","2716.72319603","2716.76773","2719.77071691","0","2719.78506207","2725.98122597",""
"sujeto_dcc3c5a9","1","3","25","89","2726.15694904","direct","4","1","3","¿En qué año nació el 
ex-presidente Jorge Battle? ","1921","1927","","1","1","1","competitive","left","1.88115310669","2728.03821492","3.11884689331","2731.32869601","3.03839588165","2734.36715198","2.96160411835","2737.37951612","2739.11019611","2739.18145704","2742.18339992","1","2742.19871902","2745.68340206",""
"sujeto_dcc3c5a9","1","3","26","90","2745.81696296","inverse","1","1","3","¿Cuántas presidencias 
constitucionales  hubo en Uruguay? ","41","42","","0","0","1","competitive","right","2.10544800758","2747.92245603","2.89455199242","2750.98691106","4.96959209442","2755.9565661","1.03040790558","2757.04156995","2758.24536204","2758.32515097","2761.32744813","0","2761.34250093","2767.12614703",""
"sujeto_dcc3c5a9","1","3","27","91","2767.26046705","direct","1","1","2","¿Quién escribió mas sinfonías?","Mozart","Haydn","","1","1","0","competitive","right","1.99731707573","2769.2578311","3.00268292427","2772.41608906","2.36179709435","2774.77794909","3.63820290565","2778.451545","2779.66900802","2779.75351191","2782.75546002","1","2782.77050996","2786.51942706",""
"sujeto_dcc3c5a9","1","3","28","92","2786.67418504","inverse","4","1","2","¿En qué año nació Michael Jackson?","1958","1953","","1","1","1","competitive","left","1.64690113068","2788.32112694","3.35309886932","2791.82772803","2.51441287994","2794.34217691","3.48558712006","2797.87757111","2799.85581112","2799.94682407","2802.94981694","1","2802.96415091","2808.82647395",""
"sujeto_dcc3c5a9","1","3","29","93","2808.98180604","direct","3","1","2","¿En qué año entró en vigencia 
la ley antitabaco en Uruguay?","2005","2006","","1","1","1","competitive","left","2.30970096588","2811.291605","2.69029903412","2814.14002109","4.13257312775","2818.27263403","1.86742687225","2820.19101501","2821.78573012","2821.85892797","2824.85947895","1","2824.87564111","2830.20744801",""
"sujeto_dcc3c5a9","1","3","30","94","2830.34412694","inverse","3","1","1","¿Cuándo se subió el 
primer video a youtube?","2004","2005","","0","0","1","competitive","right","2.72176098824","2833.06598091","2.27823901176","2835.50068092","3.06730008125","2838.56804109","2.93269991875","2841.55140495","2842.85707712","2842.93659592","2845.93959498","0","2845.95360899","2853.70636606",""
"sujeto_dcc3c5a9","1","3","31","95","2853.83825111","direct","2","1","1","¿Cuántos habitantes tiene India?","1200 millones","1300 millones","","0","0","0","competitive","right","1.94903111458","2855.78735495","3.05096888542","2859.01378512","2.66757798195","2861.68142796","3.33242201805","2865.06289291","2867.0325141","2867.11414003","2870.11545897","0","2870.13177991","2876.17934299",""
"sujeto_dcc3c5a9","1","3","32","96","2876.33354807","inverse","4","1","2","¿A qué edad murió Bob Marley?","36","37","","0","0","1","competitive","right","1.03705906868","2877.37067103","3.96294093132","2881.475667","4.90006494522","2886.3757751","1.09993505478","2887.52696204","2889.42482996","2889.51037908","2892.51336908","0","2892.52769494","2895.6301651",""
"sujeto_dcc3c5a9","1","4","1","97","3018.27685714","direct","2","1","1","¿Cuantos años dirigió la selección 
uruguaya Tabarez?","15 años","13 años","","0","0","0","individual","left","1.76219701767","3020.03909492","3.23780298233","3023.41754103","3.64167284966","3027.05925107","2.35832715034","3029.45142913","3030.64256191","3030.68556094","3033.68741512","0","3033.70269895","3040.77139211","2895.64183593"
"sujeto_dcc3c5a9","1","4","2","98","3040.90462112","inverse","4","1","1","¿Cuantas teclas tiene un teclado 
de computadora generalmente? ","Entre 99 y 108","Entre 109 y 113","","1","1","1","competitive","left","1.5279109478","3042.43257713","3.4720890522","3046.06298399","5.31560778618","3051.37865591","0.684392213821","3052.11483908","3053.11760092","3053.19839311","3056.20137095","1","3056.21574497","3058.587183",""
"sujeto_dcc3c5a9","1","4","3","99","3058.76945496","direct","1","1","1","¿Cuál Departamento tiene
 mayor superficie?","Río Negro","Soriano","","0","0","0","individual","left","1.47337889671","3060.24290013","3.52662110329","3063.92228103","4.35159897804","3068.27391696","1.64840102196","3069.97388101","3071.68736196","3071.72407198","3074.72702193","0","3074.74219799","3079.06828809",""
"sujeto_dcc3c5a9","1","4","4","100","3079.19267702","inverse","3","1","2","¿Cuál es el apellido de las 
hermanastras  de  cenicienta?","Tremaine","Truman","","0","0","1","individual","","1.13553094864","3080.32825208","3.86446905136","3084.34659195","6","3090.34671998","0","3090.36353397","3092.23307896","3092.28366995","3095.28664994","0","3095.30090594","3097.9968729",""
"sujeto_dcc3c5a9","1","4","5","101","3098.13562799","direct","4","1","4","¿Cuál película ganó un
 Oscar a mejor película?","Alto Impacto","Cache","","0","0","1","individual","left","1.44687199593","3099.58256292","3.55312800407","3103.29343796","3.39817404747","3106.69167113","2.60182595253","3109.34393811","3110.46336794","3110.51189995","3113.51488304","0","3113.52922797","3115.793859",""
"sujeto_dcc3c5a9","1","4","6","102","3115.93046403","inverse","1","1","3","¿A cuántos centímetros
equivale la medida pié?","25","30","","0","0","1","competitive","left","0.546343803406","3116.47688198","4.45365619659","3121.08597207","3.52298116684","3124.60901093","2.47701883316","3127.13659","3128.17659402","3128.2553401","3131.25832295","0","3131.27230501","3136.67327809",""
"sujeto_dcc3c5a9","1","4","7","103","3136.81840706","direct","2","1","2","¿Qué departamento es mas grande?","Cerro Largo","Paysandú","","0","0","0","individual","right","0.559769153595","3137.37825108","4.44023084641","3141.96064305","3.38674116135","3145.34742594","2.61325883865","3148.01332808","3149.613096","3149.66541696","3152.66837096","0","3152.68233013","3156.7923069",""
"sujeto_dcc3c5a9","1","4","8","104","3156.93343496","inverse","2","1","3","¿Quién pintó la Mona Lisa?","Picasso","Da Vinci","right","0","0","1","competitive","right","1.42808008194","3158.36155701","3.57191991806","3162.09126496","3.22742795944","3165.31871605","2.77257204056","3168.12492299","3169.73073602","3169.80946302","3172.812433","1","3172.82777691","3174.99006009",""
"sujeto_dcc3c5a9","1","4","9","105","3175.12909007","direct","4","1","3","¿Cuántos litros hay en un galon?","3.54","3.78","","1","1","1","individual","right","1.36576104164","3176.49489403","3.63423895836","3180.30159497","3.40933394432","3183.71098804","2.59066605568","3186.33431411","3187.85219598","3187.90272593","3190.90567303","1","3190.92081308","3196.71314907",""
"sujeto_dcc3c5a9","1","4","10","106","3196.84957504","inverse","4","1","1","¿Cuántas teclas tiene
 un piano moderno?","80","88","","0","0","1","individual","left","0.632648944855","3197.48226905","4.36735105515","3202.01069999","4.05963397026","3206.07039213","1.94036602974","3208.04662108","3209.05511999","3209.09733796","3212.10028791","0","3212.11438608","3218.91214705",""
"sujeto_dcc3c5a9","1","4","11","107","3219.04883695","direct","4","1","3","¿Cuántos países hay en África?","54","62","","0","0","1","individual","left","0.425361871719","3219.47428513","4.57463812828","3224.22254896","3.13321685791","3227.35580897","2.86678314209","3230.27370095","3231.96425891","3232.00823712","3235.01120806","0","3235.0255239","3242.83029604",""
"sujeto_dcc3c5a9","1","4","12","108","3242.96115303","inverse","1","1","3","¿En qué siglo se crearon
 las primeras pistolas?","XV","XIII","","1","1","1","competitive","left","1.59391379356","3244.55511498","3.40608620644","3248.12090492","3.79128193855","3251.91225195","2.20871806145","3254.16980195","3256.11772394","3256.18723798","3259.19017196","1","3259.20450807","3262.437603",""
"sujeto_dcc3c5a9","1","4","13","109","3262.60850406","direct","3","1","4","¿En qué año se estrenó 
la serie friends?","1994","1995","","0","0","1","individual","right","0.466945886612","3263.07551503","4.53305411339","3267.78070903","3.23876094818","3271.01952696","2.76123905182","3273.83118701","3275.70645905","3275.74968505","3278.75265694","0","3278.7668891","3283.772964",""
"sujeto_dcc3c5a9","1","4","14","110","3283.91903591","inverse","3","1","4","¿En qué año nació Hitler?","1889","1887","","0","0","1","competitive","left","0.861747980118","3284.78084993","4.13825201988","3289.09186411","3.11893010139","3292.21083307","2.88106989861","3295.14185095","3296.25624013","3296.34349394","3299.34647298","0","3299.36071491","3304.387712",""
"sujeto_dcc3c5a9","1","4","15","111","3304.52920294","direct","1","1","4","¿Cuánto pesa un elefante Africano?","6000 kilos","5400 kilos","","0","0","0","individual","left","2.06493401527","3306.59418392","2.93506598473","3309.68546605","3.47822809219","3313.1637311","2.52177190781","3315.7328639","3317.08871794","3317.13456011","3320.13542008","0","3320.15172696","3326.85879302",""
"sujeto_dcc3c5a9","1","4","16","112","3326.98660111","inverse","1","1","2","¿Qué porcentaje de 
la población es zurda?","10%","7%","","1","1","0","individual","left","1.6155769825","3328.60222292","3.3844230175","3332.12971091","3.2781829834","3335.40795898","2.7218170166","3338.16302109","3339.40612602","3339.44768405","3342.45065403","1","3342.46493506","3348.44467211",""
"sujeto_dcc3c5a9","1","4","17","113","3348.6000421","direct","1","1","2","¿En qué año se estrenó
Volver al futuro?","1984","1985","","0","0","1","competitive","right","3.31918311119","3351.91928601","1.68081688881","3353.756109","2.45992898941","3356.21609712","3.54007101059","3359.80647111","3361.36830497","3361.44100213","3364.44396091","0","3364.45816493","3371.54957104",""
"sujeto_dcc3c5a9","1","4","18","114","3371.67736912","inverse","3","1","2","¿Cuántos jugadores hay en un 
equipo de baseball?","9","8","","1","1","0","competitive","left","0.169914960861","3371.84738803","4.83008503914","3376.83346105","3.89156723022","3380.72508407","2.10843276978","3382.86812901","3384.48234296","3384.55194902","3387.5548861","1","3387.56973696","3392.5434761",""
"sujeto_dcc3c5a9","1","4","19","115","3392.67067313","direct","2","1","1","¿Cuántos Oscar ganó
 la película titanic?","13","11","","1","1","1","competitive","right","2.03997206688","3394.71071196","2.96002793312","3397.82629704","3.16202783585","3400.98838902","2.83797216415","3403.86092401","3405.16300201","3405.24574494","3408.24744511","1","3408.26275492","3412.86541796",""
"sujeto_dcc3c5a9","1","4","20","116","3413.01504207","inverse","4","1","4","¿En qué año comenzó
la segunda guerra mundial?","1939","1976","left","0","0","1","individual","right","0.0609321594238","3413.07604313","4.93906784058","3418.16928411","2.93039798737","3421.09973812","3.06960201263","3424.20308709","3426.00290799","3426.05550098","3429.0584619","0","3429.07279897","3433.05996704",""
"sujeto_dcc3c5a9","1","4","21","117","3433.19268298","direct","2","1","4","¿Cuántos biomas hay en Uruguay?","5","4","","0","0","1","competitive","left","1.90661692619","3435.0994091","3.09338307381","3438.34633303","2.93768596649","3441.2840569","3.06231403351","3444.39604497","3446.19340801","3446.26411009","3449.26709008","0","3449.28237605","3455.53141904",""
"sujeto_dcc3c5a9","1","4","22","118","3455.66695094","inverse","2","1","3","¿Cuándo murió Pablo Escobar?","1993","1997","","1","1","1","competitive","right","1.81257891655","3457.47959995","3.18742108345","3460.82420397","2.69616794586","3463.520432","3.30383205414","3466.8580451","3468.64087605","3468.72638893","3471.72936893","1","3471.74337292","3477.44343591",""
"sujeto_dcc3c5a9","1","4","23","119","3477.57878113","direct","1","1","4","¿Qué serie ha ganado mas premios?","Friends","Murphy Brown","","1","1","0","competitive","left","3.46001005173","3481.03884006","1.53998994827","3482.73372793","3.17789888382","3485.9116919","2.82210111618","3488.7852931","3490.13770509","3490.22048306","3493.22340107","1","3493.23673391","3498.79832411",""
"sujeto_dcc3c5a9","1","4","24","120","3498.93640304","inverse","4","1","2","¿Cuántas fichas tiene el dominó?","26","28","","1","1","1","competitive","left","1.14191293716","3500.07838297","3.85808706284","3504.09474397","2.54535698891","3506.64014196","3.45464301109","3510.12824893","3511.18357205","3511.26389194","3514.26682091","1","3514.28011107","3519.52322006",""
"sujeto_dcc3c5a9","1","4","25","121","3519.66556597","direct","2","1","4","¿Cuántos son los dientes de leche?","20","25","","0","0","1","competitive","left","1.52615904808","3521.19177008","3.47384095192","3524.82249594","3.02608394623","3527.84861898","2.97391605377","3530.85553408","3532.56582904","3532.63965702","3535.64263892","0","3535.65795612","3537.80366898",""
"sujeto_dcc3c5a9","1","4","26","122","3537.94341707","inverse","3","1","3","¿Cuántos gramos son una onza?","22","28","","0","0","1","competitive","left","1.17990493774","3539.12338495","3.82009506226","3543.09770799","3.90638589859","3547.00415707","2.09361410141","3549.14804506","3551.14283395","3551.21635413","3554.21935105","0","3554.23441911","3560.52466702",""
"sujeto_dcc3c5a9","1","4","27","123","3560.66865396","direct","3","1","1","¿Cuándo salió el primer album
 de los Beatles?","1963","1962","","1","1","1","individual","left","0.218970060349","3560.88771296","4.78102993965","3565.82012606","0.953567028046","3566.77375793","5.04643297195","3571.87111092","3573.03473902","3573.0736649","3576.07662702","1","3576.09099412","3579.86301994",""
"sujeto_dcc3c5a9","1","4","28","124","3579.99231696","inverse","3","1","3","¿Quién fundó la empresa apple?","Carlos Slim","Steve Jobs","","1","1","1","competitive","right","0.439095973969","3580.43145895","4.56090402603","3585.16772199","4.50347399712","3589.67123699","1.49652600288","3591.21865892","3592.33333611","3592.40371513","3595.40670204","1","3595.4201591","3601.71614408",""
"sujeto_dcc3c5a9","1","4","29","125","3601.85509896","direct","4","1","2","¿Cuántos municipios hay
 en Montevideo?","8","7","","1","1","1","competitive","right","1.90486097336","3603.76003504","3.09513902664","3607.012959","2.81486606598","3609.82788301","3.18513393402","3613.0639739","3614.9787209","3615.06476212","3618.06771708","1","3618.08200812","3620.16315293",""
"sujeto_dcc3c5a9","1","4","30","126","3620.29999614","inverse","1","1","1","¿Cuántos kilómetros hay
 de Montevideo a Artigas?","632","599","","0","0","0","competitive","left","1.71956992149","3622.01962996","3.28043007851","3625.45542908","3.73893404007","3629.19442511","2.26106595993","3631.50495601","3632.9873929","3633.07238698","3636.0753541","0","3636.09043503","3642.14254808",""
"sujeto_dcc3c5a9","1","4","31","127","3642.275244","direct","2","1","2","¿En qué año nació 
Leonardo Da Vinci?","1452","1511","","1","1","0","competitive","left","1.86088395119","3644.13617706","3.13911604881","3647.44928312","2.96475601196","3650.41410303","3.03524398804","3653.49923205","3655.35142303","3655.43449092","3658.43748403","1","3658.45183611","3661.598248",""
"sujeto_dcc3c5a9","1","4","32","128","3661.73590803","inverse","3","1","1","¿A qué continente
 pertenece el país Gabón?","Africa","Oceanía","","0","0","1","competitive","left","1.03292679787","3662.76890302","3.96707320213","3666.8926301","5.9149980545","3672.807688","0.0850019454956","3672.9436481","3674.75531006","3674.82475805","3677.82773399","0","3677.84198213","3683.07988191",""
