"code","nro_aplicante","nro_bloque","nro_trial_bloque","nro_trial_global","show_game_type","choice_order","rival","pay_individual","pay_competitive","question","answer_left_text","answer_right_text","correct_answer","outcome_individual","outcome_competitive","outcome_rival","game_type","answer","social_time","rt_game_type","feedback_delay","show_question","answer_time","rt_answer_global","feedback_delay_2","show_jitter","jitter_time","show_outcome","outcome_time","outcome_participant_real","show_final_jitter","second_jitter_time","inicio_descanso"
"sujeto_18c10e9c","1","1","1","1","709.686245918","direct","3","1","4","¿Cuántos centímetros corresponden
al talle 36 del calzado?","23","24","","0","0","1","competitive","left","2.41515088081","712.101439953","2.58484911919","714.863173008","3.07116007805","717.934396029","2.92883992195","720.912611008","721.940902948","722.014698982","725.017644882","0","725.031061888","727.193537951",""
"sujeto_18c10e9c","1","1","2","2","727.333347082","inverse","3","1","2","¿Cuántas metros mide la Intendencia
Municipal de Montevideo? ","84","78","","0","0","1","competitive","left","2.21894001961","729.552346945","2.78105998039","732.503856897","3.56759905815","736.071500063","2.43240094185","738.53954196","740.417577028","740.490952015","743.493910074","0","743.508197069","745.599402905",""
"sujeto_18c10e9c","1","1","3","3","745.743077993","direct","1","1","3","¿Cuántas La Pasiva
 hay en uruguay?","15","11","","1","1","1","competitive","left","1.8813188076","747.624463081","3.1186811924","750.930732012","2.34763503075","753.278413057","3.65236496925","756.965611935","758.577267885","758.650358915","761.653303862","1","761.66743803","765.945780039",""
"sujeto_18c10e9c","1","1","4","4","766.086103916","inverse","3","1","3","¿De que color es la camiseta de uruguay?","blanca","celeste","right","1","1","1","individual","right","2.44037890434","768.526527882","2.55962109566","771.24157691","2.63580203056","773.877420902","3.36419796944","777.291220903","778.495378971","778.543335915","781.54625392","1","781.560560942","785.01443696",""
"sujeto_18c10e9c","1","1","5","5","785.16258502","direct","2","1","1","¿Cuánto metros mide
la torre Eiffel?","333","324","","1","1","1","individual","right","1.55385398865","786.71648407","3.44614601135","790.318221092","2.41812109947","792.736402035","3.58187890053","796.3676579","797.889008999","797.934875011","800.937845945","1","800.952107906","807.988803864",""
"sujeto_18c10e9c","1","1","6","6","808.120159864","inverse","3","1","4","¿Cuantas ciudades existen
 en todo el uruguay?","63","72","","0","0","1","competitive","left","1.73023295403","809.850436926","3.26976704597","813.263036966","3.065335989","816.328439951","2.934664011","819.313431025","820.36739707","820.448250055","823.451215982","0","823.465202093","831.091788054",""
"sujeto_18c10e9c","1","1","7","7","831.233421087","direct","1","1","1","¿Cuantos estados tiene África?","52","54","","1","1","0","individual","right","2.87295413017","834.10642004","2.12704586983","836.392354965","2.9160528183","839.308469057","3.0839471817","842.426188946","844.290210962","844.328195095","847.330018997","1","847.345431089","853.106451988",""
"sujeto_18c10e9c","1","1","8","8","853.28057909","inverse","4","1","4","¿En qué año nació
 Stephen Hawking?","1952","1942","","0","0","1","competitive","right","1.21086215973","854.491488934","3.78913784027","858.435554981","2.7238368988","861.159431934","3.2761631012","864.486953974","865.931252003","866.00515008","869.008130074","0","869.022175074","875.121536016",""
"sujeto_18c10e9c","1","1","9","9","875.273890972","direct","2","1","3","¿Cuánto años tenía Artigas
 cuando se fue a Paraguay?","56","57","","1","1","1","competitive","left","1.4775660038","876.751504898","3.5224339962","880.431865931","3.36755990982","883.799484015","2.63244009018","886.481071949","888.030585051","888.116991997","891.119976997","1","891.133252859","897.179395914",""
"sujeto_18c10e9c","1","1","10","10","897.302175999","inverse","1","1","2","¿Cuantos milímetros 
mide una hoja A2?","420x592","420x594","","0","0","1","competitive","left","1.47225189209","898.774503946","3.52774810791","902.442911863","3.97651600838","906.419466019","2.02348399162","908.476258039","910.04468894","910.127922058","913.130908012","0","913.14516902","920.21540308",""
"sujeto_18c10e9c","1","1","11","11","920.347469091","direct","3","1","3","¿Cuál es la menor temperatura 
registrada en Uruguay?","-5.4","-7.4","","0","0","1","competitive","left","1.50795102119","921.855488062","3.49204897881","925.503949881","2.66946601868","928.173475027","3.33053398132","931.55408597","933.235395908","933.306196928","936.309195042","0","936.324419975","940.055423975",""
"sujeto_18c10e9c","1","1","12","12","940.19173193","inverse","2","1","2","¿Cuantos años hace que 
se fundó facebook?","18","17","","0","0","0","competitive","left","2.15870904922","942.350490093","2.84129095078","945.364665985","3.23373889923","948.59847188","2.76626110077","951.416115046","952.788855076","952.867698908","955.870672941","0","955.884829998","958.659470081",""
"sujeto_18c10e9c","1","1","13","13","958.836189985","direct","1","1","4","¿Cuál animal es más
 pesado en promedio?","Rinoceronte","Hipopotamo","","0","0","0","competitive","right","2.15826487541","960.994518042","2.84173512459","964.008394957","3.26596593857","967.274399042","2.73403406143","970.05811286","971.137302876","971.210362911","974.213294983","0","974.227628946","978.068644047",""
"sujeto_18c10e9c","1","1","14","14","978.245119095","inverse","1","1","2","¿Qué personaje de dragon ball 
murió más veces?","Chaoz","Krillin","","1","1","0","competitive","right","1.16433310509","979.409506083","3.83566689491","983.400820971","3.21760988235","986.618469954","2.78239011765","989.451639891","990.909430981","990.986804962","993.987402916","1","994.003967047","1001.77690387",""
"sujeto_18c10e9c","1","1","15","15","1001.93870091","direct","3","1","2","La universidad de oxford. 
existe desde:","1096","1249","","1","1","0","individual","right","1.55571889877","1003.49446392","3.44428110123","1007.09638596","3.51309490204","1010.60954094","2.48690509796","1013.12978292","1014.17854691","1014.21459198","1017.21535492","1","1017.23235488","1023.92322993",""
"sujeto_18c10e9c","1","1","16","16","1024.08339787","inverse","3","1","1","¿Qué escritor latino ganó antes
 el premio nobel?"," García Marquez","Neruda","","0","0","1","competitive","left","1.15397000313","1025.23741102","3.84602999687","1029.2575469","3.44989109039","1032.70747995","2.55010890961","1035.30739808","1037.0474","1037.12414503","1040.12709498","0","1040.14141393","1043.599406",""
"sujeto_18c10e9c","1","1","17","17","1043.75974703","direct","4","1","3","¿Cuántos dientes tiene un
 tiburón blanco?","6000","3000","","0","0","1","individual","left","1.98070120811","1045.74051189","3.01929879189","1048.91629386","3.11104893684","1052.02737999","2.88895106316","1054.95268297","1055.99164295","1056.0372529","1059.03935599","0","1059.05454588","1063.86335588",""
"sujeto_18c10e9c","1","1","18","18","1064.00639701","inverse","4","1","1","¿Cuánto mide el paralelo Ecuador?","40.000km","70.000km","","0","0","1","competitive","left","1.98204112053","1065.98848391","3.01795887947","1069.16081905","3.76057314873","1072.92145991","2.23942685127","1075.19681096","1077.1514039","1077.23060989","1080.23357797","0","1080.24788308","1083.85045195",""
"sujeto_18c10e9c","1","1","19","19","1084.01653409","direct","4","1","2","¿Cuál fue el primer libro 
de Stephen King?","Carrie","The Stand","","1","1","1","individual","right","1.7138531208","1085.73043108","3.2861468792","1089.18864703","3.0496981144","1092.23840308","2.9503018856","1095.23774099","1096.98182392","1097.02158189","1100.02455497","1","1100.04012203","1104.51142001",""
"sujeto_18c10e9c","1","1","20","20","1104.65693188","inverse","2","1","3","¿Qué civilización practicaba
 la momificación?","Grecia","Egipto","right","0","0","1","competitive","right","1.11554694176","1105.77252507","3.88445305824","1109.8112669","2.83612084389","1112.64744496","3.16387915611","1115.86270809","1117.80200887","1117.88162494","1120.88341188","1","1120.89878297","1125.12758493",""
"sujeto_18c10e9c","1","1","21","21","1125.26723289","direct","4","1","4","¿Cuántos millones de visitas
 recibe google por minuto?","3.0","4.5","","0","0","1","competitive","right","1.16120505333","1126.42848396","3.83879494667","1130.42597389","3.13943600655","1133.56547499","2.86056399345","1136.47743106","1137.99228597","1138.07864189","1141.08162498","0","1141.09594798","1148.21541905",""
"sujeto_18c10e9c","1","1","22","22","1148.38080907","inverse","1","1","3","La máquina de fax. se inventó en:","1843","1960","","0","0","1","competitive","left","1.02664613724","1149.40750098","3.97335386276","1153.53886199","4.19750499725","1157.73642588","1.80249500275","1159.57242608","1160.81454492","1160.89046693","1163.89345407","0","1163.90775299","1167.14339709",""
"sujeto_18c10e9c","1","1","23","23","1167.27626705","direct","2","1","4","En la verdadera historia de los
 300 espartanos. habían:","300 soldados","4300 soldados","","1","1","1","competitive","right","1.63318395615","1168.90951896","3.36681604385","1172.43137908","4.81396198273","1177.24539495","1.18603801727","1178.48256588","1179.74337697","1179.81659198","1182.81937408","1","1182.83435202","1186.63537288",""
"sujeto_18c10e9c","1","1","24","24","1186.80234599","inverse","1","1","4","¿Cuántos milímetros crece
 el pelo por día?","0.4","0.04","","0","0","0","competitive","left","1.2631149292","1188.0655489","3.7368850708","1191.97333694","3.99817895889","1195.97158098","2.00182104111","1198.02474904","1199.785429","1199.85835004","1202.85935903","0","1202.87665105","1209.61173105",""
"sujeto_18c10e9c","1","1","25","25","1209.77777004","direct","4","1","1","¿Cuánto mide la baldosa gris 
clásica de Montevideo?","22x22 cm.","20x20 cm.","","1","1","1","individual","right","1.48272204399","1211.26054692","3.51727795601","1214.95395494","3.36151099205","1218.31550407","2.63848900795","1221.00423288","1222.99947786","1223.03848004","1226.04144192","1","1226.05698991","1231.59628296",""
"sujeto_18c10e9c","1","1","26","26","1231.74092293","inverse","2","1","2","¿Cuántas películas de rápidos
 y furiosos hay?","10","11","","1","1","0","competitive","left","1.15348505974","1232.89445591","3.84651494026","1236.91448092","2.87390589714","1239.78842688","3.12609410286","1242.96532989","1244.32332802","1244.40044808","1247.4034369","1","1247.41748786","1249.45213008",""
"sujeto_18c10e9c","1","1","27","27","1249.6354959","direct","3","1","1","¿Cuántos masters 1000
 ganó Del Potro?","1","2","","1","1","1","competitive","right","2.67287302017","1252.30840898","2.32712697983","1254.78609586","4.04333806038","1258.82949495","1.95666193962","1260.84193301","1262.59649706","1262.67605305","1265.67904902","1","1265.69413686","1273.09044695",""
"sujeto_18c10e9c","1","1","28","28","1273.26233006","inverse","2","1","4","¿Cuántos meses dura el 
embarazo de una leona?","3 meses","4 meses","","0","0","1","competitive","right","1.20113611221","1274.4635129","3.79886388779","1278.43519807","3.40122795105","1281.83646607","2.59877204895","1284.48566508","1285.59671807","1285.67073989","1288.67367887","0","1288.68691206","1295.40856409",""
"sujeto_18c10e9c","1","1","29","29","1295.55536795","direct","1","1","1","¿En qué año fue creado
 el sandwich?","1762","1653","","1","1","0","competitive","right","1.71107792854","1297.26649094","3.28892207146","1300.71467686","2.7387650013","1303.45350599","3.2612349987","1306.76423001","1308.36273599","1308.43276906","1311.43538594","1","1311.44968486","1314.91936898",""
"sujeto_18c10e9c","1","1","30","30","1315.06823993","inverse","4","1","2","El nombre de la moneda de Vietnam es:","Dinar","Dong","","0","0","1","competitive","right","1.22725892067","1316.29557395","3.77274107933","1320.223593","3.28384780884","1323.50750303","2.71615219116","1326.27493095","1327.70692396","1327.77615809","1330.779145","0","1330.79306602","1336.96149302",""
"sujeto_18c10e9c","1","1","31","31","1337.09056306","direct","2","1","1","¿cuantos aleteos puede dar 
un colibrí por segundo?","120","50","","0","0","0","individual","left","1.40589594841","1338.49650288","3.59410405159","1342.25194693","2.50344204903","1344.75544596","3.49655795097","1348.30289507","1350.03523207","1350.08785486","1353.09082794","0","1353.10488391","1357.31713986",""
"sujeto_18c10e9c","1","1","32","32","1357.47320008","inverse","4","1","3","¿Qué altura promedio tienen
 los hombres uruguayos?","1.73 m","1.72 m","","1","1","1","competitive","left","2.30820202827","1359.78144097","2.69179797173","1362.64546895","3.03398704529","1365.67949986","2.96601295471","1368.69636202","1369.95879602","1370.03144693","1373.03438997","1","1373.04856205","1377.52452087",""
"sujeto_18c10e9c","1","2","1","33","1502.59087205","direct","1","1","1","¿En qué año nació 
el actor Bradd Pitt?","1967","1963","","1","1","1","competitive","left","1.70254802704","1504.29348898","3.29745197296","1507.73641801","2.67199611664","1510.40847492","3.32800388336","1513.78627491","1514.88213897","1514.95470905","1517.95543194","1","1517.97180605","1523.899333","1377.5395329"
"sujeto_18c10e9c","1","2","2","34","1524.05673194","inverse","2","1","1","¿Cual es el segundo 
monte más alto?","Kanchenjunga","K2","","1","1","1","individual","left","1.64572882652","1525.70252395","3.35427117348","1529.21561599","2.92288398743","1532.13854003","3.07711601257","1535.26570106","1536.71811986","1536.76665807","1539.76964188","1","1539.78407288","1543.21139002",""
"sujeto_18c10e9c","1","2","3","35","1543.35272288","direct","3","1","1","¿Cuándo finalizó la construcción
 del Palacio Legislativo?","1925","1917","","0","0","1","individual","right","1.49380302429","1544.84659505","3.50619697571","1548.50815487","2.59131503105","1551.09953499","3.40868496895","1554.558851","1556.19938898","1556.24417686","1559.24714589","0","1559.26125789","1564.95881486",""
"sujeto_18c10e9c","1","2","4","36","1565.09618592","inverse","3","1","3","¿Cuántos integrantes tenía
 en su inicio  el cuarteto de nos?","3","4","","1","1","1","competitive","right","1.0953168869","1566.19157386","3.9046831131","1570.25247502","3.32796001434","1573.58047986","2.67203998566","1576.28679609","1577.41939402","1577.50421405","1580.50720191","1","1580.52214789","1586.17193508",""
"sujeto_18c10e9c","1","2","5","37","1586.30613399","direct","2","1","3","¿Qué valor tiene el número pi?","3.14","4.18","left","0","0","1","competitive","left","1.00234484673","1587.30852699","3.99765515327","1591.47936487","2.11011600494","1593.58954191","3.88988399506","1597.52882695","1598.98303294","1599.06400895","1602.06698799","1","1602.08132291","1608.99938703",""
"sujeto_18c10e9c","1","2","6","38","1609.14943695","inverse","2","1","2","¿Cuál es la esperanza de vida
 en Uruguay?","75","77","","1","1","0","competitive","left","0.996001005173","1610.14548707","4.00399899483","1614.34269404","1.94081115723","1616.28356886","4.05918884277","1620.39155293","1622.04534006","1622.12772107","1625.13071203","1","1625.144979","1631.60739303",""
"sujeto_18c10e9c","1","2","7","39","1631.747015","direct","1","1","2","¿Cuantos pisos tiene la torre 
de las comunicaciones?","26","32","","1","1","0","competitive","right","1.94548892975","1633.69257808","3.05451107025","1636.937433","2.86501717567","1639.80248904","3.13498282433","1642.98718786","1644.81598306","1644.88983393","1647.89281988","1","1647.90709591","1650.05329108",""
"sujeto_18c10e9c","1","2","8","40","1650.19231892","inverse","2","1","4","¿En qué país sudamericano 
no hay McDonalds?","Bolivia","Venezuela","","0","0","1","competitive","left","1.20325994492","1651.39563298","3.79674005508","1655.36368108","3.64077615738","1659.00452399","2.35922384262","1661.41449404","1662.72387409","1662.79900193","1665.79939008","0","1665.81606293","1672.17577791",""
"sujeto_18c10e9c","1","2","9","41","1672.31738901","direct","3","1","1","¿En qué año empieza
 la Edad Media?","476","512","","1","1","1","individual","right","1.59308409691","1673.91052294","3.40691590309","1677.47390199","3.29854297638","1680.77248907","2.70145702362","1683.50800705","1684.91176009","1684.95995688","1687.96291804","1","1687.9762609","1690.96481895",""
"sujeto_18c10e9c","1","2","10","42","1691.11158991","inverse","3","1","4","¿Hace cuántos años surgió
 el ser humano?","200mil","300mil","","0","0","0","competitive","right","1.01690101624","1692.12856102","3.98309898376","1696.28479886","3.08974790573","1699.37459207","2.91025209427","1702.33531499","1704.22133708","1704.30241609","1707.305372","0","1707.32055497","1710.63103294",""
"sujeto_18c10e9c","1","2","11","43","1710.95571303","direct","3","1","4","¿Cuántas cuadras tiene
 actualmente 18 de julio? ","36","33","","0","0","1","competitive","left","1.04479002953","1712.00055003","3.95520997047","1716.144835","2.55963110924","1718.70452595","3.44036889076","1722.19468999","1723.89693403","1723.98014808","1726.98312688","0","1726.99714804","1731.72342801",""
"sujeto_18c10e9c","1","2","12","44","1731.86587405","inverse","1","1","4","¿Qué juego de equipo se 
considera mas rápido?","Lacrosse","Badminton","","0","0","0","competitive","right","1.28965306282","1733.15563607","3.71034693718","1737.02123904","3.99324798584","1741.01452804","2.00675201416","1743.05580497","1744.29891706","1744.373209","1747.37536502","0","1747.39051604","1755.38337708",""
"sujeto_18c10e9c","1","2","13","45","1755.52751493","direct","1","1","3","¿Qué promedio de edad 
vive una jirafa? ","25","20","","0","0","1","competitive","left","1.21901893616","1756.74660587","3.78098106384","1760.71670604","2.42174911499","1763.13851309","3.57825088501","1766.76616502","1768.52766895","1768.60143995","1771.60439396","0","1771.61865497","1777.57435107",""
"sujeto_18c10e9c","1","2","14","46","1777.70360303","inverse","1","1","2","¿Cuántos grandes lagos hay?","7","5","","0","0","1","competitive","left","1.28593611717","1778.98960686","3.71406388283","1782.86165309","1.77281999588","1784.63451886","4.22718000412","1788.91182899","1790.20340109","1790.280617","1793.28360486","0","1793.29799199","1801.11935496",""
"sujeto_18c10e9c","1","2","15","47","1801.25001001","direct","3","1","2","¿Cuántos discos de estudio
 grabó Johhny Cash? ","54","43","","1","1","0","individual","right","2.16147112846","1803.41155505","2.83852887154","1806.40753889","3.24201989174","1809.64960599","2.75798010826","1812.45866108","1813.73729086","1813.77647591","1816.77940893","1","1816.79294991","1823.44386101",""
"sujeto_18c10e9c","1","2","16","48","1823.57636499","inverse","4","1","1","¿Cuántos barrios tiene
 Montevideo? ","71","62","","0","0","1","individual","left","1.93922281265","1825.51566887","3.06077718735","1828.73572493","2.36172986031","1831.09749603","3.63827013969","1834.76959205","1835.77661395","1835.8213079","1838.82430506","0","1838.83833408","1844.30033708",""
"sujeto_18c10e9c","1","2","17","49","1844.44053197","direct","3","1","3","¿Qué edad tiene Homero Simpson?","36","42","","0","0","1","competitive","right","1.35896587372","1845.79960489","3.64103412628","1849.63070989","2.02476000786","1851.65553594","3.97523999214","1855.67925596","1857.05532408","1857.13234401","1860.13533497","0","1860.14960909","1864.53834486",""
"sujeto_18c10e9c","1","2","18","50","1864.68390703","inverse","4","1","2","¿Cuántos países con monarquía 
hay en europa actualmente? ","6","10","","1","1","1","competitive","left","1.60559892654","1866.28954887","3.39440107346","1869.84114099","2.33440494537","1872.17558694","3.66559505463","1875.88900208","1877.32732391","1877.40673208","1880.40969086","1","1880.42418098","1886.58099604",""
"sujeto_18c10e9c","1","2","19","51","1886.74279594","direct","2","1","3","¿Cuántos capítulos de
 Friends existen? ","236","228","","1","1","1","competitive","right","0.951743841171","1887.69459391","4.04825615883","1891.90137005","3.08104515076","1894.98247409","2.91895484924","1897.93520093","1899.240731","1899.31992102","1902.32287788","1","1902.3372829","1904.71292806",""
"sujeto_18c10e9c","1","2","20","52","1904.85563707","inverse","1","1","3","¿Cuántas óperas compuso Mozart? ","27","22","","1","1","1","competitive","right","1.09783506393","1905.95351601","3.90216493607","1910.02381492","2.70259785652","1912.72644997","3.29740214348","1916.07541203","1917.36739206","1917.44333291","1920.4463129","1","1920.46030188","1927.771734",""
"sujeto_18c10e9c","1","2","21","53","1927.91178989","direct","4","1","3","¿Cuántos mundiales de fútbol 
femenino ha realizado FIFA? ","9","7","","1","1","1","competitive","right","1.45973396301","1929.37157393","3.54026603699","1933.10476995","3.49971795082","1936.60452795","2.50028204918","1939.155545","1940.39924288","1940.47390509","1943.47689605","1","1943.49106598","1949.59353495",""
"sujeto_18c10e9c","1","2","22","54","1949.74219298","inverse","3","1","2","¿Cuál es la temperatura 
media anual en Montevideo? ","17.5","16.3","","0","0","1","individual","left","1.630453825","1951.37277794","3.369546175","1954.934273","3.18516206741","1958.11949205","2.81483793259","1960.98476791","1962.92337394","1962.96990609","1965.97288108","0","1965.98717403","1972.55539608",""
"sujeto_18c10e9c","1","2","23","55","1972.68921804","direct","2","1","2","¿En qué año se estrenó el
 videojuego The Sims? ","2000","2002","","0","0","0","competitive","right","2.77024888992","1975.459512","2.22975111008","1977.84539795","3.80008602142","1981.64555407","2.19991397858","1983.88018799","1985.74223995","1985.83103395","1988.83138895","0","1988.84867787","1996.24230695",""
"sujeto_18c10e9c","1","2","24","56","1996.40179706","inverse","2","1","1","¿Cuál es la canción con 
mas covers? ","Yesterday","Stand by me","","0","0","0","competitive","left","2.32768106461","1998.72952199","2.67231893539","2001.55829191","0.0372619628906","2001.59559798","5.96273803711","2007.609128","2009.00769186","2009.09394503","2012.09692788","0","2012.11053109","2016.27946305",""
"sujeto_18c10e9c","1","2","25","57","2016.41237497","direct","1","1","4","¿Cuánto duró la guerra
 de los 100 años?","116","123","","0","0","0","competitive","left","1.42812800407","2017.84054804","3.57187199593","2021.56772995","2.68180394173","2024.24959302","3.31819605827","2027.61875606","2029.09960103","2029.18671298","2032.18738198","0","2032.20458102","2034.52435398",""
"sujeto_18c10e9c","1","2","26","58","2034.67233801","inverse","4","1","4","¿Qué color tiene la  bandera de Brasil?","Amarillo","Naranja","left","0","0","1","competitive","left","2.09516716003","2036.76757503","2.90483283997","2039.86045408","2.38404393196","2042.24454403","3.61595606804","2045.91083407","2047.47729802","2047.562989","2050.56597805","1","2050.58018303","2053.61297989",""
"sujeto_18c10e9c","1","2","27","59","2053.76571894","direct","4","1","3","¿Qué carabela de 
Colon no volvió del viaje?","Santa María","La pinta","","0","0","1","competitive","left","1.3007619381","2055.06654906","3.6992380619","2058.93786097","3.8825750351","2062.82050109","2.1174249649","2064.98826003","2066.47932696","2066.55640006","2069.55936098","0","2069.57335305","2071.67280889",""
"sujeto_18c10e9c","1","2","28","60","2071.80870295","inverse","4","1","4","¿Cuántos huesos tiene
 un adulto humano?","217","206","","0","0","1","competitive","right","0.888735055923","2072.69748402","4.11126494408","2076.97728705","3.1401450634","2080.11749387","2.8598549366","2083.02934504","2084.2993989","2084.38096189","2087.38395905","0","2087.3980329","2095.22988296",""
"sujeto_18c10e9c","1","2","29","61","2095.36569309","direct","1","1","1","¿Qué país africano fue 
fundado por esclavos?","Liberia","Chad","","0","0","0","competitive","left","1.06299591064","2096.42882299","3.93700408936","2100.52608705","3.54043078423","2104.06658602","2.45956921577","2106.57693386","2108.56858897","2108.64429092","2111.64732194","0","2111.66210198","2119.65295506",""
"sujeto_18c10e9c","1","2","30","62","2119.79821396","inverse","4","1","2","¿A cuánto asciende la cima
 del monte Everest?","7.990 mts","8.848 mts","","0","0","1","competitive","left","0.960294008255","2120.75855803","4.03970599174","2124.95424199","3.65629386902","2128.61059499","2.34370613098","2131.00622106","2132.1910789","2132.27404189","2135.27702999","0","2135.29026604","2142.47431493",""
"sujeto_18c10e9c","1","2","31","63","2142.64227605","direct","4","1","1","¿Cuál es el país mas chico?","Sealand","Luxemburgo","","1","1","1","individual","right","1.35726499557","2143.99961209","3.64273500443","2147.79986691","2.60161089897","2150.40153503","3.39838910103","2153.85089302","2155.71439409","2155.75172687","2158.75469208","1","2158.76994991","2161.89141607",""
"sujeto_18c10e9c","1","2","32","64","2162.02070689","inverse","2","1","4","¿Cuántas pirámides hay en Egipto?","10000","11000","","1","1","1","competitive","right","1.05680894852","2163.07757998","3.94319105148","2167.18957186","3.43891191483","2170.62852788","2.56108808517","2173.24189591","2174.27539086","2174.36020899","2177.363199","1","2177.37734008","2182.48638487",""
"sujeto_18c10e9c","1","3","1","65","2290.65248895","direct","2","1","2","¿Cuál es el quinto país con 
mas extensión?","Canadá","Brasil","","1","1","0","competitive","right","1.09606695175","2291.74859905","3.90393304825","2295.82525992","2.8761780262","2298.701478","3.1238219738","2301.85889006","2303.19138002","2303.27701902","2306.28000998","1","2306.29421401","2314.02059793","2182.50127602"
"sujeto_18c10e9c","1","3","2","66","2314.17842793","inverse","1","1","2","¿Qué rasgo facial no tiene
 la Mona Lisa?","Cejas","Pómulos","","0","0","1","competitive","left","0.892109870911","2315.07059097","4.10789012909","2319.33826089","2.28331112862","2321.62161398","3.71668887138","2325.38785195","2327.13826799","2327.22320986","2330.22620392","0","2330.24140501","2336.51138592",""
"sujeto_18c10e9c","1","3","3","67","2336.65930104","direct","4","1","3","¿Cuál es el país con 
mayor población?","Esados Unidos","China","right","0","0","1","competitive","right","2.71725201607","2339.37665606","2.28274798393","2341.84938908","2.53913903236","2344.38857007","3.46086096764","2347.900769","2349.546736","2349.61959291","2352.62038493","1","2352.63664103","2356.00338602",""
"sujeto_18c10e9c","1","3","4","68","2356.13179898","inverse","1","1","1","La palabra dinosaurio significa","Lagarto Terrible","Lagarto Dragón","","1","1","0","competitive","right","1.71474504471","2357.84661102","3.28525495529","2361.31033707","3.70617294312","2365.01657104","2.29382705688","2367.35994005","2368.53026199","2368.6117599","2371.61474204","1","2371.62865186","2374.49042702",""
"sujeto_18c10e9c","1","3","5","69","2374.63001609","direct","2","1","3","¿Qué es el membrillero?","Arbol","Arbusto","","0","0","0","competitive","right","1.23151707649","2375.86159801","3.76848292351","2379.78629994","2.12020397186","2381.906564","3.87979602814","2385.83599305","2387.79012489","2387.87183189","2390.87476492","0","2390.88934588","2397.35134387",""
"sujeto_18c10e9c","1","3","6","70","2397.49079394","inverse","3","1","3","¿Alrededor de qué planeta orbita 
el satélite Europa?","Jupiter","Saturno","","1","1","1","competitive","left","1.23775005341","2398.72860503","3.76224994659","2402.66435599","3.35119700432","2406.01559806","2.64880299568","2408.71473002","2410.25936103","2410.33283687","2413.33577108","1","2413.35000491","2415.55518889",""
"sujeto_18c10e9c","1","3","7","71","2415.68432093","direct","3","1","1","¿Donde fue el mundial de 
fútbol de 1954?","Suiza","Suecia","","1","1","1","competitive","right","2.21422505379","2417.89859104","2.78577494621","2420.85756493","2.79097485542","2423.64860797","3.20902514458","2426.90766692","2428.16029787","2428.24273705","2431.24572086","1","2431.25982499","2435.17158794",""
"sujeto_18c10e9c","1","3","8","72","2435.31197906","inverse","1","1","4","¿Cuál de los 7 enanitos
no tenía barba?","Bashful","Mudito","","1","1","0","competitive","right","0.786560058594","2436.09861588","4.21343994141","2440.4819119","2.73860287666","2443.22056007","3.26139712334","2446.53238702","2448.11250901","2448.18411398","2451.18709397","1","2451.20114303","2456.1273849",""
"sujeto_18c10e9c","1","3","9","73","2456.27133298","direct","3","1","2","¿Cual red social es
mas utilizada mundialmente?","Instagram","Facebook","","1","1","0","competitive","left","0.973261833191","2457.24466491","4.02673816681","2461.42768002","2.47387814522","2463.90160704","3.52612185478","2467.47819901","2469.39538789","2469.48036909","2472.48335004","1","2472.49757099","2475.43207598",""
"sujeto_18c10e9c","1","3","10","74","2475.56705403","inverse","4","1","1","¿Cuándo se inició la copa
 América de fútbol?","1916","1923","","1","1","1","individual","left","1.93453598022","2477.50166202","3.06546401978","2480.7528069","3.24472689629","2483.99759293","2.75527310371","2486.78673792","2488.68342805","2488.72136307","2491.72339892","1","2491.73963094","2494.39575291",""
"sujeto_18c10e9c","1","3","11","75","2494.54072809","direct","3","1","4","¿Cuántos presidentes de EEUU
han muerto asesinados?","3","4","","0","0","1","competitive","left","1.18180513382","2495.72257805","3.81819486618","2499.69227004","2.25026607513","2501.94257808","3.74973392487","2505.74392295","2507.22786903","2507.3127389","2510.31574702","0","2510.33011293","2513.97422695",""
"sujeto_18c10e9c","1","3","12","76","2514.11517191","inverse","2","1","4","¿Cuántas veces participó EEUU
 en la copa América?","4","5","","0","0","1","competitive","right","1.16041302681","2515.27563","3.83958697319","2519.27431488","2.95918393135","2522.23356104","3.04081606865","2525.30860305","2526.75271702","2526.82629991","2529.82929087","0","2529.84358597","2535.96076488",""
"sujeto_18c10e9c","1","3","13","77","2536.11458087","direct","4","1","1","¿Cuál de estos países 
no formaba la URSS?","Azeribayán","Afganistán","","0","0","1","individual","right","1.08502006531","2537.19971108","3.91497993469","2541.28542495","3.67213487625","2544.95762706","2.32786512375","2547.33685899","2548.64993405","2548.6871779","2551.68739295","0","2551.70460987","2559.68340802",""
"sujeto_18c10e9c","1","3","14","78","2559.822721","inverse","1","1","1","¿En qué año se inauguró
 el teatro Solís?","1867","1856","","0","0","0","competitive","right","1.18080282211","2561.00359297","3.81919717789","2564.98125291","3.03418898582","2568.01547694","2.96581101418","2571.03169203","2572.08739591","2572.16712403","2575.16740298","0","2575.18343592","2581.83126807",""
"sujeto_18c10e9c","1","3","15","79","2581.96877789","direct","1","1","4","¿A qué velocidad vuela 
el avión más rápido?","3529","3874","","0","0","0","individual","right","1.15975785255","2583.12858796","3.84024214745","2587.14157009","3.40588212013","2590.54748702","2.59411787987","2593.19320393","2594.94871497","2594.99563408","2597.99856496","0","2598.01166987","2600.12192202",""
"sujeto_18c10e9c","1","3","16","80","2600.29688096","inverse","3","1","4","¿De qué año es la primer 
película cinematográfica?","1897","1888","","0","0","0","competitive","right","1.29170489311","2601.58868408","3.70829510689","2605.45170999","4.23583698273","2609.68761492","1.76416301727","2611.50357795","2612.63655186","2612.72091007","2615.72339988","0","2615.73771501","2621.14745903",""
"sujeto_18c10e9c","1","3","17","81","2621.30577302","direct","2","1","3","¿Cuántos países 
tiene nuestro planeta?","191","194","","1","1","1","competitive","","1.21279215813","2622.51861596","3.78720784187","2626.47971702","6","2632.4798429","0","2632.495121","2633.85232806","2633.93150306","2636.93448901","0","2636.94857192","2640.18687701",""
"sujeto_18c10e9c","1","3","18","82","2640.31706595","inverse","2","1","2","¿Cuántos habitantes
 tiene Buenos Aires?","2.9000.000","3650000","","0","0","0","individual","left","1.73855996132","2642.05569506","3.26144003868","2645.48728895","2.25138616562","2647.73870301","3.74861383438","2651.539114","2652.93637705","2652.97406101","2655.97702909","0","2655.99014592","2661.815413",""
"sujeto_18c10e9c","1","3","19","83","2661.957654","direct","2","1","1","¿Cuántos kilos forman una tonelada?","1000","1500","left","1","1","1","competitive","left","2.04289889336","2664.00061893","2.95710110664","2667.13432002","2.81021904945","2669.94458389","3.18978095055","2673.16529703","2675.05265188","2675.13326502","2678.13541508","1","2678.15085196","2684.10828686",""
"sujeto_18c10e9c","1","3","20","84","2684.26879406","inverse","4","1","4","¿Cuántos estados tiene la 
República del Perú? ","24","23","","0","0","1","competitive","right","1.27604007721","2685.54488707","3.72395992279","2689.42918205","2.49337911606","2691.92263889","3.50662088394","2695.47859502","2696.50076699","2696.58066487","2699.58362794","0","2699.59796405","2704.54333496",""
"sujeto_18c10e9c","1","3","21","85","2704.6995759","direct","3","1","3","¿En qué año nació Cristóbal Colón? ","1451","1447","","0","0","1","competitive","left","1.27394604683","2705.97358608","3.72605395317","2709.9059","2.94370698929","2712.84965301","3.05629301071","2715.94056892","2717.78645205","2717.87534904","2720.878335","0","2720.89247489","2725.12043905",""
"sujeto_18c10e9c","1","3","22","86","2725.25981307","inverse","4","1","4","¿Cuánto mide la 
Montaña Aconcagua? ","6234","6962","","0","0","1","competitive","right","0.932780981064","2726.1927309","4.06721901894","2730.43108487","2.64243793488","2733.07358193","3.35756206512","2736.48312902","2737.77246189","2737.85190892","2740.85490394","0","2740.86900687","2748.05263996",""
"sujeto_18c10e9c","1","3","23","87","2748.20366001","direct","2","1","4","¿Cuánto mide el punto
 más profundo del océano? ","12508","11003","","0","0","1","competitive","left","0.888945102692","2749.09268308","4.11105489731","2753.35949588","2.85006308556","2756.20961595","3.14993691444","2759.41058707","2760.66211009","2760.74559999","2763.74858189","0","2763.76282787","2767.96741009",""
"sujeto_18c10e9c","1","3","24","88","2768.09771109","inverse","1","1","3","¿Cuántos álbumes ha publicado 
el cantante Jaime Roos? ","41","34","","0","0","1","competitive","right","1.0248799324","2769.12265706","3.9751200676","2773.25547695","2.66204190254","2775.9175849","3.33795809746","2779.28901696","2780.77886891","2780.85714006","2783.86012292","0","2783.87405705","2790.07021999",""
"sujeto_18c10e9c","1","3","25","89","2790.20887709","direct","4","1","3","¿En qué año nació el 
ex-presidente Jorge Battle? ","1921","1927","","1","1","1","competitive","right","1.32568407059","2791.53462696","3.67431592941","2795.36661792","4.06193089485","2799.42859507","1.93806910515","2801.40070295","2803.13136601","2803.21841908","2806.22138095","1","2806.23653388","2809.72257996",""
"sujeto_18c10e9c","1","3","26","90","2809.85398889","inverse","1","1","3","¿Cuántas presidencias 
constitucionales  hubo en Uruguay? ","41","42","","0","0","1","competitive","left","0.953576087952","2810.80763197","4.04642391205","2815.00798202","2.72863006592","2817.73667407","3.27136993408","2821.04312491","2822.24688792","2822.32863998","2825.33163309","0","2825.34593105","2831.12739396",""
"sujeto_18c10e9c","1","3","27","91","2831.26407409","direct","1","1","2","¿Quién escribió mas sinfonías?","Mozart","Haydn","","1","1","0","competitive","left","2.05354499817","2833.31768489","2.94645500183","2836.42181396","1.94478988647","2838.36666703","4.05521011353","2842.48696995","2843.70442986","2843.78896403","2846.79194999","1","2846.80617905","2850.55759692",""
"sujeto_18c10e9c","1","3","28","92","2850.70831704","inverse","4","1","2","¿En qué año nació Michael Jackson?","1958","1953","","1","1","1","individual","right","1.50131297112","2852.20973492","3.49868702888","2855.88161802","1.89998412132","2857.78164792","4.10001587868","2861.93027592","2863.90847087","2863.94915795","2866.95212388","1","2866.96752501","2872.82984591",""
"sujeto_18c10e9c","1","3","29","93","2872.98578286","direct","3","1","2","¿En qué año entró en vigencia 
la ley antitabaco en Uruguay?","2005","2006","","1","1","1","individual","right","1.33982586861","2874.32565498","3.66017413139","2878.14225006","3.25230813026","2881.39462399","2.74769186974","2884.19243503","2885.78720498","2885.82758307","2888.83052707","1","2888.84455299","2894.17853594",""
"sujeto_18c10e9c","1","3","30","94","2894.36333108","inverse","3","1","1","¿Cuándo se subió el 
primer video a youtube?","2004","2005","","0","0","1","individual","left","1.33626103401","2895.69965506","3.66373896599","2899.53433204","2.30324792862","2901.83763909","3.69675207138","2905.58594489","2906.89159298","2906.93794608","2909.939399","0","2909.95468688","2917.71031308",""
"sujeto_18c10e9c","1","3","31","95","2917.85637188","direct","2","1","1","¿Cuántos habitantes tiene India?","1200 millones","1300 millones","","0","0","0","individual","right","1.92325901985","2919.77971697","3.07674098015","2923.04817104","2.00246977806","2925.05070591","3.99753022194","2929.09845304","2931.06810093","2931.11708498","2934.12005806","0","2934.13442993","2940.18191695",""
"sujeto_18c10e9c","1","3","32","96","2940.31974292","inverse","4","1","2","¿A qué edad murió Bob Marley?","36","37","","0","0","1","individual","left","1.42085599899","2941.74066496","3.57914400101","2945.47619295","2.38440990448","2947.86067009","3.61559009552","2951.52696395","2953.42479801","2953.46145296","2956.46439695","0","2956.48021603","2959.58269405",""
"sujeto_18c10e9c","1","4","1","97","3091.200948","direct","2","1","1","¿Cuantos años dirigió la selección 
uruguaya Tabarez?","15 años","13 años","","0","0","0","competitive","left","1.20965790749","3092.41067696","3.79034209251","3096.35239005","2.11721515656","3098.46966791","3.88278484344","3102.40307093","3103.59422898","3103.67252493","3106.67548203","0","3106.689533","3113.76154709","2959.5971849"
"sujeto_18c10e9c","1","4","2","98","3113.90773988","inverse","4","1","1","¿Cuantas teclas tiene un teclado 
de computadora generalmente? ","Entre 99 y 108","Entre 109 y 113","","1","1","1","individual","right","1.39890694618","3115.30672407","3.60109305382","3119.08232403","3.39730620384","3122.47967291","2.60269379616","3125.13200092","3126.13476396","3126.18339801","3129.18637896","1","3129.20067906","3131.57142496",""
"sujeto_18c10e9c","1","4","3","99","3131.70216703","direct","1","1","1","¿Cuál Departamento tiene
 mayor superficie?","Río Negro","Soriano","","0","0","0","competitive","left","1.53360509872","3133.23600197","3.46639490128","3136.85900903","3.29556012154","3140.15463305","2.70443987846","3142.90915394","3144.6226089","3144.6944859","3147.69741201","0","3147.71180797","3152.03789306",""
"sujeto_18c10e9c","1","4","4","100","3152.17916489","inverse","3","1","2","¿Cuál es el apellido de las 
hermanastras  de  cenicienta?","Tremaine","Truman","","0","0","1","competitive","right","1.77639389038","3153.95560288","3.22360610962","3157.33650494","4.184030056","3161.52060103","1.815969944","3163.38719201","3165.25672698","3165.33834505","3168.34133005","0","3168.35634804","3171.05233097",""
"sujeto_18c10e9c","1","4","5","101","3171.19108701","direct","4","1","4","¿Cuál película ganó un
 Oscar a mejor película?","Alto Impacto","Cache","","0","0","1","competitive","left","1.74056386948","3172.93172503","3.25943613052","3176.36079693","3.78086590767","3180.14170504","2.21913409233","3182.41360188","3183.53298306","3183.61477995","3186.61776209","0","3186.63192105","3188.89653206",""
"sujeto_18c10e9c","1","4","6","102","3189.05039191","inverse","1","1","3","¿A cuántos centímetros
equivale la medida pié?","25","30","","0","0","1","competitive","left","1.02322602272","3190.07366395","3.97677397728","3194.20380306","3.15480113029","3197.35864401","2.84519886971","3200.25466299","3201.2946589","3201.37275887","3204.37570786","0","3204.389817","3209.79078507",""
"sujeto_18c10e9c","1","4","7","103","3209.94021392","direct","2","1","2","¿Qué departamento es mas grande?","Cerro Largo","Paysandú","","0","0","0","competitive","right","1.13835096359","3211.07863593","3.86164903641","3215.09851599","2.47607278824","3217.57465696","3.52392721176","3221.149575","3222.74933386","3222.83481002","3225.83779788","0","3225.85186601","3229.95944095",""
"sujeto_18c10e9c","1","4","8","104","3230.13624692","inverse","2","1","3","¿Quién pintó la Mona Lisa?","Picasso","Da Vinci","right","0","0","1","competitive","right","0.895380973816","3231.03169489","4.10461902618","3235.30868697","2.62588787079","3237.93463588","3.37411212921","3241.34178901","3242.94761705","3243.02731991","3246.03030205","1","3246.04501295","3248.20736289",""
"sujeto_18c10e9c","1","4","9","105","3248.34690189","direct","4","1","3","¿Cuántos litros hay en un galon?","3.54","3.78","","1","1","1","competitive","left","1.2187230587","3249.56567192","3.7812769413","3253.51918602","2.61135005951","3256.13059187","3.38864994049","3259.55236292","3261.07024002","3261.15385699","3264.1568439","1","3264.17118192","3269.96339202",""
"sujeto_18c10e9c","1","4","10","106","3270.10654902","inverse","4","1","1","¿Cuántas teclas tiene
 un piano moderno?","80","88","","0","0","1","individual","left","1.37708902359","3271.48370099","3.62291097641","3275.26364803","2.46499300003","3277.7286799","3.53500699997","3281.31348395","3282.32195807","3282.36540604","3285.36837602","0","3285.38298798","3292.1794219",""
"sujeto_18c10e9c","1","4","11","107","3292.33397698","direct","4","1","3","¿Cuántos países hay en África?","54","62","","0","0","1","competitive","right","0.957690954208","3293.29172397","4.04230904579","3297.505656","2.18799209595","3299.69368792","3.81200790405","3303.55753589","3305.24741888","3305.32668591","3308.32743192","0","3308.34342694","3316.14819908",""
"sujeto_18c10e9c","1","4","12","108","3316.28246999","inverse","1","1","3","¿En qué siglo se crearon
 las primeras pistolas?","XV","XIII","","1","1","1","competitive","left","0.865209817886","3317.14773488","4.13479018211","3321.43199205","2.79264116287","3324.22469401","3.20735883713","3327.48410988","3329.43202305","3329.50252008","3332.50343895","1","3332.51980305","3335.75289106",""
"sujeto_18c10e9c","1","4","13","109","3335.88893795","direct","3","1","4","¿En qué año se estrenó 
la serie friends?","1994","1995","","0","0","1","competitive","right","0.989699840546","3336.87871003","4.01030015945","3341.04734206","2.31530499458","3343.36269403","3.68469500542","3347.09674191","3348.972049","3349.04935503","3352.05234909","0","3352.06660008","3357.07266402",""
"sujeto_18c10e9c","1","4","14","110","3357.21866298","inverse","3","1","4","¿En qué año nació Hitler?","1889","1887","","0","0","1","competitive","right","0.678066015244","3357.89680696","4.32193398476","3362.37459087","2.09804296494","3364.47269392","3.90195703506","3368.40788102","3369.52225995","3369.59345603","3372.59642696","0","3372.61054206","3377.63751006",""
"sujeto_18c10e9c","1","4","15","111","3377.78012109","direct","1","1","4","¿Cuánto pesa un elefante Africano?","6000 kilos","5400 kilos","","0","0","0","individual","right","0.782524108887","3378.56274104","4.21747589111","3382.93407393","2.98055100441","3385.91466689","3.01944899559","3388.98537302","3390.34122586","3390.38697505","3393.38993788","0","3393.40504098","3400.11210704",""
"sujeto_18c10e9c","1","4","16","112","3400.25580096","inverse","1","1","2","¿Qué porcentaje de 
la población es zurda?","10%","7%","","1","1","0","competitive","right","1.40078282356","3401.65664887","3.59921717644","3405.44595289","2.21968388557","3407.66568208","3.78031611443","3411.49568701","3412.73879409","3412.8139689","3415.81696105","1","3415.83130097","3421.81104207",""
"sujeto_18c10e9c","1","4","17","113","3421.94976187","direct","1","1","2","¿En qué año se estrenó
Volver al futuro?","1984","1985","","0","0","1","competitive","right","1.16090106964","3423.11073208","3.83909893036","3427.14200091","2.65862512589","3429.80069399","3.34137487411","3433.19192886","3434.75375199","3434.8266139","3437.82953787","0","3437.84405899","3444.93548799",""
"sujeto_18c10e9c","1","4","18","114","3445.07859087","inverse","3","1","2","¿Cuántos jugadores hay en un 
equipo de baseball?","9","8","","1","1","0","individual","right","1.65116405487","3446.729877","3.34883594513","3450.26856995","2.94606804848","3453.21470499","3.05393195152","3456.30384898","3457.91811991","3457.95552588","3460.95847797","1","3460.97280502","3465.94742298",""
"sujeto_18c10e9c","1","4","19","115","3466.10856986","direct","2","1","1","¿Cuántos Oscar ganó
 la película titanic?","13","11","","1","1","1","competitive","left","1.44102597237","3467.54966307","3.55897402763","3471.26469898","2.72496294975","3473.98972106","3.27503705025","3477.31438804","3478.61644006","3478.69971895","3481.702703","1","3481.71692395","3486.31953788",""
"sujeto_18c10e9c","1","4","20","116","3486.45221686","inverse","4","1","4","¿En qué año comenzó
la segunda guerra mundial?","1939","1976","left","0","0","1","competitive","left","1.04946303368","3487.50174904","3.95053696632","3491.60275388","3.43184089661","3495.03464103","2.56815910339","3497.63809299","3499.43793201","3499.52237701","3502.52537489","1","3502.54017806","3506.52735209",""
"sujeto_18c10e9c","1","4","21","117","3506.65901303","direct","2","1","4","¿Cuántos biomas hay en Uruguay?","5","4","","0","0","1","competitive","right","1.21464109421","3507.873703","3.78535890579","3511.81880999","2.25680208206","3514.07564902","3.74319791794","3517.86886287","3519.6662209","3519.73738599","3522.74038506","0","3522.75472808","3529.00413394",""
"sujeto_18c10e9c","1","4","22","118","3529.15651798","inverse","2","1","3","¿Cuándo murió Pablo Escobar?","1993","1997","","1","1","1","competitive","right","1.04117298126","3530.19775987","3.95882701874","3534.31285286","3.46375608444","3537.77664995","2.53624391556","3540.34738493","3542.13022494","3542.215101","3545.21542192","1","3545.23281193","3550.93545103",""
"sujeto_18c10e9c","1","4","23","119","3551.06725597","direct","1","1","4","¿Qué serie ha ganado mas premios?","Friends","Murphy Brown","","1","1","0","competitive","left","0.90833902359","3551.97566009","4.09166097641","3556.22206807","2.84255695343","3559.06466007","3.15744304657","3562.27375102","3563.62617207","3563.70865703","3566.71164489","1","3566.72572708","3572.28737092",""
"sujeto_18c10e9c","1","4","24","120","3572.42753291","inverse","4","1","2","¿Cuántas fichas tiene el dominó?","26","28","","1","1","1","competitive","right","0.986197948456","3573.41381192","4.01380205154","3577.59755898","1.97107481956","3579.56870103","4.02892518044","3583.64856791","3584.70389199","3584.78484988","3587.78783798","1","3587.80109191","3593.04415989",""
"sujeto_18c10e9c","1","4","25","121","3593.18946886","direct","2","1","4","¿Cuántos son los dientes de leche?","20","25","","0","0","1","competitive","left","0.934161186218","3594.12367487","4.06583881378","3598.34680486","2.11983108521","3600.46669602","3.88016891479","3604.39619803","3606.10653591","3606.18102908","3609.18342304","0","3609.19876599","3611.34446096",""
"sujeto_18c10e9c","1","4","26","122","3611.48428392","inverse","3","1","3","¿Cuántos gramos son una onza?","22","28","","0","0","1","competitive","right","0.993402004242","3612.4777379","4.00659799576","3616.63924289","2.16132187843","3618.80060387","3.83867812157","3622.67225409","3624.66710496","3624.74076509","3627.74341297","0","3627.75847292","3634.04872608",""
"sujeto_18c10e9c","1","4","27","123","3634.19408488","direct","3","1","1","¿Cuándo salió el primer album
 de los Beatles?","1963","1962","","1","1","1","individual","left","1.31465601921","3635.50878787","3.68534398079","3639.35136509","2.34523510933","3641.69663692","3.65476489067","3645.38373303","3646.54741693","3646.58645201","3649.58941889","1","3649.60353804","3653.37554193",""
"sujeto_18c10e9c","1","4","28","124","3653.52133107","inverse","3","1","3","¿Quién fundó la empresa apple?","Carlos Slim","Steve Jobs","","1","1","1","competitive","right","1.1082880497","3654.62968898","3.8917119503","3658.68961787","1.8150229454","3660.50470304","4.1849770546","3664.74049187","3665.85516906","3665.9264009","3668.92939806","1","3668.943748","3675.24159503",""
"sujeto_18c10e9c","1","4","29","125","3675.398","direct","4","1","2","¿Cuántos municipios hay
 en Montevideo?","8","7","","1","1","1","individual","left","0.953636884689","3676.3516829","4.04636311531","3680.55469298","2.26899600029","3682.8237319","3.73100399971","3686.60522509","3688.51997089","3688.55664992","3691.55960608","1","3691.57429504","3693.65543103",""
"sujeto_18c10e9c","1","4","30","126","3693.79345202","inverse","1","1","1","¿Cuántos kilómetros hay
 de Montevideo a Artigas?","632","599","","0","0","0","competitive","left","1.0276389122","3694.821172","3.9723610878","3698.94691491","2.54769706726","3701.49467206","3.45230293274","3704.98088193","3706.46400499","3706.54961491","3709.55265403","0","3709.56690907","3715.61903191",""
"sujeto_18c10e9c","1","4","31","127","3715.76781392","direct","2","1","2","¿En qué año nació 
Leonardo Da Vinci?","1452","1511","","1","1","0","competitive","right","1.04484891891","3716.81271005","3.95515108109","3720.92233896","3.05722093582","3723.97959805","2.94277906418","3726.97474289","3728.82837486","3728.91002202","3731.91300297","1","3731.92705202","3735.07142401",""
"sujeto_18c10e9c","1","4","32","128","3735.21409297","inverse","3","1","1","¿A qué continente
 pertenece el país Gabón?","Africa","Oceanía","","0","0","1","individual","left","1.16163396835","3736.37579393","3.83836603165","3740.402601","2.55702209473","3742.95966387","3.44297790527","3746.45305109","3748.26473403","3748.30425906","3751.3072319","0","3751.32251406","3756.56042409",""
