"code","nro_aplicante","nro_bloque","nro_trial_bloque","nro_trial_global","show_game_type","choice_order","rival","pay_individual","pay_competitive","question","answer_left_text","answer_right_text","correct_answer","outcome_individual","outcome_competitive","outcome_rival","game_type","answer","social_time","rt_game_type","feedback_delay","show_question","answer_time","rt_answer_global","feedback_delay_2","show_jitter","jitter_time","show_outcome","outcome_time","outcome_participant_real","show_final_jitter","second_jitter_time","inicio_descanso"
"sujeto_b3dd3930","1","1","1","1","650.56516099","direct","3","1","4","¿Cuántos centímetros corresponden
al talle 36 del calzado?","23","24","","0","0","1","competitive","left","2.85170197487","653.416903973","2.14829802513","655.735566854","4.47544288635","660.211057901","1.52455711365","661.78825593","662.816511869","662.888448954","665.891435862","0","665.905592918","668.068124056",""
"sujeto_b3dd3930","1","1","2","2","668.208312035","inverse","3","1","2","¿Cuántas metros mide la Intendencia
Municipal de Montevideo? ","84","78","","0","0","1","competitive","left","1.78373599052","669.992096901","3.21626400948","673.363091946","2.96202397346","676.325178862","3.03797602654","679.395689964","681.273736954","681.347467899","684.350440979","0","684.365407944","686.456516027",""
"sujeto_b3dd3930","1","1","3","3","686.585242033","direct","1","1","3","¿Cuántas La Pasiva
 hay en uruguay?","15","11","","1","1","1","competitive","right","2.58097910881","689.166266918","2.41902089119","691.752599955","4.04469919205","695.797360897","1.95530080795","697.787365913","699.39902091","699.471874952","702.472508907","1","702.489628077","706.76451993",""
"sujeto_b3dd3930","1","1","4","4","706.890820026","inverse","3","1","3","¿De que color es la camiseta de uruguay?","blanca","celeste","right","1","1","1","competitive","right","1.04962420464","707.940494061","3.95037579536","712.047864914","2.0175819397","714.065491915","3.9824180603","718.098115921","719.302881956","719.383147001","722.386111975","1","722.400311947","725.854233027",""
"sujeto_b3dd3930","1","1","5","5","725.987824917","direct","2","1","1","¿Cuánto metros mide
la torre Eiffel?","333","324","","1","1","1","competitive","left","1.22271203995","727.210602999","3.77728796005","731.142518997","2.72214007378","733.864712","3.27785992622","737.192911863","738.71430397","738.794626951","741.797585011","1","741.811410904","748.848108053",""
"sujeto_b3dd3930","1","1","6","6","749.000241995","inverse","3","1","4","¿Cuantas ciudades existen
 en todo el uruguay?","63","72","","0","0","1","competitive","left","1.012570858","750.012876987","3.987429142","754.153972864","3.83089804649","757.984930992","2.16910195351","760.204921007","761.259710073","761.340364933","764.343361855","0","764.357290983","771.983859062",""
"sujeto_b3dd3930","1","1","7","7","772.112938881","direct","1","1","1","¿Cuantos estados tiene África?","52","54","","1","1","0","competitive","left","1.27410197258","773.387106895","3.72589802742","777.263254881","2.32282495499","779.586123943","3.67717504501","783.315114975","785.179151058","785.25000906","788.252956867","1","788.26799798","794.028491974",""
"sujeto_b3dd3930","1","1","8","8","794.172627926","inverse","4","1","4","¿En qué año nació
 Stephen Hawking?","1952","1942","","0","0","1","competitive","right","0.754019975662","794.926689863","4.24598002434","799.328059912","4.65025687218","803.978384972","1.34974312782","805.379697084","806.823963881","806.896978855","809.899947882","0","809.914296865","816.01364994",""
"sujeto_b3dd3930","1","1","9","9","816.151535034","direct","2","1","3","¿Cuánto años tenía Artigas
 cuando se fue a Paraguay?","56","57","","1","1","1","competitive","right","1.68391513824","817.835520029","3.31608486176","821.307333946","3.67217993736","824.979580879","2.32782006264","827.357310057","828.906826973","828.991540909","831.994503021","1","832.00977397","838.057080984",""
"sujeto_b3dd3930","1","1","10","10","838.210654974","inverse","1","1","2","¿Cuantos milímetros 
mide una hoja A2?","420x592","420x594","","0","0","1","competitive","","0.925986051559","839.136683941","4.07401394844","843.351422071","6","849.351562023","0","849.366801023","850.935229063","851.003443003","854.004519939","0","854.020921946","861.094562054",""
"sujeto_b3dd3930","1","1","11","11","861.240422964","direct","3","1","3","¿Cuál es la menor temperatura 
registrada en Uruguay?","-5.4","-7.4","","0","0","1","competitive","right","0.886476993561","862.127006054","4.11352300644","866.410767078","2.49423408508","868.905041933","3.50576591492","872.445581913","874.127645016","874.197649002","877.200633049","0","877.215015888","880.948318005",""
"sujeto_b3dd3930","1","1","12","12","881.084738016","inverse","2","1","2","¿Cuantos años hace que 
se fundó facebook?","18","17","","0","0","0","competitive","left","0.418408155441","881.503249884","4.58159184456","886.257071018","2.45812821388","888.71526885","3.54187178612","892.307749033","893.680484056","893.758725882","896.761713982","0","896.776382923","899.548506021",""
"sujeto_b3dd3930","1","1","13","13","899.677651882","direct","1","1","4","¿Cuál animal es más
 pesado en promedio?","Rinoceronte","Hipopotamo","","0","0","0","competitive","right","0.806635856628","900.484353065","4.19336414337","904.882998943","2.46935391426","907.352427959","3.53064608574","910.933429003","912.012681007","912.085645914","915.088644981","0","915.102510929","918.943534851",""
"sujeto_b3dd3930","1","1","14","14","919.069967031","inverse","1","1","2","¿Qué personaje de dragon ball 
murió más veces?","Chaoz","Krillin","","1","1","0","competitive","right","0.73752617836","919.807538033","4.26247382164","924.225353003","3.34125113487","927.566668034","2.65874886513","930.277608871","931.735414982","931.811784983","934.814743996","1","934.829805851","942.60273695",""
"sujeto_b3dd3930","1","1","15","15","942.734976053","direct","3","1","2","La universidad de oxford. 
existe desde:","1096","1249","","1","1","0","competitive","right","0.698801040649","943.433842897","4.30119895935","947.902886868","3.02199912071","950.924932957","2.97800087929","953.953274965","955.002090931","955.072033882","958.075011969","1","958.08916688","964.776507854",""
"sujeto_b3dd3930","1","1","16","16","964.910724878","inverse","3","1","1","¿Qué escritor latino ganó antes
 el premio nobel?"," García Marquez","Neruda","","0","0","1","competitive","right","0.622464895248","965.533258915","4.37753510475","970.084456921","3.72165203094","973.80617094","2.27834796906","976.134971857","977.874928951","977.953724861","980.956709862","0","980.970857859","984.431382895",""
"sujeto_b3dd3930","1","1","17","17","984.590941906","direct","4","1","3","¿Cuántos dientes tiene un
 tiburón blanco?","6000","3000","","0","0","1","competitive","right","0.790274858475","985.381262064","4.20972514153","989.744062901","2.91618490219","992.660290003","3.08381509781","995.795105934","996.834095001","996.913339853","999.916285992","0","999.930332899","1004.74000788",""
"sujeto_b3dd3930","1","1","18","18","1004.87137699","inverse","4","1","1","¿Cuánto mide el paralelo Ecuador?","40.000km","70.000km","","0","0","1","competitive","left","0.683111906052","1005.55456805","4.31688809395","1010.03689098","4.05657887459","1014.09351087","1.94342112541","1016.07302499","1018.02915406","1018.10731792","1021.11032104","0","1021.12522793","1024.72779298",""
"sujeto_b3dd3930","1","1","19","19","1024.87602401","direct","4","1","2","¿Cuál fue el primer libro 
de Stephen King?","Carrie","The Stand","","1","1","1","competitive","right","0.727694034576","1025.60379004","4.27230596542","1030.04905796","3.48765206337","1033.53678107","2.51234793663","1036.10044909","1037.844491","1037.91852593","1040.92151308","1","1040.93580008","1045.41023993",""
"sujeto_b3dd3930","1","1","20","20","1045.53901291","inverse","2","1","3","¿Qué civilización practicaba
 la momificación?","Grecia","Egipto","right","0","0","1","competitive","right","0.632859945297","1046.1719749","4.3671400547","1050.70966792","3.22023105621","1053.92994595","2.77976894379","1056.76110387","1058.70040607","1058.77880001","1061.78178191","1","1061.79597998","1066.02451491",""
"sujeto_b3dd3930","1","1","21","21","1066.14790988","direct","4","1","4","¿Cuántos millones de visitas
 recibe google por minuto?","3.0","4.5","","0","0","1","competitive","right","0.792151927948","1066.94013","4.20784807205","1071.30430198","3.08582806587","1074.39018989","2.91417193413","1077.35528803","1078.87016106","1078.95687795","1081.95987797","0","1081.97383499","1089.09649301",""
"sujeto_b3dd3930","1","1","22","22","1089.22558904","inverse","1","1","3","La máquina de fax. se inventó en:","1843","1960","","0","0","1","competitive","left","0.558757781982","1089.78451085","4.44124221802","1094.38107085","3.22033905983","1097.60144997","2.77966094017","1100.43401599","1101.67613697","1101.75193286","1104.75486708","0","1104.76890302","1108.005229",""
"sujeto_b3dd3930","1","1","23","23","1108.17214489","direct","2","1","4","En la verdadera historia de los
 300 espartanos. habían:","300 soldados","4300 soldados","","1","1","1","competitive","left","1.0063688755","1109.1785779","3.9936311245","1113.34346795","4.07017302513","1117.41368008","1.92982697487","1119.3944149","1120.65564299","1120.72856688","1123.73153591","1","1123.74558806","1127.5445199",""
"sujeto_b3dd3930","1","1","24","24","1127.68067288","inverse","1","1","4","¿Cuántos milímetros crece
 el pelo por día?","0.4","0.04","","0","0","0","competitive","right","0.869117975235","1128.54985595","4.13088202477","1132.83676195","3.78102493286","1136.61782789","2.21897506714","1138.88755393","1140.64828897","1140.7215209","1143.72451591","0","1143.73958087","1150.474684",""
"sujeto_b3dd3930","1","1","25","25","1150.60898805","direct","4","1","1","¿Cuánto mide la baldosa gris 
clásica de Montevideo?","22x22 cm.","20x20 cm.","","1","1","1","competitive","right","1.0800101757","1151.68907499","3.9199898243","1155.76550508","4.30854392052","1160.07411098","1.69145607948","1161.79957891","1163.79484701","1163.86686897","1166.86986804","1","1166.88490486","1172.42769408",""
"sujeto_b3dd3930","1","1","26","26","1172.58978891","inverse","2","1","2","¿Cuántas películas de rápidos
 y furiosos hay?","10","11","","1","1","0","individual","left","0.756460905075","1173.34632587","4.24353909492","1177.72406101","2.27623915672","1180.00036097","3.72376084328","1183.775702","1185.13370585","1185.17748785","1188.17972708","1","1188.19486308","1190.229563",""
"sujeto_b3dd3930","1","1","27","27","1190.36337686","direct","3","1","1","¿Cuántos masters 1000
 ganó Del Potro?","1","2","","1","1","1","competitive","right","1.5431060791","1191.90654993","3.4568939209","1195.50318408","3.96131110191","1199.46456289","2.03868889809","1201.53766489","1203.29230595","1203.37136793","1206.37435603","1","1206.38963103","1213.78598905",""
"sujeto_b3dd3930","1","1","28","28","1213.92362785","inverse","2","1","4","¿Cuántos meses dura el 
embarazo de una leona?","3 meses","4 meses","","0","0","1","competitive","right","0.834114074707","1214.75781703","4.16588592529","1219.08146501","3.31632614136","1222.39783096","2.68367385864","1225.13260388","1226.24365687","1226.31698298","1229.31995606","0","1229.33418703","1236.05668902",""
"sujeto_b3dd3930","1","1","29","29","1236.18571305","direct","1","1","1","¿En qué año fue creado
 el sandwich?","1762","1653","","1","1","0","competitive","left","1.6002600193","1237.78604794","3.3997399807","1241.34389496","5.68416786194","1247.02810788","0.315832138062","1247.3956089","1248.99416995","1249.07873797","1252.08172488","1","1252.09675503","1255.56737685",""
"sujeto_b3dd3930","1","1","30","30","1255.7150259","inverse","4","1","2","El nombre de la moneda de Vietnam es:","Dinar","Dong","","0","0","1","competitive","right","0.505542993546","1256.22062087","4.49445700645","1260.86730409","3.94092202187","1264.80828786","2.05907797813","1266.91999292","1268.35193801","1268.43847489","1271.44146109","0","1271.455621","1277.624053",""
"sujeto_b3dd3930","1","1","31","31","1277.77301502","direct","2","1","1","¿cuantos aleteos puede dar 
un colibrí por segundo?","120","50","","0","0","0","competitive","left","1.01940608025","1278.79249406","3.98059391975","1282.91589689","3.6055688858","1286.52151108","2.3944311142","1288.96677208","1290.69918394","1290.78412199","1293.78710604","0","1293.80141902","1298.01369905",""
"sujeto_b3dd3930","1","1","32","32","1298.18679595","inverse","4","1","3","¿Qué altura promedio tienen
 los hombres uruguayos?","1.73 m","1.72 m","","1","1","1","competitive","left","0.631847143173","1298.81874204","4.36815285683","1303.37617803","3.68451690674","1307.0607419","2.31548309326","1309.42750001","1310.68992901","1310.76189399","1313.76487589","1","1313.77804589","1318.25398088",""
"sujeto_b3dd3930","1","2","1","33","1453.33408403","direct","1","1","1","¿En qué año nació 
el actor Bradd Pitt?","1967","1963","","1","1","1","competitive","left","1.63929104805","1454.97341704","3.36070895195","1458.47477388","2.63870692253","1461.11354303","3.36129307747","1464.52473593","1465.62051392","1465.70989895","1468.71289706","1","1468.72694302","1474.65452194","1318.26545691"
"sujeto_b3dd3930","1","2","2","34","1474.79786301","inverse","2","1","1","¿Cual es el segundo 
monte más alto?","Kanchenjunga","K2","","1","1","1","competitive","left","0.597753047943","1475.39565897","4.40224695206","1479.95223403","3.32442808151","1483.27672887","2.67557191849","1486.00257897","1487.45497203","1487.53763103","1490.54060006","1","1490.55487895","1493.98475289",""
"sujeto_b3dd3930","1","2","3","35","1494.12470388","direct","3","1","1","¿Cuándo finalizó la construcción
 del Palacio Legislativo?","1925","1917","","0","0","1","competitive","left","1.52211904526","1495.64686489","3.47788095474","1499.27991486","3.11097598076","1502.39095592","2.88902401924","1505.31354189","1506.95525002","1507.03155708","1510.03451395","0","1510.04855895","1515.74452686",""
"sujeto_b3dd3930","1","2","4","36","1515.88323188","inverse","3","1","3","¿Cuántos integrantes tenía
 en su inicio  el cuarteto de nos?","3","4","","1","1","1","competitive","right","0.730813980103","1516.61409092","4.2691860199","1521.05604291","2.91110801697","1523.96720004","3.08889198303","1527.09147","1528.22453308","1528.31010795","1531.31251097","1","1531.32650089","1536.97630906",""
"sujeto_b3dd3930","1","2","5","37","1537.1115489","direct","2","1","3","¿Qué valor tiene el número pi?","3.14","4.18","left","0","0","1","competitive","left","1.01079893112","1538.12239194","3.98920106888","1542.26531196","2.17304110527","1544.43842292","3.82695889473","1548.31741095","1549.771631","1549.85284591","1552.8558259","1","1552.86939788","1559.79036593",""
"sujeto_b3dd3930","1","2","6","38","1559.95685196","inverse","2","1","2","¿Cuál es la esperanza de vida
 en Uruguay?","75","77","","1","1","0","competitive","right","0.609704017639","1560.56662107","4.39029598236","1565.09669995","3.04595398903","1568.14271808","2.95404601097","1571.131037","1572.7848599","1572.86576295","1575.86875296","1","1575.88283396","1582.34585404",""
"sujeto_b3dd3930","1","2","7","39","1582.48695302","direct","1","1","2","¿Cuantos pisos tiene la torre 
de las comunicaciones?","26","32","","1","1","0","competitive","right","0.81498003006","1583.30200887","4.18501996994","1587.64240003","3.38851809502","1591.03095889","2.61148190498","1593.69248605","1595.52052498","1595.59375095","1598.59674597","1","1598.61180401","1600.75801587",""
"sujeto_b3dd3930","1","2","8","40","1600.89808297","inverse","2","1","4","¿En qué país sudamericano 
no hay McDonalds?","Bolivia","Venezuela","","0","0","1","competitive","left","0.672956943512","1601.57115006","4.32704305649","1606.06708002","3.70201992989","1609.76914096","2.29798007011","1612.11884689","1613.42819285","1613.50400901","1616.50696898","0","1616.52089691","1622.88061786",""
"sujeto_b3dd3930","1","2","9","41","1623.00553393","direct","3","1","1","¿En qué año empieza
 la Edad Media?","476","512","","1","1","1","competitive","right","0.603760957718","1623.60936189","4.39623904228","1628.176651","3.09071707726","1631.26743603","2.90928292274","1634.22961807","1635.63339686","1635.71378708","1638.71677589","1","1638.73193002","1641.7204659",""
"sujeto_b3dd3930","1","2","10","42","1641.84959888","inverse","3","1","4","¿Hace cuántos años surgió
 el ser humano?","200mil","300mil","","0","0","0","competitive","left","0.742909908295","1642.59257507","4.25709009171","1647.00612903","3.74246501923","1650.74866295","2.25753498077","1653.04091096","1654.92692995","1655.00907588","1658.01206398","0","1658.02623487","1661.33648205",""
"sujeto_b3dd3930","1","2","11","43","1661.46173787","direct","3","1","4","¿Cuántas cuadras tiene
 actualmente 18 de julio? ","36","33","","0","0","1","competitive","right","0.714966058731","1662.17677093","4.28503394127","1666.61642504","3.35538601875","1669.97187185","2.64461398125","1672.66821885","1674.37046289","1674.451581","1677.45457888","0","1677.46942997","1682.19245005",""
"sujeto_b3dd3930","1","2","12","44","1682.3216269","inverse","1","1","4","¿Qué juego de equipo se 
considera mas rápido?","Lacrosse","Badminton","","0","0","0","competitive","left","0.656373023987","1682.97805095","4.34362697601","1687.45876789","3.25331401825","1690.71213198","2.74668598175","1693.51102686","1694.75413609","1694.82905793","1697.8320179","0","1697.84603","1705.84117889",""
"sujeto_b3dd3930","1","2","13","45","1705.98510695","direct","1","1","3","¿Qué promedio de edad 
vive una jirafa? ","25","20","","0","0","1","competitive","left","0.749080896378","1706.73423195","4.25091910362","1711.15747309","2.83687210083","1713.99441004","3.16312789917","1717.20759606","1718.96913195","1719.04227901","1722.04520893","0","1722.06024885","1728.015975",""
"sujeto_b3dd3930","1","2","14","46","1728.16512609","inverse","1","1","2","¿Cuántos grandes lagos hay?","7","5","","0","0","1","competitive","left","0.872329950333","1729.03749895","4.12767004967","1733.30248785","1.75406002998","1735.05658793","4.24593997002","1739.35191488","1740.64406991","1740.72092795","1743.7239089","0","1743.73808408","1751.55253887",""
"sujeto_b3dd3930","1","2","15","47","1751.69072294","direct","3","1","2","¿Cuántos discos de estudio
 grabó Johhny Cash? ","54","43","","1","1","0","competitive","left","1.40504693985","1753.09581804","3.59495306015","1756.83080387","2.67998504639","1759.51085901","3.32001495361","1762.86492395","1764.14357185","1764.21680999","1767.21978998","1","1767.23396897","1773.88486385",""
"sujeto_b3dd3930","1","2","16","48","1774.01931286","inverse","4","1","1","¿Cuántos barrios tiene
 Montevideo? ","71","62","","0","0","1","competitive","left","0.725655078888","1774.745013","4.27434492111","1779.17627788","2.38375902176","1781.56010604","3.61624097824","1785.22645998","1786.233531","1786.31200099","1789.31495786","0","1789.32886696","1794.79090285",""
"sujeto_b3dd3930","1","2","17","49","1794.9335649","direct","3","1","3","¿Qué edad tiene Homero Simpson?","36","42","","0","0","1","competitive","right","2.62866187096","1797.56227088","2.37133812904","1800.12086201","2.14137911797","1802.26227999","3.85862088203","1806.17038488","1807.54642487","1807.62175608","1810.62476087","0","1810.63897896","1815.02769995",""
"sujeto_b3dd3930","1","2","18","50","1815.19046402","inverse","4","1","2","¿Cuántos países con monarquía 
hay en europa actualmente? ","6","10","","1","1","1","competitive","right","0.862016201019","1816.05252886","4.13798379898","1820.34786606","2.96369099617","1823.31159687","3.03630900383","1826.39836097","1827.83665109","1827.91708493","1830.92007995","1","1830.93419003","1837.09101987",""
"sujeto_b3dd3930","1","2","19","51","1837.218611","direct","2","1","3","¿Cuántos capítulos de
 Friends existen? ","236","228","","1","1","1","competitive","left","0.731137037277","1837.94982195","4.26886296272","1842.37541509","2.84133195877","1845.21678805","3.15866804123","1848.42646408","1849.73202896","1849.81099892","1852.81398106","1","1852.8290689","1855.20471001",""
"sujeto_b3dd3930","1","2","20","52","1855.33088303","inverse","1","1","3","¿Cuántas óperas compuso Mozart? ","27","22","","1","1","1","competitive","left","0.793042182922","1856.12399292","4.20695781708","1860.48450494","2.25443291664","1862.73898101","3.74556708336","1866.53625298","1867.82840395","1867.90462589","1870.90760899","1","1870.92167902","1878.23315287",""
"sujeto_b3dd3930","1","2","21","53","1878.377599","direct","4","1","3","¿Cuántos mundiales de fútbol 
femenino ha realizado FIFA? ","9","7","","1","1","1","competitive","right","0.807553052902","1879.18522406","4.1924469471","1883.52785087","2.26635408401","1885.79427505","3.73364591599","1889.57993793","1890.82363486","1890.89828396","1893.90125489","1","1893.91549397","1900.01796103",""
"sujeto_b3dd3930","1","2","22","54","1900.15105104","inverse","3","1","2","¿Cuál es la temperatura 
media anual en Montevideo? ","17.5","16.3","","0","0","1","competitive","left","0.673956155777","1900.82509589","4.32604384422","1905.30912495","2.96539187431","1908.27455807","3.03460812569","1911.36138391","1913.29998994","1913.37822604","1916.38122487","0","1916.39544201","1922.96498489",""
"sujeto_b3dd3930","1","2","23","55","1923.13442588","direct","2","1","2","¿En qué año se estrenó el
 videojuego The Sims? ","2000","2002","","0","0","0","competitive","right","0.663287878036","1923.797791","4.33671212196","1928.3040719","2.95063281059","1931.25474405","3.04936718941","1934.35496187","1936.21699286","1936.28950286","1939.29251289","0","1939.30772686","1946.70138693",""
"sujeto_b3dd3930","1","2","24","56","1946.85954785","inverse","2","1","1","¿Cuál es la canción con 
mas covers? ","Yesterday","Stand by me","","0","0","0","competitive","right","0.729419946671","1947.58901191","4.27058005333","1952.01713395","2.80089998245","1954.81810308","3.19910001755","1958.06775308","1959.46629286","1959.53633308","1962.53933191","0","1962.55333996","1966.72415304",""
"sujeto_b3dd3930","1","2","25","57","1966.85471106","direct","1","1","4","¿Cuánto duró la guerra
 de los 100 años?","116","123","","0","0","0","competitive","right","0.738517999649","1967.59327698","4.26148200035","1972.0083499","3.8659029007","1975.87431407","2.1340970993","1978.06016397","1979.54101896","1979.61165905","1982.61464691","0","1982.629704","1984.94948506",""
"sujeto_b3dd3930","1","2","26","58","1985.08107305","inverse","4","1","4","¿Qué color tiene la  bandera de Brasil?","Amarillo","Naranja","left","0","0","1","competitive","left","1.12428402901","1986.20543599","3.87571597099","1990.23720908","3.21923208237","1993.45650101","2.78076791763","1996.28750801","1997.85402107","1997.93919086","2000.94220686","1","2000.95643497","2003.98925805",""
"sujeto_b3dd3930","1","2","27","59","2004.141366","direct","4","1","3","¿Qué carabela de 
Colon no volvió del viaje?","Santa María","La pinta","","0","0","1","competitive","left","0.894218206406","2005.03562808","4.10578179359","2009.29663205","1.31299114227","2010.60966396","4.68700885773","2015.34682298","2016.83785105","2016.91644406","2019.91945505","0","2019.93335891","2022.03282785",""
"sujeto_b3dd3930","1","2","28","60","2022.16783404","inverse","4","1","4","¿Cuántos huesos tiene
 un adulto humano?","217","206","","0","0","1","competitive","left","0.574002027512","2022.74188685","4.42599797249","2027.32013392","1.6616768837","2028.98187208","4.3383231163","2033.35647297","2034.62751198","2034.70729089","2037.71027303","0","2037.72438407","2045.56209493",""
"sujeto_b3dd3930","1","2","29","61","2045.88315392","direct","1","1","1","¿Qué país africano fue 
fundado por esclavos?","Liberia","Chad","","0","0","0","competitive","left","0.75287103653","2046.63607192","4.24712896347","2051.0356369","4.45649695396","2055.49219608","1.54350304604","2057.07019591","2059.06187701","2059.13803506","2062.14046288","0","2062.15583301","2070.14453602",""
"sujeto_b3dd3930","1","2","30","62","2070.32807207","inverse","4","1","2","¿A cuánto asciende la cima
 del monte Everest?","7.990 mts","8.848 mts","","0","0","1","competitive","left","0.609311103821","2070.93745208","4.39068889618","2075.49870491","3.58266997337","2079.08144307","2.41733002663","2081.54937196","2082.73422885","2082.81742501","2085.82036185","0","2085.83460689","2093.01864791",""
"sujeto_b3dd3930","1","2","31","63","2093.15700603","direct","4","1","1","¿Cuál es el país mas chico?","Sealand","Luxemburgo","","1","1","1","competitive","left","0.665591001511","2093.82266998","4.33440899849","2098.3266809","3.87895298004","2102.20569801","2.12104701996","2104.36160493","2106.22513103","2106.29565692","2109.29862404","1","2109.31376886","2112.43606591",""
"sujeto_b3dd3930","1","2","32","64","2112.60137391","inverse","2","1","4","¿Cuántas pirámides hay en Egipto?","10000","11000","","1","1","1","competitive","left","2.3444788456","2114.9459219","2.6555211544","2117.75425005","2.20665812492","2119.96096897","3.79334187508","2123.80483794","2124.83843589","2124.90633607","2127.90929699","1","2127.924263","2133.03331304",""
"sujeto_b3dd3930","1","3","1","65","2268.43246603","direct","2","1","2","¿Cuál es el quinto país con 
mas extensión?","Canadá","Brasil","","1","1","0","competitive","right","0.815109014511","2269.24761796","4.18489098549","2273.586272","3.012373209","2276.59868693","2.987626791","2279.62024999","2280.95353293","2281.02203703","2284.02453494","1","2284.03880286","2291.76516795","2133.04461789"
"sujeto_b3dd3930","1","3","2","66","2291.924052","inverse","1","1","2","¿Qué rasgo facial no tiene
 la Mona Lisa?","Cejas","Pómulos","","0","0","1","competitive","right","0.77978014946","2292.70389605","4.22021985054","2297.09786296","3.47617483139","2300.57410407","2.52382516861","2303.13260293","2304.883003","2304.96701789","2307.96996307","0","2307.98532104","2314.25666404",""
"sujeto_b3dd3930","1","3","3","67","2314.403548","direct","4","1","3","¿Cuál es el país con 
mayor población?","Esados Unidos","China","right","0","0","1","competitive","right","0.787619113922","2315.19124293","4.21238088608","2319.5773499","2.6578950882","2322.23530793","3.3421049118","2325.62781596","2327.27382994","2327.346277","2330.34846807","1","2330.36329699","2333.73064494",""
"sujeto_b3dd3930","1","3","4","68","2333.86353993","inverse","1","1","1","La palabra dinosaurio significa","Lagarto Terrible","Lagarto Dragón","","1","1","0","competitive","left","0.846827983856","2334.71043301","4.15317201614","2339.01711988","3.64330196381","2342.66048408","2.35669803619","2345.05299497","2346.22327685","2346.30518198","2349.30818892","1","2349.32221389","2352.18405485",""
"sujeto_b3dd3930","1","3","5","69","2352.32304406","direct","2","1","3","¿Qué es el membrillero?","Arbol","Arbusto","","0","0","0","competitive","right","0.702542066574","2353.02565098","4.29745793343","2357.49738193","3.7502849102","2361.24770594","2.2497150898","2363.54744291","2365.5015409","2365.58250189","2368.5854609","0","2368.59973192","2375.06050706",""
"sujeto_b3dd3930","1","3","6","70","2375.18471193","inverse","3","1","3","¿Alrededor de qué planeta orbita 
el satélite Europa?","Jupiter","Saturno","","1","1","1","competitive","right","0.576133966446","2375.7609129","4.42386603355","2380.34193993","4.04395985603","2384.38594604","1.95604014397","2386.37708187","2387.92187285","2387.99445486","2390.99744201","1","2391.01154399","2393.21670604",""
"sujeto_b3dd3930","1","3","7","71","2393.36225104","direct","3","1","1","¿Donde fue el mundial de 
fútbol de 1954?","Suiza","Suecia","","1","1","1","competitive","left","0.656795978546","2394.01915288","4.34320402145","2398.51835489","2.75871109962","2401.27713203","3.24128890038","2404.56936908","2405.82196498","2405.90356898","2408.90655088","1","2408.92147398","2412.83325505",""
"sujeto_b3dd3930","1","3","8","72","2412.97541499","inverse","1","1","4","¿Cuál de los 7 enanitos
no tenía barba?","Bashful","Mudito","","1","1","0","competitive","right","0.669833183289","2413.64531803","4.33016681671","2418.16175604","4.33257699013","2422.49439406","1.66742300987","2424.213238","2425.79338408","2425.8640039","2428.86698794","1","2428.88116503","2433.81026006",""
"sujeto_b3dd3930","1","3","9","73","2433.95250201","direct","3","1","2","¿Cual red social es
mas utilizada mundialmente?","Instagram","Facebook","","1","1","0","competitive","right","0.699074029922","2434.65162492","4.30092597008","2439.10675097","3.87083792686","2442.97762895","2.12916207314","2445.15798497","2447.075387","2447.15800285","2450.16048098","1","2450.17667294","2453.10851288",""
"sujeto_b3dd3930","1","3","10","74","2453.24414396","inverse","4","1","1","¿Cuándo se inició la copa
 América de fútbol?","1916","1923","","1","1","1","competitive","left","0.72459602356","2453.96884608","4.27540397644","2458.41630507","3.11449503899","2461.53084397","2.88550496101","2464.46752501","2466.36450005","2466.45186996","2469.45481992","1","2469.46982002","2472.12590003",""
"sujeto_b3dd3930","1","3","11","75","2472.27086091","direct","3","1","4","¿Cuántos presidentes de EEUU
han muerto asesinados?","3","4","","0","0","1","competitive","right","1.22405791283","2473.49496508","3.77594208717","2477.40725493","3.12773299217","2480.53505206","2.87226700783","2483.44210386","2484.92602396","2484.99393606","2487.99687886","0","2488.01096892","2491.65506792",""
"sujeto_b3dd3930","1","3","12","76","2491.81343889","inverse","2","1","4","¿Cuántas veces participó EEUU
 en la copa América?","4","5","","0","0","1","competitive","left","0.657681941986","2492.4711659","4.34231805801","2496.98656297","3.06763482094","2500.05423903","2.93236517906","2503.03703594","2504.48111701","2504.55616903","2507.55913591","0","2507.57335496","2513.69053602",""
"sujeto_b3dd3930","1","3","13","77","2513.82950687","direct","4","1","1","¿Cuál de estos países 
no formaba la URSS?","Azeribayán","Afganistán","","0","0","1","competitive","left","0.69692492485","2514.52650404","4.30307507515","2518.99799991","4.10744595528","2523.1055069","1.89255404472","2525.050421","2526.36345792","2526.43406487","2529.43704391","0","2529.45100808","2537.43314695",""
"sujeto_b3dd3930","1","3","14","78","2537.56897306","inverse","1","1","1","¿En qué año se inauguró
 el teatro Solís?","1867","1856","","0","0","0","competitive","left","0.752726078033","2538.32174587","4.24727392197","2542.72722793","3.09750699997","2545.82477999","2.90249300003","2548.77771807","2549.83405805","2549.91289687","2552.91588902","0","2552.93000793","2559.57651901",""
"sujeto_b3dd3930","1","3","15","79","2559.71507096","direct","1","1","4","¿A qué velocidad vuela 
el avión más rápido?","3529","3874","","0","0","0","competitive","left","0.816830158234","2560.53194189","4.18316984177","2564.87005496","2.65691995621","2567.52701998","3.34308004379","2570.92183089","2572.67650485","2572.75624299","2575.75922894","0","2575.7746129","2577.88490391",""
"sujeto_b3dd3930","1","3","16","80","2578.00954008","inverse","3","1","4","¿De qué año es la primer 
película cinematográfica?","1897","1888","","0","0","0","competitive","right","0.525609016418","2578.53519487","4.47439098358","2583.16593409","4.79028391838","2587.95626307","1.20971608162","2589.20016408","2590.33246493","2590.41826797","2593.42122698","0","2593.43452692","2598.84428692",""
"sujeto_b3dd3930","1","3","17","81","2598.96988297","direct","2","1","3","¿Cuántos países 
tiene nuestro planeta?","191","194","","1","1","1","competitive","left","0.827487945557","2599.79743791","4.17251205444","2604.14282894","3.82165193558","2607.96452093","2.17834806442","2610.19437504","2611.55156994","2611.62889886","2614.63188791","1","2614.64580393","2617.88410401",""
"sujeto_b3dd3930","1","3","18","82","2618.01368308","inverse","2","1","2","¿Cuántos habitantes
 tiene Buenos Aires?","2.9000.000","3650000","","0","0","0","competitive","left","0.571833133698","2618.58561397","4.4281668663","2623.18404388","2.9856159687","2626.16972303","3.0143840313","2629.23604894","2630.63251185","2630.72127604","2633.72426295","0","2633.73734498","2639.56671",""
"sujeto_b3dd3930","1","3","19","83","2639.70511508","direct","2","1","1","¿Cuántos kilos forman una tonelada?","1000","1500","left","1","1","1","competitive","left","0.611742019653","2640.31690598","4.38825798035","2644.88080597","2.76811981201","2647.64896703","3.23188018799","2650.93137598","2652.8187139","2652.90003395","2655.90301299","1","2655.91724992","2661.87467098",""
"sujeto_b3dd3930","1","3","20","84","2662.01963091","inverse","4","1","4","¿Cuántos estados tiene la 
República del Perú? ","24","23","","0","0","1","competitive","left","0.500468015671","2662.52017093","4.49953198433","2667.19292307","3.04522609711","2670.23820901","2.95477390289","2673.22697592","2674.24914098","2674.32816005","2677.32849288","0","2677.34575486","2682.29106998",""
"sujeto_b3dd3930","1","3","21","85","2682.430094","direct","3","1","3","¿En qué año nació Cristóbal Colón? ","1451","1447","","0","0","1","competitive","left","0.542200088501","2682.97233891","4.4577999115","2687.58724189","3.33811998367","2690.92543197","2.66188001633","2693.63822889","2695.48412395","2695.55610394","2698.55907702","0","2698.57399702","2702.80199695",""
"sujeto_b3dd3930","1","3","22","86","2702.94229007","inverse","4","1","4","¿Cuánto mide la 
Montaña Aconcagua? ","6234","6962","","0","0","1","competitive","left","3.27628302574","2706.21864605","1.72371697426","2708.11269999","3.37992095947","2711.49266195","2.62007904053","2714.14875197","2715.43807602","2715.51722789","2718.52020693","0","2718.53409886","2725.71774006",""
"sujeto_b3dd3930","1","3","23","87","2725.85199404","direct","2","1","4","¿Cuánto mide el punto
 más profundo del océano? ","12508","11003","","0","0","1","competitive","left","0.994839191437","2726.84690499","4.00516080856","2731.01055503","2.78836297989","2733.79895806","3.21163702011","2737.06095695","2738.31241608","2738.39583206","2741.398803","0","2741.41305804","2745.61933208",""
"sujeto_b3dd3930","1","3","24","88","2745.76463604","inverse","1","1","3","¿Cuántos álbumes ha publicado 
el cantante Jaime Roos? ","41","34","","0","0","1","competitive","left","0.644385099411","2746.40908885","4.35561490059","2750.93672204","1.83634996414","2752.77311802","4.16365003586","2756.98633695","2758.4761939","2758.55512595","2761.55808091","0","2761.57332301","2767.7694869",""
"sujeto_b3dd3930","1","3","25","89","2767.90802002","direct","4","1","3","¿En qué año nació el 
ex-presidente Jorge Battle? ","1921","1927","","1","1","1","competitive","right","1.28427195549","2769.19235587","3.71572804451","2773.06547809","3.42193412781","2776.48745298","2.57806587219","2779.11626601","2780.84696698","2780.91779995","2783.92077708","1","2783.93464208","2787.42069387",""
"sujeto_b3dd3930","1","3","26","90","2787.55320501","inverse","1","1","3","¿Cuántas presidencias 
constitucionales  hubo en Uruguay? ","41","42","","0","0","1","competitive","left","0.658360004425","2788.21166801","4.34163999557","2792.72300696","3.96263194084","2796.68569994","2.03736805916","2798.75876689","2799.96250796","2800.0431819","2803.04617691","0","2803.06041694","2808.8440659",""
"sujeto_b3dd3930","1","3","27","91","2809.03218007","direct","1","1","2","¿Quién escribió mas sinfonías?","Mozart","Haydn","","1","1","0","competitive","left","0.768588066101","2809.80081105","4.2314119339","2814.20358801","2.76126599312","2816.964921","3.23873400688","2820.23713708","2821.45461893","2821.53898597","2824.54197407","1","2824.55613589","2828.30451107",""
"sujeto_b3dd3930","1","3","28","92","2828.45799589","inverse","4","1","2","¿En qué año nació Michael Jackson?","1958","1953","","1","1","1","competitive","left","0.614294052124","2829.07242894","4.38570594788","2833.61357188","3.52652096748","2837.14015889","2.47347903252","2839.64792895","2841.62616897","2841.69896698","2844.70195007","1","2844.71707702","2850.57940102",""
"sujeto_b3dd3930","1","3","29","93","2850.71848488","direct","3","1","2","¿En qué año entró en vigencia 
la ley antitabaco en Uruguay?","2005","2006","","1","1","1","competitive","right","0.635778903961","2851.35433292","4.36422109604","2855.90851402","3.81080007553","2859.71935701","2.18919992447","2861.943609","2863.53836393","2863.61119699","2866.614187","1","2866.62935495","2871.96334004",""
"sujeto_b3dd3930","1","3","30","94","2872.09826207","inverse","3","1","1","¿Cuándo se subió el 
primer video a youtube?","2004","2005","","0","0","1","competitive","left","0.514257907867","2872.61258888","4.48574209213","2877.25359488","1.46192002296","2878.71555901","4.53807997704","2883.28652191","2884.59218788","2884.67182899","2887.67480898","0","2887.68913007","2895.44451189",""
"sujeto_b3dd3930","1","3","31","95","2895.57427788","direct","2","1","1","¿Cuántos habitantes tiene India?","1200 millones","1300 millones","","0","0","0","competitive","right","0.775516986847","2896.34983897","4.22448301315","2900.73269606","1.94813799858","2902.68089795","4.05186200142","2906.78199792","2908.75163507","2908.83458304","2911.8375659","0","2911.85277104","2917.90028405",""
"sujeto_b3dd3930","1","3","32","96","2918.03777409","inverse","4","1","2","¿A qué edad murió Bob Marley?","36","37","","0","0","1","competitive","","0.690207004547","2918.72804904","4.30979299545","2923.194067","6","2929.19420004","0","2929.20958185","2931.10743594","2931.19714594","2934.20008087","0","2934.21429491","2937.31668806",""
"sujeto_b3dd3930","1","4","1","97","3096.76554608","direct","2","1","1","¿Cuantos años dirigió la selección 
uruguaya Tabarez?","15 años","13 años","","0","0","0","competitive","left","0.808319091797","3097.57393503","4.1916809082","3101.92020798","2.75276494026","3104.67301893","3.24723505974","3107.97078204","3109.16193295","3109.2390449","3112.24203086","0","3112.25631309","3119.32450891","2937.33373594"
"sujeto_b3dd3930","1","4","2","98","3119.47301197","inverse","4","1","1","¿Cuantas teclas tiene un teclado 
de computadora generalmente? ","Entre 99 y 108","Entre 109 y 113","","1","1","1","competitive","left","0.684906959534","3120.15798807","4.31509304047","3124.66530895","3.50660300255","3128.17195392","2.49339699745","3130.71666098","3131.71937108","3131.80082989","3134.80379605","1","3134.81782699","3137.18926597",""
"sujeto_b3dd3930","1","4","3","99","3137.37059188","direct","1","1","1","¿Cuál Departamento tiene
 mayor superficie?","Río Negro","Soriano","","0","0","0","competitive","left","0.742285966873","3138.11292291","4.25771403313","3142.54097986","3.2018969059","3145.74294305","2.7981030941","3148.59184194","3150.30532098","3150.37736797","3153.38034892","0","3153.39424396","3157.72034097",""
"sujeto_b3dd3930","1","4","4","100","3157.86224294","inverse","3","1","2","¿Cuál es el apellido de las 
hermanastras  de  cenicienta?","Tremaine","Truman","","0","0","1","competitive","left","0.867662906647","3158.72997499","4.13233709335","3163.01731396","4.77359580994","3167.79097104","1.22640419006","3169.05307889","3170.92260885","3171.0037179","3174.00672889","0","3174.02168107","3176.71649098",""
"sujeto_b3dd3930","1","4","5","101","3176.85635996","direct","4","1","4","¿Cuál película ganó un
 Oscar a mejor película?","Alto Impacto","Cache","","0","0","1","competitive","left","0.748597860336","3177.60502505","4.25140213966","3182.011801","4.15815114975","3186.16999197","1.84184885025","3188.04658985","3189.16598606","3189.24730706","3192.25029802","0","3192.26455188","3194.5291779",""
"sujeto_b3dd3930","1","4","6","102","3194.66583705","inverse","1","1","3","¿A cuántos centímetros
equivale la medida pié?","25","30","","0","0","1","competitive","right","1.22518706322","3195.89106607","3.77481293678","3199.82170486","3.99227786064","3203.81402302","2.00772213936","3205.85525393","3206.895262","3206.97315097","3209.97614503","0","3209.99011993","3215.3910799",""
"sujeto_b3dd3930","1","4","7","103","3215.52442908","direct","2","1","2","¿Qué departamento es mas grande?","Cerro Largo","Paysandú","","0","0","0","competitive","left","0.665632963181","3216.19013095","4.33436703682","3220.67984486","2.15421199799","3222.83411694","3.84578800201","3226.731848","3228.33155704","3228.40016198","3231.40313888","0","3231.41893601","3235.52851105",""
"sujeto_b3dd3930","1","4","8","104","3235.70170689","inverse","2","1","3","¿Quién pintó la Mona Lisa?","Picasso","Da Vinci","right","0","0","1","competitive","right","0.484405994415","3236.18617797","4.51559400558","3240.87564993","4.12242603302","3244.99813604","1.87757396698","3246.92724204","3248.53311205","3248.61080503","3251.61252189","1","3251.62889504","3253.79122806",""
"sujeto_b3dd3930","1","4","9","105","3253.94730186","direct","4","1","3","¿Cuántos litros hay en un galon?","3.54","3.78","","1","1","1","competitive","left","1.04381489754","3254.99116302","3.95618510246","3259.10215497","1.81099796295","3260.91319489","4.18900203705","3265.13470793","3266.65258908","3266.7377069","3269.74069285","1","3269.75489092","3275.54720902",""
"sujeto_b3dd3930","1","4","10","106","3275.67254496","inverse","4","1","1","¿Cuántas teclas tiene
 un piano moderno?","80","88","","0","0","1","competitive","right","0.722640037537","3276.39523292","4.27735996246","3280.82979989","3.07542300224","3283.90526485","2.92457699776","3286.88050508","3287.88900399","3287.96518302","3290.96811199","0","3290.98216701","3297.77996802",""
"sujeto_b3dd3930","1","4","11","107","3297.91722798","direct","4","1","3","¿Cuántos países hay en África?","54","62","","0","0","1","competitive","right","0.596040964127","3298.51333904","4.40395903587","3303.07181096","3.41950201988","3306.49137807","2.58049798012","3309.1237669","3310.81428599","3310.89203906","3313.89504385","0","3313.90914702","3321.71392107",""
"sujeto_b3dd3930","1","4","12","108","3321.89432693","inverse","1","1","3","¿En qué siglo se crearon
 las primeras pistolas?","XV","XIII","","1","1","1","competitive","left","0.704075813293","3322.59846807","4.29592418671","3327.03648496","2.89787888527","3329.93443108","3.10212111473","3333.08766198","3335.03557086","3335.10611391","3338.10912108","1","3338.12327385","3341.35638404",""
"sujeto_b3dd3930","1","4","13","109","3341.50816488","direct","3","1","4","¿En qué año se estrenó 
la serie friends?","1994","1995","","0","0","1","competitive","right","4.36730790138","3345.87553906","0.632692098618","3346.66223693","4.63421487808","3351.29651999","1.36578512192","3352.71438098","3354.58972192","3354.66581202","3357.66879487","0","3357.68306994","3362.68849802",""
"sujeto_b3dd3930","1","4","14","110","3362.83430099","inverse","3","1","4","¿En qué año nació Hitler?","1889","1887","","0","0","1","competitive","left","0.677206039429","3363.511549","4.32279396057","3368.00780702","3.43976020813","3371.44761086","2.56023979187","3374.05883408","3375.17247605","3375.26004601","3378.26048398","0","3378.27735806","3383.30433798",""
"sujeto_b3dd3930","1","4","15","111","3383.44597006","direct","1","1","4","¿Cuánto pesa un elefante Africano?","6000 kilos","5400 kilos","","0","0","0","competitive","left","1.24765515327","3384.69367194","3.75234484673","3388.59941506","2.86420106888","3391.46368289","3.13579893112","3394.65178394","3396.00770402","3396.09365892","3399.0966239","0","3399.10359907","3405.81064606",""
"sujeto_b3dd3930","1","4","16","112","3405.93881297","inverse","1","1","2","¿Qué porcentaje de 
la población es zurda?","10%","7%","","1","1","0","competitive","","0.651949167252","3406.59082699","4.34805083275","3411.096982","6","3417.09710097","0","3417.112638","3418.35569286","3418.43290997","3421.43584585","0","3421.44997787","3427.42966485",""
"sujeto_b3dd3930","1","4","17","113","3427.56799197","direct","1","1","2","¿En qué año se estrenó
Volver al futuro?","1984","1985","","0","0","1","competitive","left","1.35584187508","3428.92387795","3.64415812492","3432.70812798","2.99370384216","3435.70189404","3.00629615784","3438.74249601","3440.30428004","3440.37686896","3443.37983108","0","3443.39506197","3450.48651195",""
"sujeto_b3dd3930","1","4","18","114","3450.62939286","inverse","3","1","2","¿Cuántos jugadores hay en un 
equipo de baseball?","9","8","","1","1","0","competitive","left","0.608583927155","3451.23804188","4.39141607285","3455.78683496","2.65413784981","3458.44101405","3.34586215019","3461.83705592","3463.45130897","3463.52209902","3466.52504706","1","3466.54021001","3471.51645708",""
"sujeto_b3dd3930","1","4","19","115","3471.64421988","direct","2","1","1","¿Cuántos Oscar ganó
 la película titanic?","13","11","","1","1","1","competitive","right","0.677825927734","3472.32209086","4.32217407227","3476.79728508","4.44579601288","3481.24312186","1.55420398712","3482.83284307","3484.13490701","3484.21704888","3487.2199769","1","3487.23388004","3491.83656788",""
"sujeto_b3dd3930","1","4","20","116","3491.96939492","inverse","4","1","4","¿En qué año comenzó
la segunda guerra mundial?","1939","1976","left","0","0","1","competitive","left","0.646811962128","3492.61631608","4.35318803787","3497.14147806","2.51173305511","3499.65325308","3.48826694489","3503.1750989","3504.97498202","3505.0436089","3508.0465939","1","3508.06192398","3512.04906702",""
"sujeto_b3dd3930","1","4","21","117","3512.17938304","direct","2","1","4","¿Cuántos biomas hay en Uruguay?","5","4","","0","0","1","competitive","right","1.19590091705","3513.37535405","3.80409908295","3517.31923103","3.37707519531","3520.69635105","2.62292480469","3523.35315204","3525.15050888","3525.22125006","3528.22421598","0","3528.23847103","3534.48445392",""
"sujeto_b3dd3930","1","4","22","118","3534.62392807","inverse","2","1","3","¿Cuándo murió Pablo Escobar?","1993","1997","","1","1","1","competitive","right","0.780514001846","3535.40451097","4.21948599815","3539.79747391","2.33598995209","3542.13350296","3.66401004791","3545.84758496","3547.63041496","3547.69965506","3550.70050788","1","3550.71764088","3556.42131996",""
"sujeto_b3dd3930","1","4","23","119","3556.55166507","direct","1","1","4","¿Qué serie ha ganado mas premios?","Friends","Murphy Brown","","1","1","0","","","","","","","","","","","","","","","3561.57504702","3567.13662505",""
"sujeto_b3dd3930","1","4","24","120","3567.27441001","inverse","4","1","2","¿Cuántas fichas tiene el dominó?","26","28","","1","1","1","competitive","right","0.685187101364","3567.95966101","4.31481289864","3572.44807291","3.39258289337","3575.84071803","2.60741710663","3578.48142695","3579.5367229","3579.61677289","3582.61976504","1","3582.63296485","3587.87606597",""
"sujeto_b3dd3930","1","4","25","121","3588.01848698","direct","2","1","4","¿Cuántos son los dientes de leche?","20","25","","0","0","1","competitive","left","0.61912894249","3588.63772798","4.38087105751","3593.17501307","2.37983703613","3595.55491686","3.62016296387","3599.20894289","3600.91929293","3600.99342608","3603.99643087","0","3604.01136804","3606.15707994",""
"sujeto_b3dd3930","1","4","26","122","3606.29638386","inverse","3","1","3","¿Cuántos gramos son una onza?","22","28","","0","0","1","competitive","right","2.12552499771","3608.42194295","2.87447500229","3611.46799707","2.93187594414","3614.39991689","3.06812405586","3617.51626301","3619.51112008","3619.58459997","3622.58758092","0","3622.60276985","3628.89302993",""
"sujeto_b3dd3930","1","4","27","123","3629.037925","direct","3","1","1","¿Cuándo salió el primer album
 de los Beatles?","1963","1962","","1","1","1","competitive","left","1.78610396385","3630.82409406","3.21389603615","3634.19755101","2.878469944","3637.07606196","3.121530056","3640.23062205","3641.39419699","3641.46560192","3644.46860385","1","3644.48281002","3648.25250292",""
"sujeto_b3dd3930","1","4","28","124","3648.40104198","inverse","3","1","3","¿Quién fundó la empresa apple?","Carlos Slim","Steve Jobs","","1","1","1","competitive","right","1.78416490555","3650.18527508","3.21583509445","3653.57402706","3.13312697411","3656.7071979","2.86687302589","3659.62415886","3660.73883486","3660.82529998","3663.82828903","1","3663.84327006","3670.14110494",""
"sujeto_b3dd3930","1","4","29","125","3670.27710795","direct","4","1","2","¿Cuántos municipios hay
 en Montevideo?","8","7","","1","1","1","competitive","","0.803161859512","3671.08031893","4.19683814049","3675.4500699","6","3681.45019007","0","3681.46671104","3683.38050103","3683.45270491","3686.45567894","0","3686.47054291","3688.55168605",""
"sujeto_b3dd3930","1","4","30","126","3688.68916297","inverse","1","1","1","¿Cuántos kilómetros hay
 de Montevideo a Artigas?","632","599","","0","0","0","competitive","left","0.473229885101","3689.162467","4.5267701149","3693.86043787","2.35799503326","3696.21849489","3.64200496674","3699.91155195","3701.39467192","3701.46308088","3704.46605802","0","3704.48019004","3710.53225803",""
"sujeto_b3dd3930","1","4","31","127","3710.70216393","direct","2","1","2","¿En qué año nació 
Leonardo Da Vinci?","1452","1511","","1","1","0","competitive","left","0.699456930161","3711.40172505","4.30054306984","3715.87164807","3.00198888779","3718.87367606","2.99801111221","3721.923069","3723.77665901","3723.85815287","3726.86114097","1","3726.87522101","3730.02048707",""
"sujeto_b3dd3930","1","4","32","128","3730.17705989","inverse","3","1","1","¿A qué continente
 pertenece el país Gabón?","Africa","Oceanía","","0","0","1","competitive","left","0.499642848969","3730.67677999","4.50035715103","3735.36546993","3.36128783226","3738.72679806","2.63871216774","3741.39967203","3743.21134591","3743.28424788","3746.28446603","0","3746.30269504","3751.54061389",""
