"code","nro_aplicante","nro_bloque","nro_trial_bloque","nro_trial_global","show_game_type","choice_order","rival","pay_individual","pay_competitive","question","answer_left_text","answer_right_text","correct_answer","outcome_individual","outcome_competitive","outcome_rival","game_type","answer","social_time","rt_game_type","feedback_delay","show_question","answer_time","rt_answer_global","feedback_delay_2","show_jitter","jitter_time","show_outcome","outcome_time","outcome_participant_real","show_final_jitter","second_jitter_time","inicio_descanso"
"sujeto_0073942","1","1","1","1","895.371931076","direct","3","1","4","¿Cuántos centímetros corresponden
al talle 36 del calzado?","23","24","","0","0","1","competitive","right","2.09665417671","897.468683004","2.90334582329","900.54065299","4.07200193405","904.612724066","1.92799806595","906.594367981","907.62266016","907.695361137","910.698338985","0","910.712303162","912.874825001",""
"sujeto_0073942","1","1","2","2","913.015525103","inverse","3","1","2","¿Cuántas metros mide la Intendencia
Municipal de Montevideo? ","84","78","","0","0","1","competitive","right","1.26709413528","914.282689095","3.73290586472","918.166603088","3.35498714447","921.521662951","2.64501285553","924.21876812","926.096801043","926.169922113","929.172888994","0","929.18709898","931.279863119",""
"sujeto_0073942","1","1","3","3","931.422960043","direct","1","1","3","¿Cuántas La Pasiva
 hay en uruguay?","15","11","","1","1","1","competitive","left","2.28969192505","933.712700129","2.71030807495","936.578475952","2.86313009262","939.44164896","3.13686990738","942.612172127","944.223853111","944.297801971","947.300791025","1","947.314938068","951.592909098",""
"sujeto_0073942","1","1","4","4","951.720414162","inverse","3","1","3","¿De que color es la camiseta de uruguay?","blanca","celeste","right","1","1","1","competitive","right","0.923223018646","952.643681049","4.07677698135","956.872262955","2.22535800934","959.097666979","3.77464199066","962.922765017","964.127510071","964.207376003","967.210339069","1","967.224272966","970.678198099",""
"sujeto_0073942","1","1","5","5","970.841930151","direct","2","1","1","¿Cuánto metros mide
la torre Eiffel?","333","324","","1","1","1","competitive","left","0.955708026886","971.797706127","4.04429197311","975.979315042","3.3903260231","979.369682074","2.6096739769","982.03184104","983.552955151","983.633248091","986.636229038","1","986.650218964","993.686915159",""
"sujeto_0073942","1","1","6","6","993.835140944","inverse","3","1","4","¿Cuantas ciudades existen
 en todo el uruguay?","63","72","","0","0","1","individual","right","1.16748809814","995.002702951","3.83251190186","998.993664026","4.55896282196","1003.55268502","1.44103717804","1005.02827907","1006.08310199","1006.12905407","1009.13201594","0","1009.14594412","1016.77249694",""
"sujeto_0073942","1","1","7","7","1016.90293002","direct","1","1","1","¿Cuantos estados tiene África?","52","54","","1","1","0","competitive","left","1.31074690819","1018.21375394","3.68925309181","1022.05511808","3.04352903366","1025.09871411","2.95647096634","1028.08923793","1029.95327306","1030.02478313","1033.02775216","1","1033.04196405","1038.80299711",""
"sujeto_0073942","1","1","8","8","1038.94432211","inverse","4","1","4","¿En qué año nació
 Stephen Hawking?","1952","1942","","0","0","1","individual","right","1.09333109856","1040.03772116","3.90666890144","1044.08412313","2.34853410721","1046.43271995","3.65146589279","1050.13394094","1051.57821703","1051.61937594","1054.6223731","0","1054.63641214","1060.73577404",""
"sujeto_0073942","1","1","9","9","1060.87443614","direct","2","1","3","¿Cuánto años tenía Artigas
 cuando se fue a Paraguay?","56","57","","1","1","1","competitive","left","1.34726309776","1062.22175407","3.65273690224","1066.02878499","3.29493880272","1069.32376409","2.70506119728","1072.06232595","1073.61178994","1073.69779897","1076.70080614","1","1076.71463609","1082.76194",""
"sujeto_0073942","1","1","10","10","1082.93346095","inverse","1","1","2","¿Cuantos milímetros 
mide una hoja A2?","420x592","420x594","","0","0","1","competitive","left","1.10623407364","1084.03976297","3.89376592636","1088.08700204","5.51466393471","1093.60171103","0.485336065292","1094.14067101","1095.70887899","1095.79104495","1098.79400301","0","1098.80823612","1105.88187504",""
"sujeto_0073942","1","1","11","11","1106.01328111","direct","3","1","3","¿Cuál es la menor temperatura 
registrada en Uruguay?","-5.4","-7.4","","0","0","1","individual","left","2.28243398666","1108.29578805","2.71756601334","1111.18441916","3.49931311607","1114.68377709","2.50068688393","1117.23547816","1118.91749907","1118.9542141","1121.95717406","0","1121.97131014","1125.70458603",""
"sujeto_0073942","1","1","12","12","1125.84104013","inverse","2","1","2","¿Cuantos años hace que 
se fundó facebook?","18","17","","0","0","0","competitive","left","0.837707042694","1126.67879295","4.16229295731","1131.01166105","4.84704184532","1135.85877204","1.15295815468","1137.04717708","1138.41992307","1138.49683404","1141.49981213","0","1141.51378894","1144.28843307",""
"sujeto_0073942","1","1","13","13","1144.41605306","direct","1","1","4","¿Cuál animal es más
 pesado en promedio?","Rinoceronte","Hipopotamo","","0","0","0","competitive","right","0.954702854156","1145.37086511","4.04529714584","1149.61940813","5.61134004593","1155.23080111","0.388659954071","1155.65664101","1156.73586416","1156.80660295","1159.80954695","0","1159.82346916","1163.66447806",""
"sujeto_0073942","1","1","14","14","1163.79351997","inverse","1","1","2","¿Qué personaje de dragon ball 
murió más veces?","Chaoz","Krillin","","1","1","0","competitive","right","0.609253883362","1164.40282893","4.39074611664","1168.94816208","3.97658705711","1172.92480397","2.02341294289","1174.98243713","1176.44025397","1176.51645398","1179.51943612","1","1179.53458595","1187.30751014",""
"sujeto_0073942","1","1","15","15","1187.43673801","direct","3","1","2","La universidad de oxford. 
existe desde:","1096","1249","","1","1","0","competitive","left","1.82103991508","1189.25782299","3.17896008492","1192.5770781","4.13477897644","1196.71192193","1.86522102356","1198.6278491","1199.67662001","1199.74602699","1202.74900699","1","1202.76309013","1209.45394015",""
"sujeto_0073942","1","1","16","16","1209.58416414","inverse","3","1","1","¿Qué escritor latino ganó antes
 el premio nobel?"," García Marquez","Neruda","","0","0","1","individual","right","1.23457503319","1210.81880713","3.76542496681","1214.73800707","3.83675289154","1218.57483101","2.16324710846","1220.78960896","1222.52887917","1222.57318997","1225.57614803","0","1225.59124303","1229.0517621",""
"sujeto_0073942","1","1","17","17","1229.19309211","direct","4","1","3","¿Cuántos dientes tiene un
 tiburón blanco?","6000","3000","","0","0","1","competitive","right","1.48869299889","1230.68184114","3.51130700111","1234.34850907","4.3742878437","1238.722857","1.6257121563","1240.38214612","1241.42115307","1241.49970698","1244.502666","0","1244.51652598","1249.32488894",""
"sujeto_0073942","1","1","18","18","1249.47126198","inverse","4","1","1","¿Cuánto mide el paralelo Ecuador?","40.000km","70.000km","","0","0","1","individual","right","0.898488998413","1250.36979699","4.10151100159","1254.64220715","4.09454488754","1258.73684311","1.90545511246","1260.67614603","1262.63219905","1262.67778802","1265.68073106","0","1265.69496107","1269.29754114",""
"sujeto_0073942","1","1","19","19","1269.43335295","direct","4","1","2","¿Cuál fue el primer libro 
de Stephen King?","Carrie","The Stand","","1","1","1","competitive","left","2.44842290878","1271.88182402","2.55157709122","1274.6028471","3.04594016075","1277.64885116","2.95405983925","1280.637007","1282.38084006","1282.45452404","1285.45750308","1","1285.47272706","1289.947119",""
"sujeto_0073942","1","1","20","20","1290.10888696","inverse","2","1","3","¿Qué civilización practicaba
 la momificación?","Grecia","Egipto","right","0","0","1","competitive","right","0.7840321064","1290.89303112","4.2159678936","1295.27942801","3.52838182449","1298.80787015","2.47161817551","1301.31377196","1303.25304914","1303.33213496","1306.33510804","1","1306.34914303","1310.57794809",""
"sujeto_0073942","1","1","21","21","1310.71933508","direct","4","1","4","¿Cuántos millones de visitas
 recibe google por minuto?","3.0","4.5","","0","0","1","individual","right","2.48049521446","1313.19987607","2.51950478554","1315.89057899","4.53725290298","1320.42787695","1.46274709702","1321.94211507","1323.45700312","1323.50991297","1326.51288295","0","1326.52674294","1333.64889908",""
"sujeto_0073942","1","1","22","22","1333.78192401","inverse","1","1","3","La máquina de fax. se inventó en:","1843","1960","","0","0","1","competitive","left","0.929898023605","1334.71186709","4.07010197639","1338.93507004","4.0397541523","1342.97486806","1.9602458477","1344.98683906","1346.22895002","1346.30388808","1349.30684805","0","1349.32097316","1352.557266",""
"sujeto_0073942","1","1","23","23","1352.72445512","direct","2","1","4","En la verdadera historia de los
 300 espartanos. habían:","300 soldados","4300 soldados","","1","1","1","competitive","left","1.06739211082","1353.79189515","3.93260788918","1357.89546514","5.99936294556","1363.89487314","0.000637054443359","1363.947191","1365.20841813","1365.28095698","1368.28391504","1","1368.29837108","1372.10013294",""
"sujeto_0073942","1","1","24","24","1372.24913096","inverse","1","1","4","¿Cuántos milímetros crece
 el pelo por día?","0.4","0.04","","0","0","0","competitive","right","0.677697896957","1372.92687511","4.32230210304","1377.42196107","2.79386377335","1380.21588707","3.20613622665","1383.45523405","1385.21588516","1385.29030013","1388.29328108","0","1388.30814099","1395.04323816",""
"sujeto_0073942","1","1","25","25","1395.17955494","direct","4","1","1","¿Cuánto mide la baldosa gris 
clásica de Montevideo?","22x22 cm.","20x20 cm.","","1","1","1","competitive","right","1.85135602951","1397.03097606","3.14864397049","1400.35091615","3.22090601921","1403.57188606","2.77909398079","1406.40129113","1408.39654803","1408.48611593","1411.48910213","1","1411.50395799","1417.04674196",""
"sujeto_0073942","1","1","26","26","1417.18817496","inverse","2","1","2","¿Cuántas películas de rápidos
 y furiosos hay?","10","11","","1","1","0","competitive","right","0.711764097214","1417.90006304","4.28823590279","1422.36159897","3.29522800446","1425.65687394","2.70477199554","1428.39604402","1429.75403309","1429.83075809","1432.83372116","1","1432.84787202","1434.88256907",""
"sujeto_0073942","1","1","27","27","1435.03235197","direct","3","1","1","¿Cuántos masters 1000
 ganó Del Potro?","1","2","","1","1","1","individual","left","1.73251795769","1436.76494408","3.26748204231","1440.20483208","2.92007112503","1443.12494302","3.07992887497","1446.25531602","1448.00993705","1448.05632997","1451.05930114","1","1451.07430315","1458.47065496",""
"sujeto_0073942","1","1","28","28","1458.61012816","inverse","2","1","4","¿Cuántos meses dura el 
embarazo de una leona?","3 meses","4 meses","","0","0","1","competitive","right","1.02177786827","1459.63195109","3.97822213173","1463.75024605","2.6946709156","1466.44498205","3.3053290844","1469.80045009","1470.91153812","1470.98556495","1473.98853898","0","1474.00243711","1480.72491407",""
"sujeto_0073942","1","1","29","29","1480.869982","direct","1","1","1","¿En qué año fue creado
 el sandwich?","1762","1653","","1","1","0","competitive","left","0.770979881287","1481.64103413","4.22902011871","1486.04173493","2.97413492203","1489.01591611","3.02586507797","1492.09377408","1493.69228506","1493.76254916","1496.7655561","1","1496.77952695","1500.25015712",""
"sujeto_0073942","1","1","30","30","1500.38417006","inverse","4","1","2","El nombre de la moneda de Vietnam es:","Dinar","Dong","","0","0","1","competitive","right","2.16579198837","1502.55001307","2.83420801163","1505.55385399","2.50209498405","1508.05601215","3.49790501595","1511.60494399","1513.03693914","1513.10719705","1516.11018705","0","1516.12423015","1522.29260802",""
"sujeto_0073942","1","1","31","31","1522.44537711","direct","2","1","1","¿cuantos aleteos puede dar 
un colibrí por segundo?","120","50","","0","0","0","competitive","left","1.08161711693","1523.52706814","3.91838288307","1527.59915209","2.69675302505","1530.29595208","3.30324697495","1533.64920115","1535.38161993","1535.46846914","1538.46890497","0","1538.48504496","1542.69690704",""
"sujeto_0073942","1","1","32","32","1542.83866715","inverse","4","1","3","¿Qué altura promedio tienen
 los hombres uruguayos?","1.73 m","1.72 m","","1","1","1","individual","left","1.51430606842","1544.35304594","3.48569393158","1548.01060796","2.09529805183","1550.105968","3.90470194817","1554.05980897","1555.32223201","1555.36220694","1558.36518693","1","1558.37930608","1562.85289502",""
"sujeto_0073942","1","2","1","33","1699.76967907","direct","1","1","1","¿En qué año nació 
el actor Bradd Pitt?","1967","1963","","1","1","1","competitive","left","1.20429778099","1700.97404695","3.79570221901","1704.92393494","3.15703988075","1708.08103514","2.84296011925","1710.97481799","1712.07067013","1712.14230704","1715.14530206","1","1715.15953708","1721.08712697","1562.86849213"
"sujeto_0073942","1","2","2","34","1721.21110606","inverse","2","1","1","¿Cual es el segundo 
monte más alto?","Kanchenjunga","K2","","1","1","1","competitive","right","0.836932897568","1722.0481441","4.16306710243","1726.36872005","3.34231185913","1729.71107697","2.65768814087","1732.40268207","1733.85509896","1733.93801594","1736.94098711","1","1736.954355","1740.38424802",""
"sujeto_0073942","1","2","3","35","1740.52270913","direct","3","1","1","¿Cuándo finalizó la construcción
 del Palacio Legislativo?","1925","1917","","0","0","1","individual","left","1.46632909775","1741.98911214","3.53367090225","1745.67902613","2.62701892853","1748.30610514","3.37298107147","1751.71236706","1753.35288215","1753.39703512","1756.40000701","0","1756.41498303","1762.11247611",""
"sujeto_0073942","1","2","4","36","1762.25254416","inverse","3","1","3","¿Cuántos integrantes tenía
 en su inicio  el cuarteto de nos?","3","4","","1","1","1","competitive","left","0.945531129837","1763.19815397","4.05446887016","1767.40349913","3.72851800919","1771.13208008","2.27148199081","1773.43860006","1774.57171011","1774.65665412","1777.65963197","1","1777.67382503","1783.32364511",""
"sujeto_0073942","1","2","5","37","1783.45849895","direct","2","1","3","¿Qué valor tiene el número pi?","3.14","4.18","left","0","0","1","competitive","left","0.959534883499","1784.41808105","4.0404651165","1788.61651802","1.3235039711","1789.94008899","4.6764960289","1794.66600704","1796.12020802","1796.20261908","1799.205616","1","1799.21985507","1806.14083004",""
"sujeto_0073942","1","2","6","38","1806.27581811","inverse","2","1","2","¿Cuál es la esperanza de vida
 en Uruguay?","75","77","","1","1","0","competitive","left","0.852283000946","1807.12814498","4.14771699905","1811.42864609","3.95042300224","1815.3791101","2.04957699776","1817.47929215","1819.13287807","1819.21378613","1822.21679211","1","1822.23191094","1828.69490099",""
"sujeto_0073942","1","2","7","39","1828.83554912","direct","1","1","2","¿Cuantos pisos tiene la torre 
de las comunicaciones?","26","32","","1","1","0","competitive","right","0.748518943787","1829.58412004","4.25148105621","1833.99023104","3.2288749218","1837.21914697","2.7711250782","1840.02410698","1841.85287809","1841.9255321","1844.92851496","1","1844.94345593","1847.08966804",""
"sujeto_0073942","1","2","8","40","1847.22859097","inverse","2","1","4","¿En qué país sudamericano 
no hay McDonalds?","Bolivia","Venezuela","","0","0","1","competitive","left","0.767473936081","1847.99611402","4.23252606392","1852.38021493","2.4408519268","1854.82113004","3.5591480732","1858.43269801","1859.74202609","1859.81747794","1862.82042813","0","1862.83450413","1869.19418001",""
"sujeto_0073942","1","2","9","41","1869.37302804","direct","3","1","1","¿En qué año empieza
 la Edad Media?","476","512","","1","1","1","competitive","left","1.6841108799","1871.05718398","3.3158891201","1874.52830195","2.38080406189","1876.90916896","3.61919593811","1880.57764912","1881.98142195","1882.06335211","1885.06634593","1","1885.08047104","1888.068892",""
"sujeto_0073942","1","2","10","42","1888.19917798","inverse","3","1","4","¿Hace cuántos años surgió
 el ser humano?","200mil","300mil","","0","0","0","competitive","left","1.37896704674","1889.57818913","3.62103295326","1893.35439301","2.50268888474","1895.85712314","3.49731111526","1899.40489411","1901.29087996","1901.37318707","1904.3761611","0","1904.39101505","1907.70149016",""
"sujeto_0073942","1","2","11","43","1907.84252214","direct","3","1","4","¿Cuántas cuadras tiene
 actualmente 18 de julio? ","36","33","","0","0","1","individual","right","1.88463115692","1909.72722316","3.11536884308","1912.99788404","2.93621683121","1915.934165","3.06378316879","1919.04725599","1920.74883199","1920.79896808","1923.80190897","0","1923.81694412","1928.54323602",""
"sujeto_0073942","1","2","12","44","1928.70113897","inverse","1","1","4","¿Qué juego de equipo se 
considera mas rápido?","Lacrosse","Badminton","","0","0","0","competitive","right","0.854995965958","1929.55620503","4.14500403404","1933.87508011","3.22302508354","1937.09814715","2.77697491646","1939.92523408","1941.16833615","1941.2441771","1944.2471621","0","1944.26134801","1952.25650811",""
"sujeto_0073942","1","2","13","45","1952.4336791","direct","1","1","3","¿Qué promedio de edad 
vive una jirafa? ","25","20","","0","0","1","competitive","left","0.865463018417","1953.29918814","4.13453698158","1957.58854795","2.57154393196","1960.16013312","3.42845606804","1963.63715005","1965.39867711","1965.47307014","1968.47605109","0","1968.49022007","1974.44591808",""
"sujeto_0073942","1","2","14","46","1974.57568097","inverse","1","1","2","¿Cuántos grandes lagos hay?","7","5","","0","0","1","competitive","right","0.832810878754","1975.40854311","4.16718912125","1979.73177409","2.81939411163","1982.55123115","3.18060588837","1985.78298306","1987.07514095","1987.15085101","1990.15290999","0","1990.16788507","1997.98926806",""
"sujeto_0073942","1","2","15","47","1998.13726306","direct","3","1","2","¿Cuántos discos de estudio
 grabó Johhny Cash? ","54","43","","1","1","0","competitive","right","0.731878995895","1998.86918902","4.2681210041","2003.2936101","2.80555200577","2006.09922695","3.19444799423","2009.34518909","2010.62372899","2010.69594502","2013.69893098","1","2013.71390796","2020.36484694",""
"sujeto_0073942","1","2","16","48","2020.51890111","inverse","4","1","1","¿Cuántos barrios tiene
 Montevideo? ","71","62","","0","0","1","competitive","right","0.978283882141","2021.49723101","4.02171611786","2025.66985607","2.71829199791","2028.38821197","3.28170800209","2031.72115302","2032.72811913","2032.80632496","2035.80892897","0","2035.82403493","2041.2860291",""
"sujeto_0073942","1","2","17","49","2041.42505407","direct","3","1","3","¿Qué edad tiene Homero Simpson?","36","42","","0","0","1","competitive","right","0.822142839432","2042.24727201","4.17785716057","2046.59991813","2.00627708435","2048.60623503","3.99372291565","2052.64982796","2054.02588415","2054.102144","2057.10513306","0","2057.11929798","2061.50802112",""
"sujeto_0073942","1","2","18","50","2061.65397406","inverse","4","1","2","¿Cuántos países con monarquía 
hay en europa actualmente? ","6","10","","1","1","1","competitive","left","1.45023083687","2063.10425496","3.54976916313","2066.81066203","2.14552688599","2068.95623016","3.85447311401","2072.844136","2074.28243613","2074.36256909","2077.36554599","1","2077.37978697","2083.53659916",""
"sujeto_0073942","1","2","19","51","2083.66439509","direct","2","1","3","¿Cuántos capítulos de
 Friends existen? ","236","228","","1","1","1","competitive","left","0.883791208267","2084.54823208","4.11620879173","2088.82148099","2.52269792557","2091.34422207","3.47730207443","2094.87193704","2096.17750502","2096.25693703","2099.25993109","1","2099.27400303","2101.64890003",""
"sujeto_0073942","1","2","20","52","2101.79325199","inverse","1","1","3","¿Cuántas óperas compuso Mozart? ","27","22","","1","1","1","competitive","right","0.933927059174","2102.72722411","4.06607294083","2106.96143413","2.42075300217","2109.38222909","3.57924699783","2113.0132761","2114.30538607","2114.38178205","2117.38478494","1","2117.39895797","2124.70496416",""
"sujeto_0073942","1","2","21","53","2124.85445809","direct","4","1","3","¿Cuántos mundiales de fútbol 
femenino ha realizado FIFA? ","9","7","","1","1","1","individual","right","0.997740030289","2125.85227704","4.00225996971","2130.00962305","2.41256594658","2132.42223406","3.58743405342","2136.04267097","2137.28637409","2137.32815695","2140.33110309","1","2140.34524894","2146.44771814",""
"sujeto_0073942","1","2","22","54","2146.579638","inverse","3","1","2","¿Cuál es la temperatura 
media anual en Montevideo? ","17.5","16.3","","0","0","1","competitive","right","0.852596998215","2147.43228698","4.14740300179","2151.75397205","2.45432281494","2154.208359","3.54567718506","2157.80451393","2159.74310207","2159.82311797","2162.82606602","0","2162.84026313","2169.409796",""
"sujeto_0073942","1","2","23","55","2169.55885196","direct","2","1","2","¿En qué año se estrenó el
 videojuego The Sims? ","2000","2002","","0","0","0","competitive","right","1.0133960247","2170.57231498","3.9866039753","2174.71553111","2.46973109245","2177.18530416","3.53026890755","2180.76627302","2182.62765312","2182.70147395","2185.70445013","0","2185.71938705","2193.11285806",""
"sujeto_0073942","1","2","24","56","2193.27195716","inverse","2","1","1","¿Cuál es la canción con 
mas covers? ","Yesterday","Stand by me","","0","0","0","competitive","right","0.899274110794","2194.17129993","4.10072588921","2198.42719793","4.00506806374","2202.43233013","1.99493193626","2204.47951198","2205.87807798","2205.94701314","2208.94999504","0","2208.96393609","2213.13476706",""
"sujeto_0073942","1","2","25","57","2213.26616812","direct","1","1","4","¿Cuánto duró la guerra
 de los 100 años?","116","123","","0","0","0","competitive","left","0.849085092545","2214.11529899","4.15091490746","2218.42184615","2.38640999794","2220.80832505","3.61359000206","2224.47141409","2225.95225906","2226.02332211","2229.0263021","0","2229.04151201","2231.36131406",""
"sujeto_0073942","1","2","26","58","2231.49226999","inverse","4","1","4","¿Qué color tiene la  bandera de Brasil?","Amarillo","Naranja","left","0","0","1","individual","left","1.25102806091","2232.74336505","3.74897193909","2236.63143301","2.25085783005","2238.88233113","3.74914216995","2242.68118596","2244.24769998","2244.30024409","2247.30320597","1","2247.3173511","2250.35010004",""
"sujeto_0073942","1","2","27","59","2250.50244212","direct","4","1","3","¿Qué carabela de 
Colon no volvió del viaje?","Santa María","La pinta","","0","0","1","competitive","right","1.91489195824","2252.417413","3.08510804176","2255.69140196","3.947879076","2259.63934708","2.052120924","2261.74211311","2263.23309398","2263.31005812","2266.31292915","0","2266.32695103","2268.42638111",""
"sujeto_0073942","1","2","28","60","2268.56238604","inverse","4","1","4","¿Cuántos huesos tiene
 un adulto humano?","217","206","","0","0","1","competitive","right","1.48289895058","2270.04533005","3.51710104942","2273.71793103","1.90532493591","2275.623317","4.09467506409","2279.76673698","2281.03691006","2281.11903095","2284.12089014","0","2284.13614011","2291.97384",""
"sujeto_0073942","1","2","29","61","2292.10475993","direct","1","1","1","¿Qué país africano fue 
fundado por esclavos?","Liberia","Chad","","0","0","0","competitive","right","0.783560037613","2292.88837099","4.21643996239","2297.2623651","2.93091702461","2300.19335008","3.06908297539","2303.31314707","2305.30480313","2305.38087106","2308.383847","0","2308.39902997","2316.38888693",""
"sujeto_0073942","1","2","30","62","2316.57080197","inverse","4","1","2","¿A cuánto asciende la cima
 del monte Everest?","7.990 mts","8.848 mts","","0","0","1","competitive","right","1.53453803062","2318.10538411","3.46546196938","2321.72589016","1.88543510437","2323.61138511","4.11456489563","2327.77536702","2328.96015716","2329.04378796","2332.046767","0","2332.06081605","2339.2409091",""
"sujeto_0073942","1","2","31","63","2339.37932396","direct","4","1","1","¿Cuál es el país mas chico?","Sealand","Luxemburgo","","1","1","1","competitive","right","1.14906907082","2340.52846193","3.85093092918","2344.53720593","2.55009698868","2347.08734393","3.44990301132","2350.58727407","2352.45081401","2352.52165103","2355.52460909","1","2355.539639","2358.66194415",""
"sujeto_0073942","1","2","32","64","2358.82450104","inverse","2","1","4","¿Cuántas pirámides hay en Egipto?","10000","11000","","1","1","1","competitive","left","0.806910991669","2359.63152409","4.19308900833","2363.99342203","1.77588582039","2365.7693491","4.22411417961","2370.02798796","2371.06153512","2371.13133407","2374.13427496","1","2374.14735794","2379.256387",""
"sujeto_0073942","1","3","1","65","2550.2232101","direct","2","1","2","¿Cuál es el quinto país con 
mas extensión?","Canadá","Brasil","","1","1","0","competitive","left","1.07721996307","2551.30047703","3.92278003693","2555.37852716","2.33886003494","2557.71742606","3.66113996506","2561.42811108","2562.76084399","2562.83014393","2565.833148","1","2565.84776306","2573.57292604","2379.27090311"
"sujeto_0073942","1","3","2","66","2573.71558905","inverse","1","1","2","¿Qué rasgo facial no tiene
 la Mona Lisa?","Cejas","Pómulos","","0","0","1","competitive","left","0.700891017914","2574.41655898","4.29910898209","2578.87364101","3.81587290764","2582.68958616","2.18412709236","2584.92508006","2586.67541695","2586.75921798","2589.76219296","0","2589.77642202","2596.04776216",""
"sujeto_0073942","1","3","3","67","2596.17834496","direct","4","1","3","¿Cuál es el país con 
mayor población?","Esados Unidos","China","right","0","0","1","competitive","right","1.07713508606","2597.25555706","3.92286491394","2601.31890416","2.03663706779","2603.3555851","3.96336293221","2607.36924815","2609.01524711","2609.08776808","2612.09075594","1","2612.10473108","2615.47209215",""
"sujeto_0073942","1","3","4","68","2615.62131095","inverse","1","1","1","La palabra dinosaurio significa","Lagarto Terrible","Lagarto Dragón","","1","1","0","competitive","right","0.799201965332","2616.42055798","4.20079803467","2620.77531505","4.08720707893","2624.86256313","1.91279292107","2626.82908702","2627.99940801","2628.07961893","2631.08088303","1","2631.09701395","2633.95691013",""
"sujeto_0073942","1","3","5","69","2634.09834909","direct","2","1","3","¿Qué es el membrillero?","Arbol","Arbusto","","0","0","0","competitive","right","0.847181081772","2634.945611","4.15281891823","2639.25463295","3.77086591721","2643.02554393","2.22913408279","2645.30613899","2647.26024699","2647.34066606","2650.34090805","0","2650.35812116","2656.82214999",""
"sujeto_0073942","1","3","6","70","2656.97564101","inverse","3","1","3","¿Alrededor de qué planeta orbita 
el satélite Europa?","Jupiter","Saturno","","1","1","1","competitive","left","0.636871814728","2657.61261797","4.36312818527","2662.16658211","3.85692596436","2666.02356696","2.14307403564","2668.21765614","2669.76243901","2669.83602905","2672.83901715","1","2672.85321403","2675.05836105",""
"sujeto_0073942","1","3","7","71","2675.18754315","direct","3","1","1","¿Donde fue el mundial de 
fútbol de 1954?","Suiza","Suecia","","1","1","1","competitive","left","0.71395111084","2675.90156293","4.28604888916","2680.36000299","3.41551494598","2683.77558208","2.58448505402","2686.41027713","2687.66286516","2687.744982","2690.74796605","1","2690.76196599","2694.67290711",""
"sujeto_0073942","1","3","8","72","2694.81392598","inverse","1","1","4","¿Cuál de los 7 enanitos
no tenía barba?","Bashful","Mudito","","1","1","0","competitive","right","0.797623872757","2695.61161709","4.20237612724","2699.98600197","3.12248492241","2703.10852814","2.87751507759","2706.03688097","2707.61689711","2707.68826103","2710.69123602","1","2710.70543814","2715.63455796",""
"sujeto_0073942","1","3","9","73","2715.8111701","direct","3","1","2","¿Cual red social es
mas utilizada mundialmente?","Instagram","Facebook","","1","1","0","competitive","left","0.800383090973","2716.6116631","4.19961690903","2720.99704099","1.82448983192","2722.82157302","4.17551016808","2727.04759216","2728.96490598","2729.04938316","2732.05234098","1","2732.06660509","2735.00111198",""
"sujeto_0073942","1","3","10","74","2735.15300608","inverse","4","1","1","¿Cuándo se inició la copa
 América de fútbol?","1916","1923","","1","1","1","individual","right","0.965552091599","2736.11860895","4.0344479084","2740.32396698","2.88453793526","2743.20857096","3.11546206474","2746.37414813","2748.27158403","2748.30921793","2751.31217003","1","2751.32714009","2753.98326397",""
"sujeto_0073942","1","3","11","75","2754.14534712","direct","3","1","4","¿Cuántos presidentes de EEUU
han muerto asesinados?","3","4","","0","0","1","competitive","left","0.821185112","2754.96658516","4.178814888","2759.33073401","2.25378584862","2761.5845871","3.74621415138","2765.38250208","2766.86642003","2766.95115495","2769.95414495","0","2769.96839404","2773.61249208",""
"sujeto_0073942","1","3","12","76","2773.75509715","inverse","2","1","4","¿Cuántas veces participó EEUU
 en la copa América?","4","5","","0","0","1","competitive","right","0.98143696785","2774.73660302","4.01856303215","2778.91095304","3.52260994911","2782.43363214","2.47739005089","2784.96094394","2786.40506101","2786.47939801","2789.48234415","0","2789.49649906","2795.61367416",""
"sujeto_0073942","1","3","13","77","2795.74758315","direct","4","1","1","¿Cuál de estos países 
no formaba la URSS?","Azeribayán","Afganistán","","0","0","1","competitive","left","1.25999403","2797.007622","3.74000597","2800.888942","3.2266728878","2804.11568904","2.7733271122","2806.92210412","2808.23518515","2808.30722094","2811.31019807","0","2811.32416511","2819.30631709",""
"sujeto_0073942","1","3","14","78","2819.4424541","inverse","1","1","1","¿En qué año se inauguró
 el teatro Solís?","1867","1856","","0","0","0","competitive","right","0.806174993515","2820.24876094","4.19382500648","2824.60071301","2.9749019146","2827.57567811","3.0250980854","2830.65103316","2831.70733094","2831.78601003","2834.78900003","0","2834.80293703","2841.44891405",""
"sujeto_0073942","1","3","15","79","2841.57079911","direct","1","1","4","¿A qué velocidad vuela 
el avión más rápido?","3529","3874","","0","0","0","individual","right","0.4538230896","2842.02467203","4.5461769104","2846.725214","2.27138996124","2848.99664712","3.72861003876","2852.77722001","2854.53257298","2854.57899499","2857.58197713","0","2857.59719515","2859.70742798",""
"sujeto_0073942","1","3","16","80","2859.84898114","inverse","3","1","4","¿De qué año es la primer 
película cinematográfica?","1897","1888","","0","0","0","competitive","right","1.34360909462","2861.19263697","3.65639090538","2864.98826313","2.86532902718","2867.85365605","3.13467097282","2871.03817105","2872.17116404","2872.23988509","2875.24282098","0","2875.25694394","2880.6666801",""
"sujeto_0073942","1","3","17","81","2880.80914998","direct","2","1","3","¿Cuántos países 
tiene nuestro planeta?","191","194","","1","1","1","competitive","left","0.723483085632","2881.53267694","4.27651691437","2885.96578407","2.76383781433","2888.72966599","3.23616218567","2891.99969602","2893.35691309","2893.43475795","2896.43774915","1","2896.4511621","2899.68943715",""
"sujeto_0073942","1","3","18","82","2899.85320306","inverse","2","1","2","¿Cuántos habitantes
 tiene Buenos Aires?","2.9000.000","3650000","","0","0","0","competitive","right","0.872461080551","2900.72577214","4.12753891945","2905.00606799","3.84857082367","2908.85468006","2.15142917633","2911.05869007","2912.45595908","2912.54302001","2915.54602003","0","2915.56022596","2921.38963413",""
"sujeto_0073942","1","3","19","83","2921.52796698","direct","2","1","1","¿Cuántos kilos forman una tonelada?","1000","1500","left","1","1","1","competitive","left","0.877248048782","2922.40530109","4.12275195122","2926.70331407","1.86033201218","2928.563694","4.13966798782","2932.75261807","2934.63993001","2934.72189903","2937.724859","1","2937.7389791","2943.69641304",""
"sujeto_0073942","1","3","20","84","2943.84084511","inverse","4","1","4","¿Cuántos estados tiene la 
República del Perú? ","24","23","","0","0","1","competitive","right","0.686825037003","2944.52771497","4.313174963","2948.99777794","3.40584897995","2952.40369701","2.59415102005","2955.04866004","2956.07084608","2956.15052009","2959.15347815","0","2959.16671801","2964.11202908",""
"sujeto_0073942","1","3","21","85","2964.25178409","direct","3","1","3","¿En qué año nació Cristóbal Colón? ","1451","1447","","0","0","1","competitive","right","0.764854192734","2965.01670694","4.23514580727","2969.40814209","2.39747309685","2971.80568314","3.60252690315","2975.44186211","2977.28776813","2977.36035395","2980.36089611","0","2980.37794495","2984.60593915",""
"sujeto_0073942","1","3","22","86","2984.74611998","inverse","4","1","4","¿Cuánto mide la 
Montaña Aconcagua? ","6234","6962","","0","0","1","competitive","left","1.33456301689","2986.08075905","3.66543698311","2989.91655016","2.89907693863","2992.81567216","3.10092306137","2995.96898913","2997.25835514","2997.336555","3000.33951712","0","3000.35450006","3007.5381391",""
"sujeto_0073942","1","3","23","87","3007.68945408","direct","2","1","4","¿Cuánto mide el punto
 más profundo del océano? ","12508","11003","","0","0","1","competitive","right","1.19320821762","3008.88270903","3.80679178238","3012.83071899","3.23297190666","3016.06375408","2.76702809334","3018.88172412","3020.13324308","3020.21637511","3023.21938014","0","3023.23353601","3027.43980694",""
"sujeto_0073942","1","3","24","88","3027.58520913","inverse","1","1","3","¿Cuántos álbumes ha publicado 
el cantante Jaime Roos? ","41","34","","0","0","1","competitive","left","0.76949095726","3028.35476804","4.23050904274","3032.75806999","2.9356110096","3035.69374394","3.0643889904","3038.80826211","3040.29812694","3040.37684512","3043.37982106","0","3043.39407301","3049.58886909",""
"sujeto_0073942","1","3","25","89","3049.74511814","direct","4","1","3","¿En qué año nació el 
ex-presidente Jorge Battle? ","1921","1927","","1","1","1","individual","left","0.542632102966","3050.28783798","4.45736789703","3054.90262699","1.8000369072","3056.70273209","4.1999630928","3060.95268703","3062.68335915","3062.72098804","3065.72395515","1","3065.73903108","3069.22508001",""
"sujeto_0073942","1","3","26","90","3069.3900671","inverse","1","1","3","¿Cuántas presidencias 
constitucionales  hubo en Uruguay? ","41","42","","0","0","1","competitive","right","0.654664993286","3070.04483509","4.34533500671","3074.55969214","1.78396892548","3076.34370399","4.21603107452","3080.61040807","3081.81414795","3081.89601707","3084.89899802","0","3084.91333413","3090.696913",""
"sujeto_0073942","1","3","27","91","3090.83140707","direct","1","1","2","¿Quién escribió mas sinfonías?","Mozart","Haydn","","1","1","0","competitive","right","0.919291973114","3091.75074697","4.08070802689","3095.99065113","3.48803305626","3099.47872496","2.51196694374","3102.04128695","3103.25876999","3103.34267998","3106.34564614","1","3106.35988593","3110.10891414",""
"sujeto_0073942","1","3","28","92","3110.26130295","inverse","4","1","2","¿En qué año nació Michael Jackson?","1958","1953","","1","1","1","competitive","left","0.774406909943","3111.03575706","4.22559309006","3115.41638708","2.64331507683","3118.05974698","3.35668492317","3121.46774507","3123.44598413","3123.51861501","3126.52158499","1","3126.53675413","3132.39910197",""
"sujeto_0073942","1","3","29","93","3132.57132196","direct","3","1","2","¿En qué año entró en vigencia 
la ley antitabaco en Uruguay?","2005","2006","","1","1","1","competitive","right","0.607439041138","3133.17881393","4.39256095886","3137.74547195","2.85129094124","3140.59686208","3.14870905876","3143.79520798","3145.38998604","3145.46390796","3148.46688509","1","3148.48171496","3153.81569195",""
"sujeto_0073942","1","3","30","94","3154.00260901","inverse","3","1","1","¿Cuándo se subió el 
primer video a youtube?","2004","2005","","0","0","1","competitive","left","0.723140001297","3154.72582507","4.2768599987","3159.15270901","2.04701590538","3161.19976711","3.95298409462","3165.18822193","3166.4928751","3166.57346296","3169.57646513","0","3169.5904901","3177.34609699",""
"sujeto_0073942","1","3","31","95","3177.51352","direct","2","1","1","¿Cuántos habitantes tiene India?","1200 millones","1300 millones","","0","0","0","competitive","left","0.700291872025","3178.21388102","4.29970812798","3182.66835594","3.23437690735","3185.90279508","2.76562309265","3188.71855307","3190.68818998","3190.77091002","3193.77290297","0","3193.78810716","3199.83558893",""
"sujeto_0073942","1","3","32","96","3199.97229505","inverse","4","1","2","¿A qué edad murió Bob Marley?","36","37","","0","0","1","competitive","right","1.11851000786","3201.090873","3.88148999214","3205.13001204","2.4947218895","3207.62479115","3.5052781105","3211.163553","3213.06140804","3213.14887714","3216.15184712","0","3216.16597199","3219.26844096",""
"sujeto_0073942","1","4","1","97","3358.24072814","direct","2","1","1","¿Cuantos años dirigió la selección 
uruguaya Tabarez?","15 años","13 años","","0","0","0","competitive","left","0.80011510849","3359.04091096","4.19988489151","3363.41065598","2.88417005539","3366.29487014","3.11582994461","3369.46133709","3370.65251112","3370.73001003","3373.7303741","0","3373.74751306","3380.8195641","3219.28370595"
"sujeto_0073942","1","4","2","98","3380.98176503","inverse","4","1","1","¿Cuantas teclas tiene un teclado 
de computadora generalmente? ","Entre 99 y 108","Entre 109 y 113","","1","1","1","competitive","right","0.414119958878","3381.39595509","4.58588004112","3386.16958594","3.83529996872","3390.00492597","2.16470003128","3392.22240114","3393.22517514","3393.30682397","3396.309798","1","3396.32401013","3398.69543505",""
"sujeto_0073942","1","4","3","99","3398.82604313","direct","1","1","1","¿Cuál Departamento tiene
 mayor superficie?","Río Negro","Soriano","","0","0","0","competitive","right","0.909907102585","3399.736058","4.09009289742","3403.98200011","3.19285798073","3407.174927","2.80714201927","3410.01599598","3411.72890401","3411.80144095","3414.804425","0","3414.81870103","3419.1409061",""
"sujeto_0073942","1","4","4","100","3419.27053404","inverse","3","1","2","¿Cuál es el apellido de las 
hermanastras  de  cenicienta?","Tremaine","Truman","","0","0","1","competitive","left","0.72934794426","3419.99995303","4.27065205574","3424.42611194","3.47876405716","3427.90494013","2.52123594284","3430.47727895","3432.34675908","3432.42774415","3435.4306891","0","3435.44609094","3438.14200497",""
"sujeto_0073942","1","4","5","101","3438.31427693","direct","4","1","4","¿Cuál película ganó un
 Oscar a mejor película?","Alto Impacto","Cache","","0","0","1","competitive","right","0.674668073654","3438.98901105","4.32533192635","3443.48304915","3.1908249855","3446.67393613","2.8091750145","3449.53527594","3450.65463805","3450.73619294","3453.73836994","0","3453.75363493","3456.01826906",""
"sujeto_0073942","1","4","6","102","3456.15518808","inverse","1","1","3","¿A cuántos centímetros
equivale la medida pié?","25","30","","0","0","1","competitive","left","0.772711992264","3456.92796803","4.22728800774","3461.31169701","3.55020594597","3464.86194897","2.44979405403","3467.36253095","3468.40253997","3468.48106694","3471.48403597","0","3471.49731994","3476.89828515",""
"sujeto_0073942","1","4","7","103","3477.03210306","direct","2","1","2","¿Qué departamento es mas grande?","Cerro Largo","Paysandú","","0","0","0","competitive","right","0.717846870422","3477.75000215","4.28215312958","3482.20580697","3.55309200287","3485.75896096","2.44690799713","3488.25649095","3489.85625601","3489.94107103","3492.94404912","0","3492.95919895","3497.06916714",""
"sujeto_0073942","1","4","8","104","3497.21063495","inverse","2","1","3","¿Quién pintó la Mona Lisa?","Picasso","Da Vinci","right","0","0","1","competitive","left","0.646279096603","3497.85696006","4.3537209034","3502.38305998","1.07684588432","3503.45995116","4.92315411568","3508.43182611","3510.03770399","3510.11793804","3513.12092304","0","3513.13587093","3515.29820299",""
"sujeto_0073942","1","4","9","105","3515.48748398","direct","4","1","3","¿Cuántos litros hay en un galon?","3.54","3.78","","1","1","1","competitive","left","0.996476888657","3516.48403096","4.00352311134","3520.65876198","2.83713698387","3523.49594116","3.16286301613","3526.70930099","3528.22715902","3528.31070495","3531.31289196","1","3531.32816195","3537.11689401",""
"sujeto_0073942","1","4","10","106","3537.26328516","inverse","4","1","1","¿Cuántas teclas tiene
 un piano moderno?","80","88","","0","0","1","individual","right","0.687649011612","3537.95100498","4.31235098839","3542.43678498","2.05015206337","3544.48697901","3.94984793663","3548.48667693","3549.49515605","3549.53864503","3552.54162502","0","3552.555902","3559.35289407",""
"sujeto_0073942","1","4","11","107","3559.50709009","direct","4","1","3","¿Cuántos países hay en África?","54","62","","0","0","1","competitive","left","0.759867191315","3560.26702499","4.24013280869","3564.6650691","2.24288320541","3566.90801311","3.75711679459","3570.69813609","3572.38869905","3572.46748805","3575.47047114","0","3575.48442197","3583.28920007",""
"sujeto_0073942","1","4","12","108","3583.41952014","inverse","1","1","3","¿En qué siglo se crearon
 las primeras pistolas?","XV","XIII","","1","1","1","individual","left","0.522763967514","3583.94236302","4.47723603249","3588.577106","2.95988702774","3591.53703904","3.04011297226","3594.61119509","3596.55910015","3596.59555316","3599.59851503","1","3599.61353111","3602.84488201",""
"sujeto_0073942","1","4","13","109","3603.03140903","direct","3","1","4","¿En qué año se estrenó 
la serie friends?","1994","1995","","0","0","1","competitive","right","1.07755303383","3604.10900903","3.92244696617","3608.18769002","3.10526895523","3611.29302597","2.89473104477","3614.23766112","3616.112957","3616.18902206","3619.19200516","0","3619.20724511","3624.21332216",""
"sujeto_0073942","1","4","14","110","3624.35873604","inverse","3","1","4","¿En qué año nació Hitler?","1889","1887","","0","0","1","competitive","left","1.04830789566","3625.40711212","3.95169210434","3629.53165412","2.83331012726","3632.36502504","3.16668987274","3635.58180499","3636.69615006","3636.76673698","3639.76972103","0","3639.78392005","3644.8108871",""
"sujeto_0073942","1","4","15","111","3644.95273995","direct","1","1","4","¿Cuánto pesa un elefante Africano?","6000 kilos","5400 kilos","","0","0","0","competitive","right","0.647243976593","3645.60002995","4.35275602341","3650.12549996","2.25052404404","3652.376086","3.74947595596","3656.17553902","3657.53145814","3657.61121893","3660.61287713","0","3660.62783599","3667.33487296",""
"sujeto_0073942","1","4","16","112","3667.4963131","inverse","1","1","2","¿Qué porcentaje de 
la población es zurda?","10%","7%","","1","1","0","competitive","right","0.668682098389","3668.16504097","4.33131790161","3672.669976","3.48101592064","3676.15103316","2.51898407936","3678.72098613","3679.96409702","3680.03935003","3683.04233694","1","3683.05635095","3689.03608394",""
"sujeto_0073942","1","4","17","113","3689.17442012","direct","1","1","2","¿En qué año se estrenó
Volver al futuro?","1984","1985","","0","0","1","competitive","right","0.835626125336","3690.01009202","4.16437387466","3694.34561515","4.03947710991","3698.38513303","1.96052289009","3700.398175","3701.95999503","3702.03282905","3705.03580713","0","3705.05010915","3712.14087701",""
"sujeto_0073942","1","4","18","114","3712.28469706","inverse","3","1","2","¿Cuántos jugadores hay en un 
equipo de baseball?","9","8","","1","1","0","competitive","right","0.672341823578","3712.95710897","4.32765817642","3717.44307804","2.21993398666","3719.66307902","3.78006601334","3723.49344611","3725.10773802","3725.1790781","3728.18206","1","3728.19592094","3733.17316508",""
"sujeto_0073942","1","4","19","115","3733.31473112","direct","2","1","1","¿Cuántos Oscar ganó
 la película titanic?","13","11","","1","1","1","competitive","left","1.51432800293","3734.82910514","3.48567199707","3738.47202015","2.47302103043","3740.94510007","3.52697896957","3744.521492","3745.82356405","3745.90637612","3748.90934706","1","3748.92432308","3753.52489495",""
"sujeto_0073942","1","4","20","116","3753.6923151","inverse","4","1","4","¿En qué año comenzó
la segunda guerra mundial?","1939","1976","left","0","0","1","competitive","left","1.11076116562","3754.80312109","3.88923883438","3758.848387","1.83767199516","3760.68610001","4.16232800484","3764.89866114","3766.69851494","3766.78352499","3769.78649807","1","3769.80154109","3773.78869295",""
"sujeto_0073942","1","4","21","117","3773.919415","direct","2","1","4","¿Cuántos biomas hay en Uruguay?","5","4","","0","0","1","competitive","right","1.49867987633","3775.41816306","3.50132012367","3779.07280803","2.64323282242","3781.71608114","3.35676717758","3785.12449908","3786.92085814","3786.99216199","3789.99509716","0","3790.01025414","3796.25966597",""
"sujeto_0073942","1","4","22","118","3796.41128898","inverse","2","1","3","¿Cuándo murió Pablo Escobar?","1993","1997","","1","1","1","competitive","right","0.86882185936","3797.28021693","4.13117814064","3801.55323911","2.81186819077","3804.36517215","3.18813180923","3807.58726716","3809.37008309","3809.45622802","3812.45690203","1","3812.47260094","3818.17622495",""
"sujeto_0073942","1","4","23","119","3818.32531095","direct","1","1","4","¿Qué serie ha ganado mas premios?","Friends","Murphy Brown","","1","1","0","competitive","left","1.49578499794","3819.82116508","3.50421500206","3823.48251009","3.51563501358","3826.998209","2.48436498642","3829.53289795","3830.88531208","3830.96734715","3833.968894","1","3833.98476315","3839.54640293",""
"sujeto_0073942","1","4","24","120","3839.702389","inverse","4","1","2","¿Cuántas fichas tiene el dominó?","26","28","","1","1","1","individual","right","0.630733966827","3840.33316898","4.36926603317","3844.85893893","2.93417906761","3847.79316616","3.06582093239","3850.91009903","3851.96542096","3852.01152706","3855.01449895","1","3855.02843094","3860.27154016",""
"sujeto_0073942","1","4","25","121","3860.41322613","direct","2","1","4","¿Cuántos son los dientes de leche?","20","25","","0","0","1","competitive","left","0.914921045303","3861.32821512","4.0850789547","3865.56705594","3.21403312683","3868.7811501","2.78596687317","3871.60237002","3873.31274605","3873.38669395","3876.38967395","0","3876.40490794","3878.55062699",""
"sujeto_0073942","1","4","26","122","3878.68991995","inverse","3","1","3","¿Cuántos gramos son una onza?","22","28","","0","0","1","competitive","right","1.07718706131","3879.76715302","3.92281293869","3883.86244106","3.03165793419","3886.89416313","2.96834206581","3889.89634514","3891.89120507","3891.96438503","3894.96738005","0","3894.98250794","3901.27275896",""
"sujeto_0073942","1","4","27","123","3901.41672015","direct","3","1","1","¿Cuándo salió el primer album
 de los Beatles?","1963","1962","","1","1","1","individual","right","0.829410076141","3902.24620104","4.17058992386","3906.59123302","2.33792304993","3908.92920113","3.66207695007","3912.64068699","3913.80429506","3913.84277201","3916.84573793","1","3916.85985398","3920.63190794",""
"sujeto_0073942","1","4","28","124","3920.76157498","inverse","3","1","3","¿Quién fundó la empresa apple?","Carlos Slim","Steve Jobs","","1","1","1","competitive","right","0.848545074463","3921.61016703","4.15145492554","3925.93289304","1.8072078228","3927.74014211","4.1927921772","3931.98398614","3933.09867096","3933.16962314","3936.17260194","1","3936.18656516","3942.48442507",""
"sujeto_0073942","1","4","29","125","3942.65483212","direct","4","1","2","¿Cuántos municipios hay
 en Montevideo?","8","7","","1","1","1","competitive","right","1.03635597229","3943.69123316","3.96364402771","3947.79586411","2.38826608658","3950.18417311","3.61173391342","3953.84545207","3955.76023793","3955.83086514","3958.83385515","1","3958.847996","3960.92915201",""
"sujeto_0073942","1","4","30","126","3961.11737394","inverse","1","1","1","¿Cuántos kilómetros hay
 de Montevideo a Artigas?","632","599","","0","0","0","competitive","left","0.929235935211","3962.04668307","4.07076406479","3966.28840399","3.68873000145","3969.977175","2.31126999855","3972.33929706","3973.82244706","3973.907161","3976.910151","0","3976.92440605","3982.97651911",""
"sujeto_0073942","1","4","31","127","3983.10914302","direct","2","1","2","¿En qué año nació 
Leonardo Da Vinci?","1452","1511","","1","1","0","competitive","left","0.732011795044","3983.84120607","4.26798820496","3988.26612496","2.32802295685","3990.59419298","3.67197704315","3994.30012107","3996.15288615","3996.23528409","3999.23692203","1","3999.25301409","4002.39943004",""
"sujeto_0073942","1","4","32","128","4002.53734303","inverse","3","1","1","¿A qué continente
 pertenece el país Gabón?","Africa","Oceanía","","0","0","1","competitive","left","1.22084999084","4003.75824308","3.77915000916","4007.68984294","2.94634890556","4010.63625598","3.05365109444","4013.72530103","4015.53691411","4015.60975409","4018.61273098","0","4018.62801409","4023.86588216",""
