"code","nro_aplicante","nro_bloque","nro_trial_bloque","nro_trial_global","show_game_type","choice_order","rival","pay_individual","pay_competitive","question","answer_left_text","answer_right_text","correct_answer","outcome_individual","outcome_competitive","outcome_rival","game_type","answer","social_time","rt_game_type","feedback_delay","show_question","answer_time","rt_answer_global","feedback_delay_2","show_jitter","jitter_time","show_outcome","outcome_time","outcome_participant_real","show_final_jitter","second_jitter_time","inicio_descanso"
"sujeto_0020703","1","1","1","1","897.02499795","direct","3","1","4","¿Cuántos centímetros corresponden
al talle 36 del calzado?","23","24","","0","0","1","competitive","right","1.1376619339","898.162699938","3.8623380661","902.178215981","2.68944191933","904.867724895","3.31055808067","908.228856087","909.257182121","909.329939127","912.332928896","0","912.346785069","914.509033918",""
"sujeto_0020703","1","1","2","2","914.648395061","inverse","3","1","2","¿Cuántas metros mide la Intendencia
Municipal de Montevideo? ","84","78","","0","0","1","competitive","right","0.950281143188","915.598740101","4.04971885681","919.82020402","5.06350111961","924.883745909","0.936498880386","925.855652094","927.733005047","927.806299925","930.809276104","0","930.823300123","932.916038036",""
"sujeto_0020703","1","1","3","3","933.041561127","direct","1","1","3","¿Cuántas La Pasiva
 hay en uruguay?","15","11","","1","1","1","competitive","left","1.47314190865","934.514746904","3.52685809135","938.18046093","2.93722987175","941.117758036","3.06277012825","944.23070097","945.842386007","945.914879084","948.917812109","1","948.933377981","953.211715937",""
"sujeto_0020703","1","1","4","4","953.337985992","inverse","3","1","3","¿De que color es la camiseta de uruguay?","blanca","celeste","right","1","1","1","competitive","right","1.13171291351","954.469746113","3.86828708649","958.488574982","2.24111580849","960.729729891","3.75888419151","964.540452957","965.745225906","965.841960907","968.844932079","1","968.858926058","972.312839985",""
"sujeto_0020703","1","1","5","5","972.445435047","direct","2","1","1","¿Cuánto metros mide
la torre Eiffel?","333","324","","1","1","1","competitive","right","1.6913151741","974.136796951","3.3086848259","977.600321054","3.86444115639","981.46480298","2.13555884361","983.634829044","985.156183958","985.236208916","988.237087965","1","988.253266096","995.289047003",""
"sujeto_0020703","1","1","6","6","995.425570011","inverse","3","1","4","¿Cuantas ciudades existen
 en todo el uruguay?","63","72","","0","0","1","competitive","right","2.14117908478","997.566813946","2.85882091522","1000.57951903","5.81221985817","1006.39180899","0.18778014183","1006.61483908","1007.66964102","1007.74795294","1010.75093889","0","1010.76501203","1018.39158702",""
"sujeto_0020703","1","1","7","7","1018.51658893","direct","1","1","1","¿Cuantos estados tiene África?","52","54","","1","1","0","competitive","right","2.14215707779","1020.658813","2.85784292221","1023.67444396","2.91825294495","1026.59276199","3.08174705505","1029.72482204","1031.5888021","1031.65992808","1034.66289806","1","1034.677073","1040.43808889",""
"sujeto_0020703","1","1","8","8","1040.57844591","inverse","4","1","4","¿En qué año nació
 Stephen Hawking?","1952","1942","","0","0","1","competitive","right","1.42630696297","1042.00481796","3.57369303703","1045.73529005","3.82944107056","1049.56477189","2.17055892944","1051.76923704","1053.21300507","1053.28782701","1056.29080009","0","1056.30468512","1062.4040451",""
"sujeto_0020703","1","1","9","9","1062.53984189","direct","2","1","3","¿Cuánto años tenía Artigas
 cuando se fue a Paraguay?","56","57","","1","1","1","competitive","left","1.86294102669","1064.40283203","3.13705897331","1067.71326399","3.49954104424","1071.21287012","2.50045895576","1073.76325107","1075.31277394","1075.39777613","1078.40076494","1","1078.41471291","1084.46202207",""
"sujeto_0020703","1","1","10","10","1084.60331011","inverse","1","1","2","¿Cuantos milímetros 
mide una hoja A2?","420x592","420x594","","0","0","1","competitive","right","1.15045595169","1085.75381207","3.84954404831","1089.758044","4.85376095772","1094.61186504","1.14623904228","1095.80995703","1097.37839007","1097.4599731","1100.46104693","0","1100.47716308","1107.55080009",""
"sujeto_0020703","1","1","11","11","1107.71653199","direct","3","1","3","¿Cuál es la menor temperatura 
registrada en Uruguay?","-5.4","-7.4","","0","0","1","competitive","right","1.67024493217","1109.38684297","3.32975506783","1112.87065697","3.8731238842","1116.74382091","2.1268761158","1118.92055702","1120.60252595","1120.67203999","1123.67502308","0","1123.68927312","1127.42254901",""
"sujeto_0020703","1","1","12","12","1127.55823803","inverse","2","1","2","¿Cuantos años hace que 
se fundó facebook?","18","17","","0","0","0","competitive","left","1.15755009651","1128.71585393","3.84244990349","1132.69646692","3.27835202217","1135.97486091","2.72164797783","1138.73119807","1140.10390091","1140.18192196","1143.18488908","0","1143.20001507","1145.97463894",""
"sujeto_0020703","1","1","13","13","1146.10285091","direct","1","1","4","¿Cuál animal es más
 pesado en promedio?","Rinoceronte","Hipopotamo","","0","0","0","competitive","right","1.46296405792","1147.56588101","3.53703594208","1151.29059911","4.11626291275","1155.40692711","1.88373708725","1157.33980608","1158.41900706","1158.4906249","1161.49299407","0","1161.5081141","1165.34910107",""
"sujeto_0020703","1","1","14","14","1165.47880101","inverse","1","1","2","¿Qué personaje de dragon ball 
murió más veces?","Chaoz","Krillin","","1","1","0","competitive","right","1.74805617332","1167.22692204","3.25194382668","1170.63334799","4.0724902153","1174.70590305","1.9275097847","1176.684026","1178.14099693","1178.21828008","1181.22101903","1","1181.23570609","1189.00861192",""
"sujeto_0020703","1","1","15","15","1189.14207196","direct","3","1","2","La universidad de oxford. 
existe desde:","1096","1249","","1","1","0","individual","left","1.76975488663","1190.91189289","3.23024511337","1194.29554605","3.31431603432","1197.6099031","2.68568396568","1200.34570312","1201.39454293","1201.43086004","1204.43299198","1","1204.44820809","1211.13901091",""
"sujeto_0020703","1","1","16","16","1211.26953602","inverse","3","1","1","¿Qué escritor latino ganó antes
 el premio nobel?"," García Marquez","Neruda","","0","0","1","competitive","left","1.03729987144","1212.30690312","3.96270012856","1216.42318606","4.98768210411","1221.41093111","1.01231789589","1222.47451591","1224.21454096","1224.29217792","1227.29513001","0","1227.30911303","1230.76961994",""
"sujeto_0020703","1","1","17","17","1230.91278911","direct","4","1","3","¿Cuántos dientes tiene un
 tiburón blanco?","6000","3000","","0","0","1","competitive","right","1.36604714394","1232.27888298","3.63395285606","1236.06391096","2.85996890068","1238.92391992","3.14003109932","1242.09926391","1243.138237","1243.21779203","1246.22075009","0","1246.23469996","1251.04437709",""
"sujeto_0020703","1","1","18","18","1251.18828011","inverse","4","1","1","¿Cuánto mide el paralelo Ecuador?","40.000km","70.000km","","0","0","1","individual","left","1.64359307289","1252.83191705","3.35640692711","1256.34436798","3.43349695206","1259.77793193","2.56650304794","1262.39441895","1264.35054207","1264.396029","1267.39900708","0","1267.41310811","1271.01366401",""
"sujeto_0020703","1","1","19","19","1271.14972591","direct","4","1","2","¿Cuál fue el primer libro 
de Stephen King?","Carrie","The Stand","","1","1","1","competitive","left","1.07112598419","1272.22091293","3.92887401581","1276.287359","3.77346920967","1280.06088901","2.22653079033","1282.32129407","1284.06545496","1284.13902402","1287.14201498","1","1287.15704393","1291.63147807",""
"sujeto_0020703","1","1","20","20","1291.75887704","inverse","2","1","3","¿Qué civilización practicaba
 la momificación?","Grecia","Egipto","right","0","0","1","competitive","right","1.46000313759","1293.21892405","3.53999686241","1296.91494203","2.13391900063","1299.04895592","3.86608099937","1302.96480894","1304.9041059","1304.98348498","1307.98646307","1","1308.00142908","1312.23021698",""
"sujeto_0020703","1","1","21","21","1312.3710351","direct","4","1","4","¿Cuántos millones de visitas
 recibe google por minuto?","3.0","4.5","","0","0","1","competitive","right","0.841841936111","1313.21294308","4.15815806389","1317.52266502","3.47618103027","1320.99888706","2.52381896973","1323.55826497","1325.07297206","1325.14282012","1328.14574003","0","1328.15988111","1335.28259301",""
"sujeto_0020703","1","1","22","22","1335.41536713","inverse","1","1","3","La máquina de fax. se inventó en:","1843","1960","","0","0","1","competitive","left","1.06054806709","1336.47596097","3.93945193291","1340.55443096","5.35342383385","1345.9078939","0.646576166153","1346.60576606","1347.84783101","1347.92262411","1350.92564106","0","1350.93984604","1354.17610312",""
"sujeto_0020703","1","1","23","23","1354.30992413","direct","2","1","4","En la verdadera historia de los
 300 espartanos. habían:","300 soldados","4300 soldados","","1","1","1","competitive","right","1.350014925","1355.660007","3.649985075","1359.46355104","4.13336801529","1363.59698892","1.86663198471","1365.51509309","1366.77630997","1366.84938908","1369.85237503","1","1369.86635399","1373.66811991",""
"sujeto_0020703","1","1","24","24","1373.8012259","inverse","1","1","4","¿Cuántos milímetros crece
 el pelo por día?","0.4","0.04","","0","0","0","competitive","right","1.40787911415","1375.20914793","3.59212088585","1378.95548606","2.59740519524","1381.55297208","3.40259480476","1384.99042702","1386.75113702","1386.82587409","1389.82883596","0","1389.8437829","1396.57886291",""
"sujeto_0020703","1","1","25","25","1396.9307189","direct","4","1","1","¿Cuánto mide la baldosa gris 
clásica de Montevideo?","22x22 cm.","20x20 cm.","","1","1","1","individual","left","2.00423288345","1398.93502498","2.99576711655","1402.10191393","3.87302708626","1405.97500896","2.12697291374","1408.15182209","1410.14708591","1410.18543792","1413.18842793","1","1413.20351505","1418.74632311",""
"sujeto_0020703","1","1","26","26","1418.89149308","inverse","2","1","2","¿Cuántas películas de rápidos
 y furiosos hay?","10","11","","1","1","0","competitive","left","1.69348597527","1420.58502197","3.30651402473","1424.04731011","2.41563796997","1426.46298695","3.58436203003","1430.09663296","1431.45465398","1431.53249907","1434.53549004","1","1434.5499239","1436.58463311",""
"sujeto_0020703","1","1","27","27","1436.75284505","direct","3","1","1","¿Cuántos masters 1000
 ganó Del Potro?","1","2","","1","1","1","individual","left","1.80810499191","1438.5610261","3.19189500809","1441.92332411","3.41567397118","1445.33904409","2.58432602882","1447.97304201","1449.72763705","1449.77534008","1452.77831507","1","1452.79227996","1460.18860912",""
"sujeto_0020703","1","1","28","28","1460.32736397","inverse","2","1","4","¿Cuántos meses dura el 
embarazo de una leona?","3 meses","4 meses","","0","0","1","competitive","left","1.30763697624","1461.63505101","3.69236302376","1465.46653509","3.57743310928","1469.04402995","2.42256689072","1471.50175595","1472.61280489","1472.68687606","1475.68983006","0","1475.70370793","1482.42442894",""
"sujeto_0020703","1","1","29","29","1482.57654405","direct","1","1","1","¿En qué año fue creado
 el sandwich?","1762","1653","","1","1","0","individual","right","1.43248295784","1484.009094","3.56751704216","1487.73063302","3.08833193779","1490.81902504","2.91166806221","1493.77999997","1495.37856507","1495.41582394","1498.41878295","1","1498.43266702","1501.90329695",""
"sujeto_0020703","1","1","30","30","1502.03436995","inverse","4","1","2","El nombre de la moneda de Vietnam es:","Dinar","Dong","","0","0","1","competitive","left","1.11660885811","1503.15102291","3.88339114189","1507.19021797","3.32876491547","1510.51904392","2.67123508453","1513.223665","1514.65562892","1514.74193907","1517.74493408","0","1517.75907803","1523.92501903",""
"sujeto_0020703","1","1","31","31","1524.06069112","direct","2","1","1","¿cuantos aleteos puede dar 
un colibrí por segundo?","120","50","","0","0","0","competitive","left","2.71431612968","1526.7750771","2.28568387032","1529.23344207","3.35259509087","1532.58608294","2.64740490913","1535.28580689","1537.01703691","1537.0865109","1540.08950996","0","1540.10399389","1544.31627703",""
"sujeto_0020703","1","1","32","32","1544.45771098","inverse","4","1","3","¿Qué altura promedio tienen
 los hombres uruguayos?","1.73 m","1.72 m","","1","1","1","competitive","left","1.17132782936","1545.62911105","3.82867217064","1549.62802792","3.41603398323","1553.04413009","2.58396601677","1555.6784451","1556.94084597","1557.01329112","1560.01627612","1","1560.03117704","1564.50711393",""
"sujeto_0020703","1","2","1","33","1696.51661301","direct","1","1","1","¿En qué año nació 
el actor Bradd Pitt?","1967","1963","","1","1","1","individual","left","1.58644080162","1698.10311794","3.41355919838","1701.67396498","3.09912705421","1704.77313209","2.90087294579","1707.72394109","1708.81981707","1708.85891795","1711.861866","1","1711.87586498","1717.80345607","1564.52201891"
"sujeto_0020703","1","2","2","34","1717.96350789","inverse","2","1","1","¿Cual es el segundo 
monte más alto?","Kanchenjunga","K2","","1","1","1","individual","right","2.90161108971","1720.86516905","2.09838891029","1723.13293099","4.16819882393","1727.30117106","1.83180117607","1729.18513894","1730.637007","1730.68628502","1733.68926096","1","1733.70362401","1737.13352394",""
"sujeto_0020703","1","2","3","35","1737.27496099","direct","3","1","1","¿Cuándo finalizó la construcción
 del Palacio Legislativo?","1925","1917","","0","0","1","competitive","right","2.58711099625","1739.86212111","2.41288900375","1742.44481492","4.49829101562","1746.9431529","1.50170898438","1748.49366713","1750.13534093","1750.21057296","1753.21349907","0","1753.22868395","1758.92624807",""
"sujeto_0020703","1","2","4","36","1759.06384492","inverse","3","1","3","¿Cuántos integrantes tenía
 en su inicio  el cuarteto de nos?","3","4","","1","1","1","competitive","left","1.68623304367","1760.75012398","3.31376695633","1764.20585203","3.123295784","1767.32921195","2.876704216","1770.255615","1771.38870692","1771.45710802","1774.46007895","1","1774.47424912","1780.12403703",""
"sujeto_0020703","1","2","5","37","1780.26211691","direct","2","1","3","¿Qué valor tiene el número pi?","3.14","4.18","left","0","0","1","competitive","left","1.0969748497","1781.35915899","3.9030251503","1785.39962506","2.34749603271","1787.74716091","3.65250396729","1791.4324789","1792.88668895","1792.96902108","1795.97198296","1","1795.98502493","1802.90597606",""
"sujeto_0020703","1","2","6","38","1803.03687191","inverse","2","1","2","¿Cuál es la esperanza de vida
 en Uruguay?","75","77","","1","1","0","competitive","left","1.44123101234","1804.47815394","3.55876898766","1808.17834496","3.79676294327","1811.97515297","2.20323705673","1814.21247005","1815.86629701","1815.94633698","1818.94900703","1","1818.96392202","1825.42692709",""
"sujeto_0020703","1","2","7","39","1825.5687499","direct","1","1","2","¿Cuantos pisos tiene la torre 
de las comunicaciones?","26","32","","1","1","0","competitive","left","0.669764041901","1826.23858809","4.3302359581","1830.73737812","3.37777900696","1834.11519599","2.62222099304","1836.77233791","1838.60110998","1838.6734221","1841.6764009","1","1841.69142699","1843.83764791",""
"sujeto_0020703","1","2","8","40","1844.01040792","inverse","2","1","4","¿En qué país sudamericano 
no hay McDonalds?","Bolivia","Venezuela","","0","0","1","competitive","right","1.33474707603","1845.34520102","3.66525292397","1849.16621804","3.36189723015","1852.52818203","2.63810276985","1855.21656013","1856.5259099","1856.601403","1859.60438609","0","1859.61846805","1865.97817898",""
"sujeto_0020703","1","2","9","41","1866.13631797","direct","3","1","1","¿En qué año empieza
 la Edad Media?","476","512","","1","1","1","individual","right","1.67581105232","1867.8121779","3.32418894768","1871.29467702","2.85448884964","1874.14920902","3.14551115036","1877.34463096","1878.74840713","1878.79626799","1881.79924297","1","1881.81332612","1884.80188704",""
"sujeto_0020703","1","2","10","42","1884.94744492","inverse","3","1","4","¿Hace cuántos años surgió
 el ser humano?","200mil","300mil","","0","0","0","competitive","right","0.900751113892","1885.848243","4.09924888611","1890.11830091","4.57186198235","1894.69023204","1.42813801765","1896.17141199","1898.05746198","1898.13840508","1901.14136195","0","1901.15630889","1904.46678495",""
"sujeto_0020703","1","2","11","43","1904.64233303","direct","3","1","4","¿Cuántas cuadras tiene
 actualmente 18 de julio? ","36","33","","0","0","1","competitive","left","1.12883377075","1905.77121592","3.87116622925","1909.79660511","3.69958996773","1913.4962399","2.30041003227","1915.84736395","1917.54963613","1917.632236","1920.63521004","0","1920.6494391","1925.37572789",""
"sujeto_0020703","1","2","12","44","1925.53506398","inverse","1","1","4","¿Qué juego de equipo se 
considera mas rápido?","Lacrosse","Badminton","","0","0","0","competitive","left","0.640108823776","1926.17521501","4.35989117622","1930.67399311","3.68621397018","1934.36027002","2.31378602982","1936.72516489","1937.96822596","1938.0432179","1941.04502892","0","1941.06023097","1949.0530169",""
"sujeto_0020703","1","2","13","45","1949.17867899","direct","1","1","3","¿Qué promedio de edad 
vive una jirafa? ","25","20","","0","0","1","competitive","right","1.06549596786","1950.24424291","3.93450403214","1954.31989408","3.09531807899","1957.4152751","2.90468192101","1960.35402513","1962.11553407","1962.18843102","1965.19140506","0","1965.20652699","1971.16224194",""
"sujeto_0020703","1","2","14","46","1971.29100299","inverse","1","1","2","¿Cuántos grandes lagos hay?","7","5","","0","0","1","competitive","left","1.07619690895","1972.36724496","3.92380309105","1976.44812107","3.1720969677","1979.62026095","2.8279030323","1982.49856305","1983.79071903","1983.88396001","1986.88695097","0","1986.90081596","1994.72219992",""
"sujeto_0020703","1","2","15","47","1994.8563621","direct","3","1","2","¿Cuántos discos de estudio
 grabó Johhny Cash? ","54","43","","1","1","0","competitive","right","0.880862951279","1995.7372911","4.11913704872","2000.02379203","2.52448177338","2002.54831505","3.47551822662","2006.07549906","2007.35412312","2007.42764592","2010.43063712","1","2010.4448719","2017.09579992",""
"sujeto_0020703","1","2","16","48","2017.24966002","inverse","4","1","1","¿Cuántos barrios tiene
 Montevideo? ","71","62","","0","0","1","competitive","right","0.639597892761","2017.88930011","4.36040210724","2022.40476704","2.78445315361","2025.18929005","3.21554684639","2028.4555409","2029.4626081","2029.54081297","2032.54103112","0","2032.55725002","2038.01435208",""
"sujeto_0020703","1","2","17","49","2038.16228199","direct","3","1","3","¿Qué edad tiene Homero Simpson?","36","42","","0","0","1","competitive","right","0.947971820831","2039.11030293","4.05202817917","2043.29905796","2.94716906548","2046.24628997","3.05283093452","2049.33306694","2050.709095","2050.78483105","2053.7878089","0","2053.80205393","2058.19081402",""
"sujeto_0020703","1","2","18","50","2058.32027292","inverse","4","1","2","¿Cuántos países con monarquía 
hay en europa actualmente? ","6","10","","1","1","1","competitive","left","0.762988090515","2059.08330607","4.23701190948","2063.49280691","3.3684720993","2066.86132002","2.6315279007","2069.54340005","2070.98167205","2071.06190109","2074.06487799","1","2074.07880211","2080.23562694",""
"sujeto_0020703","1","2","19","51","2080.37024212","direct","2","1","3","¿Cuántos capítulos de
 Friends existen? ","236","228","","1","1","1","competitive","left","0.992027997971","2081.36233711","4.00797200203","2085.51831293","2.59801006317","2088.11636901","3.40198993683","2091.55298901","2092.85856295","2092.93801308","2095.94101691","1","2095.95519495","2098.33083797",""
"sujeto_0020703","1","2","20","52","2098.45660496","inverse","1","1","3","¿Cuántas óperas compuso Mozart? ","27","22","","1","1","1","competitive","left","0.924664020538","2099.38133812","4.07533597946","2103.59656405","2.5326731205","2106.12930393","3.4673268795","2109.64706993","2110.93920612","2111.01552391","2114.01704907","1","2114.03218412","2121.33788896",""
"sujeto_0020703","1","2","21","53","2121.52149391","direct","4","1","3","¿Cuántos mundiales de fútbol 
femenino ha realizado FIFA? ","9","7","","1","1","1","competitive","left","0.956795930862","2122.47835612","4.04320406914","2126.65887094","2.95336794853","2129.61230707","3.04663205147","2132.70928693","2133.95300007","2134.02793312","2137.03091311","1","2137.04407501","2143.14653897",""
"sujeto_0020703","1","2","22","54","2143.31427097","inverse","3","1","2","¿Cuál es la temperatura 
media anual en Montevideo? ","17.5","16.3","","0","0","1","competitive","right","1.16299295425","2144.47733903","3.83700704575","2148.46974397","3.19958090782","2151.66938305","2.80041909218","2154.52084589","2156.45944595","2156.53835797","2159.54105091","0","2159.556041","2166.12556505",""
"sujeto_0020703","1","2","23","55","2166.27740598","direct","2","1","2","¿En qué año se estrenó el
 videojuego The Sims? ","2000","2002","","0","0","0","competitive","right","1.15387201309","2167.43132305","3.84612798691","2171.42849398","3.1028277874","2174.53136301","2.8971722126","2177.48060298","2179.342592","2179.41516399","2182.41707206","0","2182.43327594","2189.82507801",""
"sujeto_0020703","1","2","24","56","2190.00484991","inverse","2","1","1","¿Cuál es la canción con 
mas covers? ","Yesterday","Stand by me","","0","0","0","individual","right","1.50947189331","2191.51438904","3.49052810669","2195.16137409","3.60694408417","2198.76838493","2.39305591583","2201.21185803","2202.61038303","2202.64638901","2205.64933801","0","2205.66370392","2209.83453298",""
"sujeto_0020703","1","2","25","57","2209.98336697","direct","1","1","4","¿Cuánto duró la guerra
 de los 100 años?","116","123","","0","0","0","competitive","left","1.34805083275","2211.33148909","3.65194916725","2215.13741994","2.9919359684","2218.12940192","3.0080640316","2221.18831992","2222.66910505","2222.73996997","2225.74294901","0","2225.75711107","2228.07691908",""
"sujeto_0020703","1","2","26","58","2228.22523904","inverse","4","1","4","¿Qué color tiene la  bandera de Brasil?","Amarillo","Naranja","left","0","0","1","competitive","left","1.40707993507","2229.63239408","3.59292006493","2233.3640449","2.86626911163","2236.23035812","3.13373088837","2239.4142499","2240.98078394","2241.06602812","2244.06899905","1","2244.08292103","2247.11572504",""
"sujeto_0020703","1","2","27","59","2247.26649904","direct","4","1","3","¿Qué carabela de 
Colon no volvió del viaje?","Santa María","La pinta","","0","0","1","competitive","left","0.963836193085","2248.23040199","4.03616380692","2252.4237349","4.31658005714","2256.74035501","1.68341994286","2258.47420311","2259.96523499","2260.04241991","2263.0454061","0","2263.05940604","2265.15888",""
"sujeto_0020703","1","2","28","60","2265.30998302","inverse","4","1","4","¿Cuántos huesos tiene
 un adulto humano?","217","206","","0","0","1","competitive","right","1.20934891701","2266.51940703","3.79065108299","2270.46577191","2.31559491158","2272.78141093","3.68440508842","2276.51584697","2277.78688312","2277.86795998","2280.8708899","0","2280.88534808","2288.71706605",""
"sujeto_0020703","1","2","29","61","2288.85356307","direct","1","1","1","¿Qué país africano fue 
fundado por esclavos?","Liberia","Chad","","0","0","0","individual","left","1.26778197289","2290.12141895","3.73221802711","2294.01157594","3.82378697395","2297.83542705","2.17621302605","2300.04630589","2302.03703499","2302.08064508","2305.08362412","0","2305.09814906","2313.08899713",""
"sujeto_0020703","1","2","30","62","2313.2489171","inverse","4","1","2","¿A cuánto asciende la cima
 del monte Everest?","7.990 mts","8.848 mts","","0","0","1","competitive","left","1.28649497032","2314.53543305","3.71350502968","2318.40729308","3.13809204102","2321.54544806","2.86190795898","2324.45743012","2325.64220905","2325.72661901","2328.72956109","0","2328.7434299","2335.92743301",""
"sujeto_0020703","1","2","31","63","2336.06157398","direct","4","1","1","¿Cuál es el país mas chico?","Sealand","Luxemburgo","","1","1","1","individual","right","1.50978088379","2337.57139707","3.49021911621","2341.21970105","3.50867295265","2344.72843409","2.49132704735","2347.2533319","2349.11683011","2349.15458798","2352.15699196","1","2352.17189193","2355.2930131",""
"sujeto_0020703","1","2","32","64","2355.440979","inverse","2","1","4","¿Cuántas pirámides hay en Egipto?","10000","11000","","1","1","1","competitive","right","0.863513946533","2356.30456901","4.13648605347","2360.59496307","3.12945318222","2363.72447705","2.87054681778","2366.62935591","2367.662956","2367.73141193","2370.73439908","1","2370.748528","2375.85759711",""
"sujeto_0020703","1","3","1","65","2533.62703204","direct","2","1","2","¿Cuál es el quinto país con 
mas extensión?","Canadá","Brasil","","1","1","0","competitive","right","1.93440914154","2535.56148911","3.06559085846","2538.78853703","2.75093913078","2541.539536","3.24906086922","2544.8378551","2546.17115092","2546.25692391","2549.259902","1","2549.27384901","2557.00023103","2375.87245202"
"sujeto_0020703","1","3","2","66","2557.14181399","inverse","1","1","2","¿Qué rasgo facial no tiene
 la Mona Lisa?","Cejas","Pómulos","","0","0","1","competitive","right","0.944751024246","2558.08664894","4.05524897575","2562.31639695","4.27512288094","2566.59157991","1.72487711906","2568.35110998","2570.1010139","2570.1848309","2573.18780804","0","2573.20198202","2579.47329402",""
"sujeto_0020703","1","3","3","67","2579.62465405","direct","4","1","3","¿Cuál es el país con 
mayor población?","Esados Unidos","China","right","0","0","1","competitive","right","0.954897165298","2580.57959604","4.0451028347","2584.77775002","2.11573886871","2586.89352894","3.88426113129","2590.8274889","2592.47345996","2592.54650497","2595.54898906","1","2595.56412697","2598.93141794",""
"sujeto_0020703","1","3","4","68","2599.08324289","inverse","1","1","1","La palabra dinosaurio significa","Lagarto Terrible","Lagarto Dragón","","1","1","0","individual","right","1.43432807922","2600.51761794","3.56567192078","2604.23876095","4.71771597862","2608.95651913","1.28228402138","2610.28950405","2611.45981693","2611.50691509","2614.5098629","1","2614.52376008","2617.38554502",""
"sujeto_0020703","1","3","5","69","2617.52552605","direct","2","1","3","¿Qué es el membrillero?","Arbol","Arbusto","","0","0","0","competitive","left","0.705003023148","2618.23057795","4.29499697685","2622.6777389","2.92480897903","2625.60258698","3.07519102097","2628.73044109","2630.68452311","2630.76433706","2633.76733708","0","2633.78257203","2640.24660897",""
"sujeto_0020703","1","3","6","70","2640.38330793","inverse","3","1","3","¿Alrededor de qué planeta orbita 
el satélite Europa?","Jupiter","Saturno","","1","1","1","competitive","left","0.753234863281","2641.1365881","4.24676513672","2645.54246593","4.0820889473","2649.62462401","1.9179110527","2651.59310102","2653.13702893","2653.21142697","2656.21438193","1","2656.22869396","2658.43385792",""
"sujeto_0020703","1","3","7","71","2658.61476898","direct","3","1","1","¿Donde fue el mundial de 
fútbol de 1954?","Suiza","Suecia","","1","1","1","competitive","left","0.720818042755","2659.33568192","4.27918195724","2663.78454089","3.17503094673","2666.95963597","2.82496905327","2669.83591294","2671.08843708","2671.1708951","2674.17389202","1","2674.18797112","2678.09974408",""
"sujeto_0020703","1","3","8","72","2678.23922801","inverse","1","1","4","¿Cuál de los 7 enanitos
no tenía barba?","Bashful","Mudito","","1","1","0","competitive","left","0.840353012085","2679.07964396","4.15964698792","2683.39360905","4.22100901604","2687.61465907","1.77899098396","2689.44641805","2691.0257051","2691.09678793","2694.09974098","1","2694.11465311","2699.041013",""
"sujeto_0020703","1","3","9","73","2699.18221092","direct","3","1","2","¿Cual red social es
mas utilizada mundialmente?","Instagram","Facebook","","1","1","0","competitive","left","1.04542994499","2700.22768998","3.95457005501","2704.32234907","3.06324696541","2707.38565707","2.93675303459","2710.37367702","2712.29105401","2712.37512493","2715.37703395","1","2715.39235592","2718.32685995",""
"sujeto_0020703","1","3","10","74","2718.47886705","inverse","4","1","1","¿Cuándo se inició la copa
 América de fútbol?","1916","1923","","1","1","1","individual","right","1.34371614456","2719.82262897","3.65628385544","2723.63254094","3.14704608917","2726.77963209","2.85295391083","2729.68302011","2731.58042002","2731.61778998","2734.62076092","1","2734.63612294","2737.29224706",""
"sujeto_0020703","1","3","11","75","2737.45422792","direct","3","1","4","¿Cuántos presidentes de EEUU
han muerto asesinados?","3","4","","0","0","1","competitive","left","0.929353952408","2738.38362694","4.07064604759","2742.6255641","2.2380130291","2744.86364007","3.7619869709","2748.6758399","2750.15980101","2750.24437404","2753.24737811","0","2753.26243401","2756.90653396",""
"sujeto_0020703","1","3","12","76","2757.04644608","inverse","2","1","4","¿Cuántas veces participó EEUU
 en la copa América?","4","5","","0","0","1","competitive","right","0.785197019577","2757.83168697","4.21480298042","2762.21879601","3.15775799751","2765.37659502","2.84224200249","2768.25331092","2769.69700098","2769.77181292","2772.77476501","0","2772.788867","2778.90606499",""
"sujeto_0020703","1","3","13","77","2779.056674","direct","4","1","1","¿Cuál de estos países 
no formaba la URSS?","Azeribayán","Afganistán","","0","0","1","competitive","right","0.810971021652","2779.86768889","4.18902897835","2784.23055005","3.95409011841","2788.18468499","2.04590988159","2790.28212094","2791.59518194","2791.66583991","2794.6688149","0","2794.68302202","2802.66516304",""
"sujeto_0020703","1","3","14","78","2802.82172704","inverse","1","1","1","¿En qué año se inauguró
 el teatro Solís?","1867","1856","","0","0","0","individual","left","1.09988498688","2803.92168403","3.90011501312","2807.97609901","3.63450694084","2811.6106739","2.36549305916","2814.02714396","2815.08344507","2815.12776995","2818.13073611","0","2818.14482212","2824.79262304",""
"sujeto_0020703","1","3","15","79","2824.92995691","direct","1","1","4","¿A qué velocidad vuela 
el avión más rápido?","3529","3874","","0","0","0","competitive","left","1.39366102219","2826.32366395","3.60633897781","2830.08828402","2.70937991142","2832.79770398","3.29062008858","2836.13878107","2837.8943119","2837.97329092","2840.97627497","0","2840.99027801","2843.10054302",""
"sujeto_0020703","1","3","16","80","2843.24197292","inverse","3","1","4","¿De qué año es la primer 
película cinematográfica?","1897","1888","","0","0","0","competitive","left","1.09666585922","2844.33870506","3.90333414078","2848.39370608","3.37295007706","2851.76669812","2.62704992294","2854.44619203","2855.57919002","2855.66396093","2858.66694498","0","2858.68113399","2864.09089899",""
"sujeto_0020703","1","3","17","81","2864.23315597","direct","2","1","3","¿Cuántos países 
tiene nuestro planeta?","191","194","","1","1","1","competitive","right","0.786530017853","2865.01973104","4.21346998215","2869.39114308","2.71648406982","2872.10767198","3.28351593018","2875.44115305","2876.79837704","2876.87644005","2879.87942505","1","2879.89325094","2883.129035",""
"sujeto_0020703","1","3","18","82","2883.26192403","inverse","2","1","2","¿Cuántos habitantes
 tiene Buenos Aires?","2.9000.000","3650000","","0","0","0","competitive","right","1.05079698563","2884.31280398","3.94920301437","2888.41718507","3.29945707321","2891.71668291","2.70054292679","2894.46798611","2895.86525893","2895.93648911","2898.93946409","0","2898.95343804","2904.78283",""
"sujeto_0020703","1","3","19","83","2904.92228293","direct","2","1","1","¿Cuántos kilos forman una tonelada?","1000","1500","left","1","1","1","individual","left","0.994415998459","2905.91680312","4.00558400154","2910.0766089","3.19306111336","2913.26973104","2.80693888664","2916.11201811","2917.999367","2918.04737091","2921.050349","1","2921.06421304","2927.02101612",""
"sujeto_0020703","1","3","20","84","2927.17023396","inverse","4","1","4","¿Cuántos estados tiene la 
República del Perú? ","24","23","","0","0","1","competitive","right","1.33585190773","2928.50612903","3.66414809227","2932.32068896","2.94798183441","2935.26873112","3.05201816559","2938.35545111","2939.37761712","2939.45727301","2942.46026206","0","2942.47439003","2947.41970396",""
"sujeto_0020703","1","3","21","85","2947.56008101","direct","3","1","3","¿En qué año nació Cristóbal Colón? ","1451","1447","","0","0","1","competitive","right","0.914713859558","2948.47491193","4.08528614044","2952.733392","3.66535019875","2956.39878511","2.33464980125","2958.76842093","2960.61430907","2960.68643904","2963.6894331","0","2963.70359802","2967.93157697",""
"sujeto_0020703","1","3","22","86","2968.12416601","inverse","4","1","4","¿Cuánto mide la 
Montaña Aconcagua? ","6234","6962","","0","0","1","competitive","left","0.826524972916","2968.95076108","4.17347502708","2973.27756906","3.3841149807","2976.66172695","2.6158850193","2979.32858896","2980.61791897","2980.69624901","2983.69923711","0","2983.71420598","2990.89785409",""
"sujeto_0020703","1","3","23","87","2991.03169394","direct","2","1","4","¿Cuánto mide el punto
 más profundo del océano? ","12508","11003","","0","0","1","competitive","left","0.824063062668","2991.85583496","4.17593693733","2996.18953204","3.96623802185","3000.15581512","2.03376197815","3002.24056292","3003.49207091","3003.57525206","3006.578233","0","3006.59224701","3010.79852796",""
"sujeto_0020703","1","3","24","88","3010.94639802","inverse","1","1","3","¿Cuántos álbumes ha publicado 
el cantante Jaime Roos? ","41","34","","0","0","1","competitive","right","0.723394155502","3011.66990399","4.2766058445","3016.11645293","2.75031089783","3018.86680293","3.24968910217","3022.16706991","3023.6569221","3023.73568201","3026.73865604","0","3026.75206709","3032.94821906",""
"sujeto_0020703","1","3","25","89","3033.12055802","direct","4","1","3","¿En qué año nació el 
ex-presidente Jorge Battle? ","1921","1927","","1","1","1","competitive","right","2.3951921463","3035.51582599","2.6048078537","3038.29400992","4.3677148819","3042.6617651","1.6322851181","3044.34584093","3046.07651997","3046.1474359","3049.15041304","1","3049.16450691","3052.65053701",""
"sujeto_0020703","1","3","26","90","3052.80126691","inverse","1","1","3","¿Cuántas presidencias 
constitucionales  hubo en Uruguay? ","41","42","","0","0","1","competitive","left","0.838526964188","3053.63990092","4.16147303581","3057.97143102","3.66833806038","3061.63980794","2.33166193962","3064.02190495","3065.225034","3065.30661297","3068.30957389","0","3068.32453394","3074.10818696",""
"sujeto_0020703","1","3","27","91","3074.25972104","direct","1","1","2","¿Quién escribió mas sinfonías?","Mozart","Haydn","","1","1","0","competitive","left","0.998070001602","3075.25785708","4.0019299984","3079.41294408","3.83780694008","3083.2508111","2.16219305992","3085.46610594","3086.6835711","3086.76636696","3089.7693541","1","3089.78340602","3093.53482294",""
"sujeto_0020703","1","3","28","92","3093.685956","inverse","4","1","2","¿En qué año nació Michael Jackson?","1958","1953","","1","1","1","competitive","right","0.874806880951","3094.56081009","4.12519311905","3098.859128","3.04066896439","3101.89985704","2.95933103561","3104.91017199","3106.88839006","3106.97760105","3109.98056912","1","3109.99582911","3115.85815597",""
"sujeto_0020703","1","3","29","93","3116.01333594","direct","3","1","2","¿En qué año entró en vigencia 
la ley antitabaco en Uruguay?","2005","2006","","1","1","1","competitive","left","0.760429859161","3116.77380896","4.23957014084","3121.18728399","3.38353514671","3124.57087803","2.61646485329","3127.23845792","3128.83303499","3128.90606499","3131.90903592","1","3131.92330503","3137.25731111",""
"sujeto_0020703","1","3","30","94","3137.39140105","inverse","3","1","1","¿Cuándo se subió el 
primer video a youtube?","2004","2005","","0","0","1","competitive","left","0.668426036835","3138.05989599","4.33157396317","3142.56491303","3.57786297798","3146.14281893","2.42213702202","3148.5991621","3149.90483499","3149.98375893","3152.98671412","0","3153.00076199","3160.75637507",""
"sujeto_0020703","1","3","31","95","3160.90261412","direct","2","1","1","¿Cuántos habitantes tiene India?","1200 millones","1300 millones","","0","0","0","individual","right","1.14516711235","3162.0478251","3.85483288765","3166.0606041","2.4822101593","3168.54286098","3.5177898407","3172.11093998","3174.08054304","3174.12974501","3177.13267803","0","3177.14654493","3183.19405508",""
"sujeto_0020703","1","3","32","96","3183.34833097","inverse","4","1","2","¿A qué edad murió Bob Marley?","36","37","","0","0","1","competitive","left","1.02962207794","3184.37802291","3.97037792206","3188.50181413","2.92397713661","3191.42583609","3.07602286339","3194.53730297","3196.43516207","3196.52199411","3199.52496409","0","3199.5401299","3202.64103794",""
"sujeto_0020703","1","4","1","97","3328.84268308","direct","2","1","1","¿Cuantos años dirigió la selección 
uruguaya Tabarez?","15 años","13 años","","0","0","0","individual","right","1.77918505669","3330.62193108","3.22081494331","3333.99779105","5.00311207771","3339.00098896","0.996887922287","3340.04657602","3341.23770595","3341.28041911","3344.28339696","0","3344.29761195","3351.36967707","3202.65602493"
"sujeto_0020703","1","4","2","98","3351.51568508","inverse","4","1","1","¿Cuantas teclas tiene un teclado 
de computadora generalmente? ","Entre 99 y 108","Entre 109 y 113","","1","1","1","individual","right","1.11821603775","3352.63396811","3.88178396225","3356.67532897","5.56552505493","3362.24091101","0.434474945068","3362.72730398","3363.73007393","3363.77702808","3366.77999592","1","3366.79423809","3369.16503096",""
"sujeto_0020703","1","4","3","99","3369.34729004","direct","1","1","1","¿Cuál Departamento tiene
 mayor superficie?","Río Negro","Soriano","","0","0","0","competitive","left","1.27161598206","3370.61897206","3.72838401794","3374.48476601","3.03913807869","3377.52394295","2.96086192131","3380.53504205","3382.24851799","3382.31988311","3385.32104397","0","3385.33709598","3389.66318107",""
"sujeto_0020703","1","4","4","100","3389.80754495","inverse","3","1","2","¿Cuál es el apellido de las 
hermanastras  de  cenicienta?","Tremaine","Truman","","0","0","1","competitive","left","0.977421998978","3390.78503489","4.02257800102","3394.96157503","2.65037798882","3397.61202097","3.34962201118","3401.0123589","3402.88186908","3402.96339893","3405.96638203","0","3405.98139095","3408.67735195",""
"sujeto_0020703","1","4","5","101","3408.81611395","direct","4","1","4","¿Cuál película ganó un
 Oscar a mejor película?","Alto Impacto","Cache","","0","0","1","competitive","left","1.26184391975","3410.07802391","3.73815608025","3413.97160292","3.29337191582","3417.26503611","2.70662808418","3420.00553107","3421.12488604","3421.20664191","3424.20901799","0","3424.22432899","3426.48898196",""
"sujeto_0020703","1","4","6","102","3426.60903001","inverse","1","1","3","¿A cuántos centímetros
equivale la medida pié?","25","30","","0","0","1","competitive","left","0.656896829605","3427.26599407","4.34310317039","3431.76346707","4.22050213814","3435.98403406","1.77949786186","3437.81550503","3438.85549998","3438.93283606","3441.93580198","0","3441.95002604","3447.34899497",""
"sujeto_0020703","1","4","7","103","3447.50243497","direct","2","1","2","¿Qué departamento es mas grande?","Cerro Largo","Paysandú","","0","0","0","competitive","right","1.03952383995","3448.54200411","3.96047616005","3452.64176297","2.23815488815","3454.87998199","3.76184511185","3458.69106007","3460.29079795","3460.36045194","3463.36342597","0","3463.37752008","3467.4874959",""
"sujeto_0020703","1","4","8","104","3467.62887502","inverse","2","1","3","¿Quién pintó la Mona Lisa?","Picasso","Da Vinci","right","0","0","1","competitive","right","0.912107944489","3468.5410521","4.08789205551","3472.78532791","2.61168789864","3475.39707899","3.38831210136","3478.81906796","3480.42490792","3480.50390196","3483.50686812","1","3483.52129412","3485.68361998",""
"sujeto_0020703","1","4","9","105","3485.82277989","direct","4","1","3","¿Cuántos litros hay en un galon?","3.54","3.78","","1","1","1","competitive","right","1.49723601341","3487.32009292","3.50276398659","3490.99568605","2.74429011345","3493.74004412","3.25570988655","3497.02794003","3498.5450151","3498.6304481","3501.63343096","1","3501.64754295","3507.43986607",""
"sujeto_0020703","1","4","10","106","3507.58269691","inverse","4","1","1","¿Cuántas teclas tiene
 un piano moderno?","80","88","","0","0","1","individual","left","1.1973400116","3508.78010297","3.8026599884","3512.73913312","3.17592000961","3515.91511703","2.82407999039","3518.77326798","3519.78175712","3519.84083509","3522.84379506","0","3522.85778904","3529.65554309",""
"sujeto_0020703","1","4","11","107","3529.79245591","direct","4","1","3","¿Cuántos países hay en África?","54","62","","0","0","1","competitive","left","0.705610990524","3530.49819303","4.29438900948","3534.94967294","3.07536292076","3538.02509689","2.92463707924","3541.00088191","3542.69146109","3542.7688241","3545.7690711","0","3545.78719592","3553.59194207",""
"sujeto_0020703","1","4","12","108","3553.77147603","inverse","1","1","3","¿En qué siglo se crearon
 las primeras pistolas?","XV","XIII","","1","1","1","competitive","right","0.703571081161","3554.47511292","4.29642891884","3558.96012306","3.35395097733","3562.31413889","2.64604902267","3565.01150608","3566.95941091","3567.04684591","3570.04981303","1","3570.06407595","3573.297194",""
"sujeto_0020703","1","4","13","109","3573.44917202","direct","3","1","4","¿En qué año se estrenó 
la serie friends?","1994","1995","","0","0","1","competitive","left","0.745903968811","3574.19518089","4.25409603119","3578.60551906","3.160572052","3581.76616192","2.839427948","3584.63965893","3586.51497602","3586.59170508","3589.59468889","0","3589.60892391","3594.61498094",""
"sujeto_0020703","1","4","14","110","3594.74419212","inverse","3","1","4","¿En qué año nació Hitler?","1889","1887","","0","0","1","competitive","right","0.697872161865","3595.44211411","4.30212783813","3599.91764212","3.72637009621","3603.6440599","2.27362990379","3605.9517169","3607.06599212","3607.13646913","3610.1394701","0","3610.15248299","3615.17947602",""
"sujeto_0020703","1","4","15","111","3615.32176995","direct","1","1","4","¿Cuánto pesa un elefante Africano?","6000 kilos","5400 kilos","","0","0","0","competitive","right","1.36127209663","3616.68311095","3.63872790337","3620.4783709","3.00763297081","3623.48604894","2.99236702919","3626.52846503","3627.88435793","3627.96314907","3630.96500301","0","3630.98102307","3637.68808699",""
"sujeto_0020703","1","4","16","112","3637.8324461","inverse","1","1","2","¿Qué porcentaje de 
la población es zurda?","10%","7%","","1","1","0","competitive","right","1.80364012718","3639.63616109","3.19635987282","3642.99015307","2.65689110756","3645.64710712","3.34310889244","3649.03993392","3650.28303695","3650.35799599","3653.36098099","1","3653.37509489","3659.35484195",""
"sujeto_0020703","1","4","17","113","3659.47732806","direct","1","1","2","¿En qué año se estrenó
Volver al futuro?","1984","1985","","0","0","1","competitive","left","0.799751996994","3660.27714896","4.20024800301","3664.63363194","2.48141694069","3667.11509109","3.51858305931","3670.68351698","3672.24533892","3672.31901407","3675.32197094","0","3675.33614993","3682.4276011",""
"sujeto_0020703","1","4","18","114","3682.60514402","inverse","3","1","2","¿Cuántos jugadores hay en un 
equipo de baseball?","9","8","","1","1","0","competitive","right","0.784959077835","3683.39017105","4.21504092216","3687.77932596","3.63472485542","3691.41411901","2.36527514458","3693.82965302","3695.44391704","3695.51455808","3698.51701212","1","3698.53220797","3703.509022",""
"sujeto_0020703","1","4","19","115","3703.6505909","direct","2","1","1","¿Cuántos Oscar ganó
 la película titanic?","13","11","","1","1","1","individual","right","0.965502023697","3704.61616111","4.0344979763","3708.806463","2.00465297699","3710.81117892","3.99534702301","3714.85608792","3716.15812612","3716.20921707","3719.212183","1","3719.22611904","3723.8287909",""
"sujeto_0020703","1","4","20","116","3723.99415994","inverse","4","1","4","¿En qué año comenzó
la segunda guerra mundial?","1939","1976","left","0","0","1","competitive","left","0.908983945847","3724.90324807","4.09101605415","3729.16371608","2.52140903473","3731.68518806","3.47859096527","3735.21594501","3737.01442409","3737.08481503","3740.08498812","1","3740.10222507","3744.088974",""
"sujeto_0020703","1","4","21","117","3744.27041912","direct","2","1","4","¿Cuántos biomas hay en Uruguay?","5","4","","0","0","1","competitive","right","0.663748025894","3744.93422008","4.33625197411","3749.427881","2.43823409081","3751.86617804","3.56176590919","3755.47730803","3757.27468109","3757.34655404","3760.34955311","0","3760.36373401","3766.61313295",""
"sujeto_0020703","1","4","22","118","3766.76587701","inverse","2","1","3","¿Cuándo murió Pablo Escobar?","1993","1997","","1","1","1","competitive","right","1.07131695747","3767.83723807","3.92868304253","3771.90616798","3.27904081345","3775.18527198","2.72095918655","3777.94013691","3779.72295904","3779.80835009","3782.81132793","1","3782.82583809","3788.52946496",""
"sujeto_0020703","1","4","23","119","3788.69379497","direct","1","1","4","¿Qué serie ha ganado mas premios?","Friends","Murphy Brown","","1","1","0","competitive","left","0.751354932785","3789.44519806","4.24864506721","3793.85048509","4.0437040329","3797.89425302","1.9562959671","3799.88485408","3801.23698592","3801.31922698","3804.32220912","1","3804.33625603","3809.8978951",""
"sujeto_0020703","1","4","24","120","3810.0404501","inverse","4","1","2","¿Cuántas fichas tiene el dominó?","26","28","","1","1","1","competitive","right","0.853691101074","3810.89421701","4.14630889893","3815.20797396","3.31818985939","3818.52620411","2.68181014061","3821.26092291","3822.31624508","3822.39584589","3825.39701509","1","3825.41228509","3830.65539193",""
"sujeto_0020703","1","4","25","121","3830.79777408","direct","2","1","4","¿Cuántos son los dientes de leche?","20","25","","0","0","1","competitive","left","0.722388029099","3831.52023792","4.2776119709","3835.97203207","2.77914595604","3838.75123811","3.22085404396","3842.00567889","3843.71599197","3843.79082108","3846.79381108","0","3846.80802608","3848.95373893",""
"sujeto_0020703","1","4","26","122","3849.10971212","inverse","3","1","3","¿Cuántos gramos son una onza?","22","28","","0","0","1","competitive","left","0.681483983994","3849.79130101","4.31851601601","3854.28187799","2.60822582245","3856.89014602","3.39177417755","3860.331568","3862.32497001","3862.40041304","3865.40334797","0","3865.41736603","3871.70500112",""
"sujeto_0020703","1","4","27","123","3871.83590293","direct","3","1","1","¿Cuándo salió el primer album
 de los Beatles?","1963","1962","","1","1","1","individual","right","1.11730289459","3872.9532721","3.88269710541","3876.993191","3.03700184822","3880.03025603","2.96299815178","3883.04433298","3884.2079711","3884.24519706","3887.2481699","1","3887.26216006","3891.03297591",""
"sujeto_0020703","1","4","28","124","3891.18058991","inverse","3","1","3","¿Quién fundó la empresa apple?","Carlos Slim","Steve Jobs","","1","1","1","competitive","right","0.6226811409","3891.8033371","4.3773188591","3896.33638501","2.24785280228","3898.58430505","3.75214719772","3902.38668799","3903.50131607","3903.57244611","3906.575423","1","3906.58871508","3912.88657093",""
"sujeto_0020703","1","4","29","125","3913.02420402","direct","4","1","2","¿Cuántos municipios hay
 en Montevideo?","8","7","","1","1","1","competitive","left","0.908003807068","3913.93227792","4.09199619293","3918.18132091","2.94185185432","3921.12323999","3.05814814568","3924.23171592","3926.14649105","3926.23371792","3929.23670292","1","3929.25085902","3931.33198905",""
"sujeto_0020703","1","4","30","126","3931.4692049","inverse","1","1","1","¿Cuántos kilómetros hay
 de Montevideo a Artigas?","632","599","","0","0","0","individual","left","1.13199305534","3932.60127497","3.86800694466","3936.62397289","2.51720905304","3939.14124393","3.48279094696","3942.67469406","3944.15781093","3944.20957398","3947.212497","0","3947.22659206","3953.27868199",""
"sujeto_0020703","1","4","31","127","3953.41089797","direct","2","1","2","¿En qué año nació 
Leonardo Da Vinci?","1452","1511","","1","1","0","competitive","left","0.786304950714","3954.19724703","4.21369504929","3958.58302903","3.06217384338","3961.64527011","2.93782615662","3964.61887312","3966.47248912","3966.55391908","3969.55690598","1","3969.57187104","3972.71828389",""
"sujeto_0020703","1","4","32","128","3972.85603404","inverse","3","1","1","¿A qué continente
 pertenece el país Gabón?","Africa","Oceanía","","0","0","1","individual","left","1.11818909645","3973.97428894","3.88181090355","3978.01233912","3.84791707993","3981.86029696","2.15208292007","3984.06250811","3985.87417197","3985.9134481","3988.91642094","0","3988.93166494","3994.16956401",""
