code,nro_aplicante,nro_bloque,nro_trial_bloque,nro_trial_global,show_game_type,choice_order,rival,pay_individual,pay_competitive,question,answer_left_text,answer_right_text,correct_answer,outcome_individual,outcome_competitive,outcome_rival,game_type,answer,social_time,rt_game_type,feedback_delay,show_question,answer_time,rt_answer_global,feedback_delay_2,show_jitter,jitter_time,show_outcome,outcome_time,outcome_participant_real,show_final_jitter,second_jitter_time,inicio_descanso
sujeto_7ab61c9e,1,1,1,1,960.04697299,direct,3,1,4,"¿Cuántos centímetros corresponden
al talle 36 del calzado?",23,24,,0,0,1,competitive,,3.65598392487,963.703000069,1.34401607513,965.214464188,6,971.214608192,0,971.232377052,972.260668993,972.333269119,975.336244106,0,975.350445032,977.512456179,
sujeto_7ab61c9e,1,1,2,2,977.651460171,inverse,3,1,2,"¿Cuántas metros mide la Intendencia
Municipal de Montevideo? ",84,78,,0,0,1,competitive,left,2.44760513306,980.09910512,2.55239486694,982.806005001,5.009100914,987.815165043,0.990899085999,988.842118979,990.720108986,990.791918039,993.794928074,0,993.809609175,995.902393103,
sujeto_7ab61c9e,1,1,3,3,996.04471612,direct,1,1,3,"¿Cuántas La Pasiva
 hay en uruguay?",15,11,,1,1,1,competitive,right,3.18557500839,999.230391979,1.81442499161,1001.21668601,4.66367101669,1005.88041997,1.33632898331,1007.25069118,1008.8623631,1008.935673,1011.93865418,1,1011.95285296,1016.23118806,
sujeto_7ab61c9e,1,1,4,4,1016.37093616,inverse,3,1,3,¿De que color es la camiseta de uruguay?,blanca,celeste,right,1,1,1,competitive,right,2.66051411629,1019.03151417,2.33948588371,1021.52162719,4.3968269825,1025.91849518,1.6031730175,1027.56171417,1028.7664752,1028.84620619,1031.84917808,1,1031.86346912,1035.31739116,
sujeto_7ab61c9e,1,1,5,5,1035.46562719,direct,2,1,1,"¿Cuánto metros mide
la torre Eiffel?",333,324,,1,1,1,competitive,right,3.13000702858,1038.59574699,1.86999297142,1040.63650012,4.14916419983,1044.78572798,1.85083580017,1046.68798399,1048.20940113,1048.28917098,1051.29212904,1,1051.30689406,1058.343606,
sujeto_7ab61c9e,1,1,6,6,1058.49086499,inverse,3,1,4,"¿Cuantas ciudades existen
 en todo el uruguay?",63,72,,0,0,1,competitive,left,3.00995397568,1061.50086212,1.99004602432,1063.6482482,4.58157491684,1068.22988415,1.41842508316,1069.68418097,1070.73895597,1070.81803513,1073.82048798,0,1073.83479118,1081.461375,
sujeto_7ab61c9e,1,1,7,7,1081.60325813,direct,1,1,1,¿Cuantos estados tiene África?,52,54,,1,1,0,competitive,right,4.01480817795,1085.61814117,0.985191822052,1086.76011419,4.83296298981,1091.59314203,1.16703701019,1092.79596519,1094.65996814,1094.73032308,1097.73330498,1,1097.7475462,1103.50857306,
sujeto_7ab61c9e,1,1,8,8,1103.66497803,inverse,4,1,4,"¿En qué año nació
 Stephen Hawking?",1952,1942,,0,0,1,competitive,right,2.32127594948,1105.98631716,2.67872405052,1108.82397199,3.78823804855,1112.61227417,2.21176195145,1114.87388515,1116.31816006,1116.39081717,1119.39379716,0,1119.40950918,1125.50887609,
sujeto_7ab61c9e,1,1,9,9,1125.64395905,direct,2,1,3,"¿Cuánto años tenía Artigas
 cuando se fue a Paraguay?",56,57,,1,1,1,competitive,left,2.13944196701,1127.78345013,2.86055803299,1130.79790711,5.43155813217,1136.22953105,0.568441867828,1136.85167718,1138.40121317,1138.48620915,1141.48920417,1,1141.50375819,1147.5481391,
sujeto_7ab61c9e,1,1,10,10,1147.70510411,inverse,1,1,2,"¿Cuantos milímetros 
mide una hoja A2?",420x592,420x594,,0,0,1,competitive,right,2.72148609161,1150.42665505,2.27851390839,1152.89190102,5.51572394371,1158.40766907,0.48427605629,1158.93117714,1160.49958897,1160.58137202,1163.58438897,0,1163.59899616,1170.67262602,
sujeto_7ab61c9e,1,1,11,11,1170.81726503,direct,3,1,3,"¿Cuál es la menor temperatura 
registrada en Uruguay?",-5.4,-7.4,,0,0,1,competitive,right,2.62550592422,1173.442837,2.37449407578,1175.99140406,5.06641292572,1181.05787611,0.93358707428,1182.04285908,1183.72490215,1183.809798,1186.81277108,0,1186.82811713,1190.5614152,
sujeto_7ab61c9e,1,1,12,12,1190.71276116,inverse,2,1,2,"¿Cuantos años hace que 
se fundó facebook?",18,17,,0,0,0,competitive,left,3.95257306099,1194.66539812,1.04742693901,1195.86793804,5.18605995178,1201.05405903,0.813940048218,1201.91994309,1203.29269719,1203.36997104,1206.37292409,0,1206.38819504,1209.16285896,
sujeto_7ab61c9e,1,1,13,13,1209.30530405,direct,1,1,4,"¿Cuál animal es más
 pesado en promedio?",Rinoceronte,Hipopotamo,,0,0,0,competitive,right,2.68785095215,1211.99322009,2.31214904785,1214.47122908,4.85694003105,1219.32820916,1.14305996895,1220.52978611,1221.60905099,1221.67994499,1224.68295217,0,1224.69728398,1228.53829598,
sujeto_7ab61c9e,1,1,14,14,1228.73257709,inverse,1,1,2,"¿Qué personaje de dragon ball 
murió más veces?",Chaoz,Krillin,,1,1,0,competitive,,2.45473480225,1231.18738103,2.54526519775,1233.90339804,6,1239.90354705,0,1239.92259216,1241.38041306,1241.45700598,1244.46000314,0,1244.47440314,1252.24731398,
sujeto_7ab61c9e,1,1,15,15,1252.39225316,direct,3,1,2,"La universidad de oxford. 
existe desde:",1096,1249,,1,1,0,competitive,left,2.65022921562,1255.042521,2.34977078438,1257.56661105,3.58397197723,1261.15064096,2.41602802277,1263.61804819,1264.66685605,1264.753227,1267.7562201,1,1267.77054715,1274.46141601,
sujeto_7ab61c9e,1,1,16,16,1274.60027099,inverse,3,1,1,"¿Qué escritor latino ganó antes
 el premio nobel?", García Marquez,Neruda,,0,0,1,individual,left,4.28344297409,1278.88378119,0.716557025909,1279.76175213,5.15496921539,1284.91677499,0.845030784607,1285.814044,1287.55404902,1287.59761,1290.60059714,0,1290.61568403,1294.07621002,
sujeto_7ab61c9e,1,1,17,17,1294.21669197,direct,4,1,3,"¿Cuántos dientes tiene un
 tiburón blanco?",6000,3000,,0,0,1,individual,right,1.4812130928,1295.6979692,3.5187869072,1299.38770509,5.01125884056,1304.39900517,0.988741159439,1305.42332506,1306.4623301,1306.50739217,1309.50953507,0,1309.52516913,1314.33485317,
sujeto_7ab61c9e,1,1,18,18,1314.49316311,inverse,4,1,1,¿Cuánto mide el paralelo Ecuador?,40.000km,70.000km,,0,0,1,individual,left,0.825903177261,1315.3191402,4.17409682274,1319.64837098,4.60078001022,1324.24920917,1.39921998978,1325.70015907,1327.65623999,1327.70077801,1330.70376015,0,1330.71940804,1334.32200813,
sujeto_7ab61c9e,1,1,19,19,1334.47150898,direct,4,1,2,"¿Cuál fue el primer libro 
de Stephen King?",Carrie,The Stand,,1,1,1,individual,right,1.25345897675,1335.72508216,3.74654102325,1339.64271116,3.78954792023,1343.43232417,2.21045207977,1345.69344711,1347.43754601,1347.47874212,1350.48171902,1,1350.49595499,1354.97037411,
sujeto_7ab61c9e,1,1,20,20,1355.11431503,inverse,2,1,3,"¿Qué civilización practicaba
 la momificación?",Grecia,Egipto,right,0,0,1,individual,left,1.40716290474,1356.521559,3.59283709526,1360.26978898,3.48074293137,1363.75057101,2.51925706863,1366.32038307,1368.25968909,1368.30475998,1371.30772614,0,1371.32230997,1375.551126,
sujeto_7ab61c9e,1,1,21,21,1375.69082212,direct,4,1,4,"¿Cuántos millones de visitas
 recibe google por minuto?",3.0,4.5,,0,0,1,individual,right,2.28185105324,1377.97274518,2.71814894676,1380.86213303,5.01455688477,1385.87673497,0.985443115234,1386.89930201,1388.41416907,1388.466362,1391.46933913,0,1391.48356414,1398.60625219,
sujeto_7ab61c9e,1,1,22,22,1398.751863,inverse,1,1,3,La máquina de fax. se inventó en:,1843,1960,,0,0,1,individual,left,2.48100113869,1401.23290801,2.51899886131,1403.90809298,3.47772693634,1407.385885,2.52227306366,1409.96119308,1411.20330405,1411.246351,1414.249331,0,1414.26370811,1417.50001216,
sujeto_7ab61c9e,1,1,23,23,1417.64849806,direct,2,1,4,"En la verdadera historia de los
 300 espartanos. habían:",300 soldados,4300 soldados,,1,1,1,individual,right,1.95765781403,1419.60626197,3.04234218597,1422.820225,4.94480204582,1427.76506615,1.05519795418,1428.87198019,1430.13318896,1430.17268419,1433.17567015,1,1433.18994808,1436.9917202,
sujeto_7ab61c9e,1,1,24,24,1437.1241622,inverse,1,1,4,"¿Cuántos milímetros crece
 el pelo por día?",0.4,0.04,,0,0,0,individual,right,2.02203202248,1439.14623904,2.97796797752,1442.29148817,4.6087911129,1446.90035915,1.3912088871,1448.34859419,1450.10931706,1450.14893913,1453.15192008,0,1453.1667161,1459.90182614,
sujeto_7ab61c9e,1,1,25,25,1460.050179,direct,4,1,1,"¿Cuánto mide la baldosa gris 
clásica de Montevideo?",22x22 cm.,20x20 cm.,,1,1,1,individual,,1.91837692261,1461.96863008,3.08162307739,1465.22541904,6,1471.22554302,0,1471.24156618,1473.2368331,1473.27761912,1476.28059912,0,1476.29526901,1481.83808112,
sujeto_7ab61c9e,1,1,26,26,1481.98054004,inverse,2,1,2,"¿Cuántas películas de rápidos
 y furiosos hay?",10,11,,1,1,0,individual,left,1.19808101654,1483.178684,3.80191898346,1487.15386319,4.04274201393,1491.19666314,1.95725798607,1493.18812919,1494.54549408,1494.58926415,1497.59223819,1,1497.60666299,1499.64137101,
sujeto_7ab61c9e,1,1,27,27,1499.79195809,direct,3,1,1,"¿Cuántos masters 1000
 ganó Del Potro?",1,2,,1,1,1,individual,right,2.57287693024,1502.36489797,2.42712306976,1504.97650599,4.33035492897,1509.30692101,1.66964507103,1511.014575,1512.76918817,1512.81600499,1515.81892514,1,1515.83273697,1523.22905111,
sujeto_7ab61c9e,1,1,28,28,1523.38408518,inverse,2,1,4,"¿Cuántos meses dura el 
embarazo de una leona?",3 meses,4 meses,,0,0,1,individual,left,1.20392394066,1524.58807898,3.79607605934,1528.557585,5.72857093811,1534.28619719,0.27142906189,1534.60939217,1535.72042799,1535.75962615,1538.76257515,0,1538.77705908,1545.499547,
sujeto_7ab61c9e,1,1,29,29,1545.64444613,direct,1,1,1,"¿En qué año fue creado
 el sandwich?",1762,1653,,1,1,0,individual,right,1.35280418396,1546.99732113,3.64719581604,1550.8035531,4.15966296196,1554.96327519,1.84033703804,1556.83800411,1558.4365592,1558.489151,1561.49212217,1,1561.50679517,1564.97743201,
sujeto_7ab61c9e,1,1,30,30,1565.12528896,inverse,4,1,2,El nombre de la moneda de Vietnam es:,Dinar,Dong,,0,0,1,individual,right,3.3371989727,1568.46258616,1.6628010273,1570.29732203,4.46427297592,1574.761657,1.53572702408,1576.33190298,1577.76390505,1577.81676102,1580.81974101,0,1580.83415699,1587.00254202,
sujeto_7ab61c9e,1,1,31,31,1587.15269303,direct,2,1,1,"¿cuantos aleteos puede dar 
un colibrí por segundo?",120,50,,0,0,0,individual,left,1.71092987061,1588.86368918,3.28907012939,1592.30980611,4.96594119072,1597.27581,1.03405880928,1598.36082816,1600.09322715,1600.14493513,1603.14786506,0,1603.16165709,1607.37393308,
sujeto_7ab61c9e,1,1,32,32,1607.53001618,inverse,4,1,3,"¿Qué altura promedio tienen
 los hombres uruguayos?",1.73 m,1.72 m,,1,1,1,individual,left,1.28094315529,1608.811028,3.71905684471,1612.70292211,4.36406111717,1617.06705213,1.63593888283,1618.75436902,1620.01679611,1620.05522919,1623.05819511,1,1623.07231307,1627.54828119,
sujeto_7ab61c9e,1,2,1,33,1766.12330604,direct,1,1,1,"¿En qué año nació 
el actor Bradd Pitt?",1967,1963,,1,1,1,,,,,,,,,,,,,,,1771.13614511,1777.06372905,1627.56363606
sujeto_7ab61c9e,1,2,2,34,1777.20236206,inverse,2,1,1,"¿Cual es el segundo 
monte más alto?",Kanchenjunga,K2,,1,1,1,individual,left,1.77723693848,1778.97964597,3.22276306152,1782.355021,2.26464915276,1784.61971498,3.73535084724,1788.40591502,1789.85832119,1789.90858006,1792.91153717,1,1792.92617416,1796.35606813,
sujeto_7ab61c9e,1,2,3,35,1796.49425602,direct,3,1,1,"¿Cuándo finalizó la construcción
 del Palacio Legislativo?",1925,1917,,0,0,1,individual,right,1.6255710125,1798.11990118,3.3744289875,1801.63526011,4.27363777161,1805.90893912,1.72636222839,1807.68691015,1809.32859612,1809.37053919,1812.373523,0,1812.38803601,1818.085603,
sujeto_7ab61c9e,1,2,4,36,1818.22193003,inverse,3,1,3,"¿Cuántos integrantes tenía
 en su inicio  el cuarteto de nos?",3,4,,1,1,1,individual,right,2.32411193848,1820.54611206,2.67588806152,1823.36364317,4.94543600082,1828.30914402,1.05456399918,1829.39815116,1830.53124499,1830.58235407,1833.5853231,1,1833.59963107,1839.24943519,
sujeto_7ab61c9e,1,2,5,37,1839.38477612,direct,2,1,3,¿Qué valor tiene el número pi?,3.14,4.18,left,0,0,1,individual,right,2.19243216515,1841.5772512,2.80756783485,1844.53983307,4.49041986465,1849.03029299,1.50958013535,1850.59357905,1852.04780507,1852.09404016,1855.09643197,0,1855.11069703,1862.03168511,
sujeto_7ab61c9e,1,2,6,38,1862.16223598,inverse,2,1,2,"¿Cuál es la esperanza de vida
 en Uruguay?",75,77,,1,1,0,individual,right,2.66518616676,1864.82749104,2.33481383324,1867.33407116,3.91135501862,1871.24548507,2.08864498138,1873.37121701,1875.02501202,1875.07162619,1878.07460117,1,1878.08910418,1884.55212808,
sujeto_7ab61c9e,1,2,7,39,1884.69000411,direct,1,1,2,"¿Cuantos pisos tiene la torre 
de las comunicaciones?",26,32,,1,1,0,individual,right,1.34965491295,1886.03973317,3.65034508705,1889.84881997,4.63592004776,1894.48480606,1.36407995224,1895.8998971,1897.72863197,1897.76682019,1900.76976919,1,1900.78475308,1902.93097305,
sujeto_7ab61c9e,1,2,8,40,1903.06982708,inverse,2,1,4,"¿En qué país sudamericano 
no hay McDonalds?",Bolivia,Venezuela,,0,0,1,individual,left,1.33801198006,1904.40788317,3.66198801994,1908.24067712,4.62326407433,1912.86398602,1.37673592567,1914.27577305,1915.58511305,1915.62613201,1918.62910318,0,1918.64331412,1925.00305009,
sujeto_7ab61c9e,1,2,9,41,1925.14546919,direct,3,1,1,"¿En qué año empieza
 la Edad Media?",476,512,,1,1,1,individual,right,2.2356159687,1927.38114715,2.7643840313,1930.31842208,3.5886080265,1933.90706801,2.4113919735,1936.37069011,1937.77436209,1937.82207298,1940.825032,1,1940.839288,1943.82783914,
sujeto_7ab61c9e,1,2,10,42,1943.97379804,inverse,3,1,4,"¿Hace cuántos años surgió
 el ser humano?",200mil,300mil,,0,0,0,individual,right,1.95667791367,1945.93060112,3.04332208633,1949.12964106,4.09563589096,1953.22532201,1.90436410904,1955.16435504,1957.05040097,1957.09920716,1960.10217214,0,1960.1161592,1963.42664313,
sujeto_7ab61c9e,1,2,11,43,1963.56755805,direct,3,1,4,"¿Cuántas cuadras tiene
 actualmente 18 de julio? ",36,33,,0,0,1,individual,,4.58190989494,1968.14951205,0.418090105057,1968.72226214,6,1974.72242904,0,1974.74253511,1976.44481707,1976.49219513,1979.49517107,0,1979.50942397,1984.23572016,
sujeto_7ab61c9e,1,2,12,44,1984.37775898,inverse,1,1,4,"¿Qué juego de equipo se 
considera mas rápido?",Lacrosse,Badminton,,0,0,0,competitive,right,2.37588000298,1986.75368309,2.62411999702,1989.53291917,4.94979786873,1994.48276019,1.05020213127,1995.58593607,1996.82901812,1996.90272713,1999.90570807,0,1999.919981,2007.9151392,
sujeto_7ab61c9e,1,2,13,45,2008.05530214,direct,1,1,3,"¿Qué promedio de edad 
vive una jirafa? ",25,20,,0,0,1,competitive,left,2.16657209396,2010.22193718,2.83342790604,2013.2108922,3.88701510429,2017.09794807,2.11298489571,2019.26372313,2021.0252471,2021.09783816,2024.10080218,0,2024.11536002,2030.07107615,
sujeto_7ab61c9e,1,2,14,46,2030.21681213,inverse,1,1,2,¿Cuántos grandes lagos hay?,7,5,,0,0,1,competitive,right,1.0082449913,2031.22512317,3.9917550087,2035.37469912,4.77039718628,2040.14513707,1.22960281372,2041.42581105,2042.71797705,2042.7929101,2045.79592705,0,2045.810601,2053.63196301,
sujeto_7ab61c9e,1,2,15,47,2053.78045797,direct,3,1,2,"¿Cuántos discos de estudio
 grabó Johhny Cash? ",54,43,,1,1,0,competitive,left,1.4809319973,2055.26147604,3.5190680027,2058.9375701,3.60485100746,2062.54246211,2.39514899254,2064.98820901,2066.26686502,2066.33844209,2069.34139919,1,2069.35659814,2076.007478,
sujeto_7ab61c9e,1,2,16,48,2076.1582551,inverse,4,1,1,"¿Cuántos barrios tiene
 Montevideo? ",71,62,,0,0,1,competitive,left,1.1042778492,2077.26260018,3.8957221508,2081.31550813,3.04804706573,2084.36359406,2.95195293427,2087.36585903,2088.37292719,2088.45079613,2091.45378304,0,2091.46770716,2096.9297421,
sujeto_7ab61c9e,1,2,17,49,2097.06958604,direct,3,1,3,¿Qué edad tiene Homero Simpson?,36,42,,0,0,1,competitive,left,1.19818592072,2098.26781917,3.80181407928,2102.22509217,3.14865589142,2105.37378597,2.85134410858,2108.25991011,2109.63596201,2109.71141815,2112.71440911,0,2112.72869301,2117.11745,
sujeto_7ab61c9e,1,2,18,50,2117.24725604,inverse,4,1,2,"¿Cuántos países con monarquía 
hay en europa actualmente? ",6,10,,1,1,1,competitive,left,4.73565602303,2121.98298001,0.264343976974,2122.40126705,4.72070789337,2127.12203503,1.27929210663,2128.45222116,2129.89050913,2129.96982503,2132.97281313,1,2132.98749614,2139.14431,
sujeto_7ab61c9e,1,2,19,51,2139.30526018,direct,2,1,3,"¿Cuántos capítulos de
 Friends existen? ",236,228,,1,1,1,competitive,right,2.56583809853,2141.87114716,2.43416190147,2144.48084903,3.9583530426,2148.43927097,2.0416469574,2150.53308916,2151.83865404,2151.91696501,2154.91996503,1,2154.93461299,2157.31024218,
sujeto_7ab61c9e,1,2,20,52,2157.453089,inverse,1,1,3,¿Cuántas óperas compuso Mozart? ,27,22,,1,1,1,competitive,left,2.13520097733,2159.58838916,2.86479902267,2162.62435508,3.87695002556,2166.50138712,2.12304997444,2168.6765871,2169.96874905,2170.04386401,2173.04685307,1,2173.06079602,2180.37228298,
sujeto_7ab61c9e,1,2,21,53,2180.51246715,direct,4,1,3,"¿Cuántos mundiales de fútbol 
femenino ha realizado FIFA? ",9,7,,1,1,1,competitive,left,1.88109302521,2182.39362502,3.11890697479,2185.68680215,4.56881713867,2190.25566006,1.43118286133,2191.73650312,2192.98022199,2193.0529511,2196.05588603,1,2196.0705812,2202.173033,
sujeto_7ab61c9e,1,2,22,54,2202.32287002,inverse,3,1,2,"¿Cuál es la temperatura 
media anual en Montevideo? ",17.5,16.3,,0,0,1,competitive,left,1.84885692596,2204.1717701,3.15114307404,2207.51436019,4.31846213341,2211.83288503,1.68153786659,2213.56619406,2215.50478697,2215.58300805,2218.58595419,0,2218.60153913,2225.17106104,
sujeto_7ab61c9e,1,2,23,55,2225.31905103,direct,2,1,2,"¿En qué año se estrenó el
 videojuego The Sims? ",2000,2002,,0,0,0,individual,right,2.1809258461,2227.50004101,2.8190741539,2230.47727919,4.678784132,2235.15611219,1.321215868,2236.52411318,2238.38614511,2238.42480016,2241.42779016,0,2241.443362,2248.83698916,
sujeto_7ab61c9e,1,2,24,56,2248.97796798,inverse,2,1,1,"¿Cuál es la canción con 
mas covers? ",Yesterday,Stand by me,,0,0,0,individual,left,2.83621001244,2251.81424308,2.16378998756,2254.15483499,4.12440490723,2258.27930117,1.87559509277,2260.20716619,2261.60573816,2261.65914702,2264.66209412,0,2264.67556119,2268.84548998,
sujeto_7ab61c9e,1,2,25,57,2268.99356103,direct,1,1,4,"¿Cuánto duró la guerra
 de los 100 años?",116,123,,0,0,0,competitive,left,2.88109493256,2271.87472701,2.11890506744,2274.16610909,3.59131598473,2277.75746512,2.40868401527,2280.21803999,2281.69889617,2281.78554106,2284.78853416,0,2284.80278802,2287.12257504,
sujeto_7ab61c9e,1,2,26,58,2287.27097106,inverse,4,1,4,¿Qué color tiene la  bandera de Brasil?,Amarillo,Naranja,left,0,0,1,individual,left,1.87580800056,2289.14686418,3.12419199944,2292.45903015,3.53547501564,2295.99456215,2.46452498436,2298.50788498,2300.07442999,2300.12516809,2303.12814212,1,2303.1427381,2306.17550516,
sujeto_7ab61c9e,1,2,27,59,2306.32748413,direct,4,1,3,"¿Qué carabela de 
Colon no volvió del viaje?",Santa María,La pinta,,0,0,1,individual,right,1.4132771492,2307.74082899,3.5867228508,2311.48648906,5.20824599266,2316.69477606,0.791754007339,2317.52047205,2319.01154113,2319.05445409,2322.05742097,0,2322.07189417,2324.17139006,
sujeto_7ab61c9e,1,2,28,60,2324.32347298,inverse,4,1,4,"¿Cuántos huesos tiene
 un adulto humano?",217,206,,0,0,1,individual,left,1.40644407272,2325.72998619,3.59355592728,2329.49558306,3.53240990639,2333.02803516,2.46759009361,2335.54576707,2336.816751,2336.86399817,2339.86696005,0,2339.88179302,2347.71748519,
sujeto_7ab61c9e,1,2,29,61,2347.86598611,direct,1,1,1,"¿Qué país africano fue 
fundado por esclavos?",Liberia,Chad,,0,0,0,individual,left,2.38514018059,2350.25117016,2.61485981941,2353.0218761,5.00732207298,2358.02923918,0.992677927017,2359.07488608,2361.06653404,2361.10915303,2364.11207819,0,2364.12757611,2372.11747718,
sujeto_7ab61c9e,1,2,30,62,2372.26175117,inverse,4,1,2,"¿A cuánto asciende la cima
 del monte Everest?",7.990 mts,8.848 mts,,0,0,1,competitive,left,3.18258404732,2375.44442701,1.81741595268,2377.43709207,5.52031493187,2382.9574492,0.47968506813,2383.48714113,2384.67199397,2384.75412703,2387.75715303,0,2387.77076817,2394.95445919,
sujeto_7ab61c9e,1,2,31,63,2395.08889604,direct,4,1,1,¿Cuál es el país mas chico?,Sealand,Luxemburgo,,1,1,1,competitive,right,1.94370985031,2397.03265715,3.05629014969,2400.24935603,3.89723086357,2404.14662504,2.10276913643,2406.29963303,2408.16316009,2408.23487306,2411.23781705,1,2411.25253606,2414.37481809,
sujeto_7ab61c9e,1,2,32,64,2414.52175403,inverse,2,1,4,¿Cuántas pirámides hay en Egipto?,10000,11000,,1,1,1,competitive,left,3.28897500038,2417.81079412,1.71102499962,2419.676301,4.9224998951,2424.59884214,1.0775001049,2425.72793913,2426.76154613,2426.84495401,2429.84677315,1,2429.86207604,2434.97115803,
sujeto_7ab61c9e,1,3,1,65,2552.58285904,direct,2,1,2,"¿Cuál es el quinto país con 
mas extensión?",Canadá,Brasil,,1,1,0,competitive,left,1.85914993286,2554.44205499,3.14085006714,2557.74823308,5.71988010406,2563.46818018,0.280119895935,2563.79964805,2565.13292718,2565.2164011,2568.21937299,1,2568.233917,2575.96030617,2434.98595619
sujeto_7ab61c9e,1,3,2,66,2576.10182619,inverse,1,1,2,"¿Qué rasgo facial no tiene
 la Mona Lisa?",Cejas,Pómulos,,0,0,1,competitive,right,1.29545092583,2577.39732814,3.70454907417,2581.25816512,4.8131210804,2586.07132697,1.1868789196,2587.31077504,2589.06117916,2589.14503098,2592.14800906,0,2592.16253519,2598.43387198,
sujeto_7ab61c9e,1,3,3,67,2598.58575201,direct,4,1,3,"¿Cuál es el país con 
mayor población?",Esados Unidos,China,right,0,0,1,competitive,right,1.79265403748,2600.37847209,3.20734596252,2603.7549212,3.93457102776,2607.68953109,2.06542897224,2609.80659008,2611.45257616,2611.52476597,2614.52775216,1,2614.54225206,2617.90957808,
sujeto_7ab61c9e,1,3,4,68,2618.06094813,inverse,1,1,1,La palabra dinosaurio significa,Lagarto Terrible,Lagarto Dragón,,1,1,0,competitive,left,1.45370006561,2619.51471615,3.54629993439,2623.24923015,4.33339095116,2627.58268213,1.66660904884,2629.30073214,2630.47045016,2630.55137205,2633.55439305,1,2633.56871605,2636.43052912,
sujeto_7ab61c9e,1,3,5,69,2636.56974506,direct,2,1,3,¿Qué es el membrillero?,Arbol,Arbusto,,0,0,0,competitive,right,1.67105293274,2638.24086499,3.32894706726,2641.70960617,5.09426307678,2646.80391216,0.905736923218,2647.76026416,2649.71438813,2649.79479313,2652.79772115,0,2652.81207013,2659.2760942,
sujeto_7ab61c9e,1,3,6,70,2659.43014812,inverse,3,1,3,"¿Alrededor de qué planeta orbita 
el satélite Europa?",Jupiter,Saturno,,1,1,1,competitive,,3.75988721848,2663.19011116,1.24011278152,2664.58561802,6,2670.58577204,0,2670.60408616,2672.14891601,2672.22256398,2675.22555804,0,2675.24014616,2677.44530416,
sujeto_7ab61c9e,1,3,7,71,2677.59188604,direct,3,1,1,"¿Donde fue el mundial de 
fútbol de 1954?",Suiza,Suecia,,1,1,1,competitive,left,1.4673409462,2679.059273,3.5326590538,2682.74697304,4.59030389786,2687.33735919,1.40969610214,2688.78204918,2690.03464103,2690.11543512,2693.11842418,1,2693.13301206,2697.0448091,
sujeto_7ab61c9e,1,3,8,72,2697.18503404,inverse,1,1,4,"¿Cuál de los 7 enanitos
no tenía barba?",Bashful,Mudito,,1,1,0,competitive,right,1.7143008709,2698.899405,3.2856991291,2702.33836102,5.04706096649,2707.38548517,0.952939033508,2708.39114308,2709.97127199,2710.05810308,2713.06109905,1,2713.07639909,2718.0054791,
sujeto_7ab61c9e,1,3,9,73,2718.14381719,direct,3,1,2,"¿Cual red social es
mas utilizada mundialmente?",Instagram,Facebook,,1,1,0,competitive,left,1.65487408638,2719.79875898,3.34512591362,2723.30163813,4.07697319984,2727.37867308,1.92302680016,2729.33633518,2731.25373507,2731.33767915,2734.34060407,1,2734.35514903,2737.28959107,
sujeto_7ab61c9e,1,3,10,74,2737.43969107,inverse,4,1,1,"¿Cuándo se inició la copa
 América de fútbol?",1916,1923,,1,1,1,competitive,left,2.70607590675,2740.14584112,2.29392409325,2742.60869217,4.96503305435,2747.57376719,1.03496694565,2748.64743018,2750.54489613,2750.63075304,2753.63371015,1,2753.64837813,2756.30450797,
sujeto_7ab61c9e,1,3,11,75,2756.45035911,direct,3,1,4,"¿Cuántos presidentes de EEUU
han muerto asesinados?",3,4,,0,0,1,competitive,right,3.27756595612,2759.72797012,1.72243404388,2761.62206912,4.6548910141,2766.27702117,1.3451089859,2767.67322397,2769.15717411,2769.24083304,2772.24382305,0,2772.25802612,2775.90213203,
sujeto_7ab61c9e,1,3,12,76,2776.0379262,inverse,2,1,4,"¿Cuántas veces participó EEUU
 en la copa América?",4,5,,0,0,1,competitive,left,0.925203084946,2776.96317506,4.07479691505,2781.21214819,4.14091992378,2785.35310912,1.85908007622,2787.265522,2788.70963097,2788.78267407,2791.78563714,0,2791.79988813,2797.9170692,
sujeto_7ab61c9e,1,3,13,77,2798.06795907,direct,4,1,1,"¿Cuál de estos países 
no formaba la URSS?",Azeribayán,Afganistán,,0,0,1,individual,left,1.28935003281,2799.35739517,3.71064996719,2803.24400496,4.0413620472,2807.285429,1.9586379528,2809.29492712,2810.60801506,2810.64597917,2813.64894819,0,2813.66260314,2821.64475513,
sujeto_7ab61c9e,1,3,14,78,2821.79809403,inverse,1,1,1,"¿En qué año se inauguró
 el teatro Solís?",1867,1856,,0,0,0,competitive,left,1.24339604378,2823.04153299,3.75660395622,2826.95556307,3.75297188759,2830.70857406,2.24702811241,2833.00676203,2834.06306314,2834.13952112,2837.14246607,0,2837.15715098,2843.80496812,
sujeto_7ab61c9e,1,3,15,79,2843.9578321,direct,1,1,4,"¿A qué velocidad vuela 
el avión más rápido?",3529,3874,,0,0,0,competitive,right,1.08485102654,2845.04275608,3.91514897346,2849.11724615,4.14846801758,2853.2657721,1.85153198242,2855.16840601,2856.9238832,2857.00271797,2860.0056901,0,2860.02013516,2862.13040805,
sujeto_7ab61c9e,1,3,16,80,2862.25538707,inverse,3,1,4,"¿De qué año es la primer 
película cinematográfica?",1897,1888,,0,0,0,competitive,left,1.76250386238,2864.01795697,3.23749613762,2867.41100407,4.81098294258,2872.2220552,1.18901705742,2873.44524002,2874.57824016,2874.66338706,2877.66637897,0,2877.68059707,2883.09036899,
sujeto_7ab61c9e,1,3,17,81,2883.23209906,direct,2,1,3,"¿Cuántos países 
tiene nuestro planeta?",191,194,,1,1,1,,,,,,,,,,,,,,,2888.25550199,2891.493819,
sujeto_7ab61c9e,1,3,18,82,2891.62073898,inverse,2,1,2,"¿Cuántos habitantes
 tiene Buenos Aires?",2.9000.000,3650000,,0,0,0,competitive,left,1.17840385437,2892.79918504,3.82159614563,2896.77639604,4.28980183601,2901.06625819,1.71019816399,2902.82673597,2904.22403002,2904.29468608,2907.29764509,0,2907.31208801,2913.14148498,
sujeto_7ab61c9e,1,3,19,83,2913.297014,direct,2,1,1,¿Cuántos kilos forman una tonelada?,1000,1500,left,1,1,1,competitive,left,2.85339903831,2916.15046215,2.14660096169,2918.46716809,3.16426301003,2921.63147402,2.83573698997,2924.502321,2926.38969207,2926.47043109,2929.47338605,1,2929.48802209,2935.44540405,
sujeto_7ab61c9e,1,3,20,84,2935.60618901,inverse,4,1,4,"¿Cuántos estados tiene la 
República del Perú? ",24,23,,0,0,1,competitive,right,2.39136505127,2937.99760199,2.60863494873,2940.76605916,4.29353117943,2945.05962706,1.70646882057,2946.80028009,2947.82244205,2947.90124297,2950.90423703,0,2950.91882706,2955.86413312,
sujeto_7ab61c9e,1,3,21,85,2956.00396109,direct,3,1,3,¿En qué año nació Cristóbal Colón? ,1451,1447,,0,0,1,competitive,right,1.97667384148,2957.98071599,3.02332615852,2961.15935111,3.90338087082,2965.06275606,2.09661912918,2967.20992398,2969.05581713,2969.12804198,2972.12882519,0,2972.14625406,2976.37422109,
sujeto_7ab61c9e,1,3,22,86,2976.51453209,inverse,4,1,4,"¿Cuánto mide la 
Montaña Aconcagua? ",6234,6962,,0,0,1,competitive,left,0.864426851273,2977.37900901,4.13557314873,2981.68639708,5.38661599159,2987.07305598,0.613384008408,2987.73876715,2989.02811909,2989.10503912,2992.10801101,0,2992.12331319,2999.30150104,
sujeto_7ab61c9e,1,3,23,87,2999.45808911,direct,2,1,4,"¿Cuánto mide el punto
 más profundo del océano? ",12508,11003,,0,0,1,competitive,left,1.29512000084,3000.75327611,3.70487999916,3004.61377811,4.04040408134,3008.65422606,1.95959591866,3010.66557717,3011.91706705,3011.99990916,3015.00290608,0,3015.01753116,3019.22380805,
sujeto_7ab61c9e,1,3,24,88,3019.36865115,inverse,1,1,3,"¿Cuántos álbumes ha publicado 
el cantante Jaime Roos? ",41,34,,0,0,1,individual,left,4.95471000671,3024.3234272,0.0452899932861,3024.54127097,4.03313207626,3028.57447314,1.96686792374,3030.57764196,3032.06749511,3032.11172009,3035.11469913,0,3035.12888908,3041.32505202,
sujeto_7ab61c9e,1,3,25,89,3041.46462607,direct,4,1,3,"¿En qué año nació el 
ex-presidente Jorge Battle? ",1921,1927,,1,1,1,competitive,left,3.9688949585,3045.43356919,1.0311050415,3046.63835502,3.9972038269,3050.635602,2.0027961731,3052.67192912,3054.40224099,3054.489851,3057.49283099,1,3057.50817299,3060.9942441,
sujeto_7ab61c9e,1,3,26,90,3061.12609911,inverse,1,1,3,"¿Cuántas presidencias 
constitucionales  hubo en Uruguay? ",41,42,,0,0,1,,,,,,,,,,,,,,,3066.14648008,3071.93010306,
sujeto_7ab61c9e,1,3,27,91,3072.063905,direct,1,1,2,¿Quién escribió mas sinfonías?,Mozart,Haydn,,1,1,0,,,,,,,,,,,,,,,3077.08705306,3080.83847213,
sujeto_7ab61c9e,1,3,28,92,3080.96926713,inverse,4,1,2,¿En qué año nació Michael Jackson?,1958,1953,,1,1,1,individual,right,0.874668836594,3081.84399009,4.12533116341,3086.12521815,3.58373618126,3089.70901608,2.41626381874,3092.17605209,3094.15426397,3094.19345808,3097.19645119,1,3097.21093011,3103.07326603,
sujeto_7ab61c9e,1,3,29,93,3103.21250415,direct,3,1,2,"¿En qué año entró en vigencia 
la ley antitabaco en Uruguay?",2005,2006,,1,1,1,,,,,,,,,,,,,,,3108.2202611,3113.5542531,
sujeto_7ab61c9e,1,3,30,94,3113.68519497,inverse,3,1,1,"¿Cuándo se subió el 
primer video a youtube?",2004,2005,,0,0,1,individual,left,0.884047031403,3114.56931019,4.1159529686,3118.8367312,4.36347603798,3123.20025015,1.63652396202,3124.873137,3126.17880011,3126.22364998,3129.22661805,0,3129.24112701,3136.99674916,
sujeto_7ab61c9e,1,3,31,95,3137.14348006,direct,2,1,1,¿Cuántos habitantes tiene India?,1200 millones,1300 millones,,0,0,0,competitive,right,1.58897089958,3138.7325151,3.41102910042,3142.32038713,4.18606114388,3146.50650907,1.81393885612,3148.3726902,3150.34230804,3150.42312002,3153.42611313,0,3153.44163203,3159.48915505,
sujeto_7ab61c9e,1,3,32,96,3159.62540197,inverse,4,1,2,¿A qué edad murió Bob Marley?,36,37,,0,0,1,individual,right,0.827225923538,3160.45267916,4.17277407646,3164.78189898,3.81676411629,3168.59872413,2.18323588371,3170.83300114,3172.73085403,3172.78508997,3175.78806019,0,3175.80181003,3178.90427709,
sujeto_7ab61c9c,2,4,1,1,13.2977969646,direct,2,1,1,"¿Cuantos años dirigió la selección 
uruguaya Tabarez?",15 años,13 años,,0,0,0,competitive,left,1.14295911789,14.4408209324,3.85704088211,18.4675199986,2.16916298866,20.636744976,3.83083701134,24.5180559158,25.7092199326,25.7873728275,28.790364027,0,28.8038899899,35.875936985,
sujeto_7ab61c9c,2,4,2,2,36.0224599838,inverse,4,1,1,"¿Cuantas teclas tiene un teclado 
de computadora generalmente? ",Entre 99 y 108,Entre 109 y 113,,1,1,1,competitive,right,0.781368970871,36.8039348125,4.21863102913,41.1832928658,1.53745603561,42.7208118439,4.46254396439,47.2333159447,48.2361028194,48.3184349537,51.3214318752,1,51.3356149197,53.7070508003,
sujeto_7ab61c9c,2,4,3,3,53.8543448448,direct,1,1,1,"¿Cuál Departamento tiene
 mayor superficie?",Río Negro,Soriano,,0,0,0,competitive,right,2.24836492538,56.1027548313,2.75163507462,59.0264158249,2.00823187828,61.0346868038,3.99176812172,65.0766768456,66.7901690006,66.8619639874,69.8649568558,0,69.8794469833,74.2054970264,
sujeto_7ab61c9c,2,4,4,4,74.3467578888,inverse,3,1,2,"¿Cuál es el apellido de las 
hermanastras  de  cenicienta?",Tremaine,Truman,,0,0,1,competitive,right,3.00600886345,77.3528738022,1.99399113655,79.5032958984,2.19139194489,81.6947309971,3.80860805511,85.5534348488,87.4229729176,87.5056219101,90.5085868835,0,90.5228168964,93.2187399864,
sujeto_7ab61c9c,2,4,5,5,93.3751168251,direct,4,1,4,"¿Cuál película ganó un
 Oscar a mejor película?",Alto Impacto,Cache,,0,0,1,competitive,right,3.15153193474,96.5267119408,1.84846806526,98.5461900234,2.62636709213,101.172613859,3.37363290787,104.595916986,105.715327024,105.79865098,108.801632881,0,108.815155983,111.079774857,
sujeto_7ab61c9c,2,4,6,6,111.216711998,inverse,1,1,3,"¿A cuántos centímetros
equivale la medida pié?",25,30,,0,0,1,individual,left,3.24895596504,114.465735912,1.75104403496,116.405119896,3.62954497337,120.034704924,2.37045502663,122.440042973,123.480050802,123.523864985,126.526856899,0,126.541311026,131.942026854,
sujeto_7ab61c9c,2,4,7,7,132.092796803,direct,2,1,2,¿Qué departamento es mas grande?,Cerro Largo,Paysandú,,0,0,0,competitive,right,3.19281792641,135.285679817,1.80718207359,137.249238968,2.19838309288,139.44766283,3.80161690712,143.29995203,144.89972496,144.985029936,147.988014936,0,148.002285004,152.112273932,
sujeto_7ab61c9c,2,4,8,8,152.253810883,inverse,2,1,3,¿Quién pintó la Mona Lisa?,Picasso,Da Vinci,right,0,0,1,competitive,right,2.13180184364,154.385676861,2.86819815636,157.408190012,2.22939300537,159.637624025,3.77060699463,163.45795989,165.063786983,165.143601894,168.146509886,1,168.160139799,170.322418928,
sujeto_7ab61c9c,2,4,9,9,170.46172595,direct,4,1,3,¿Cuántos litros hay en un galon?,3.54,3.78,,1,1,1,competitive,right,1.19388318062,171.655653954,3.80611681938,175.635887861,4.03871798515,179.674664021,1.96128201485,181.686617851,183.204474926,183.287621975,186.290602922,1,186.305238008,192.097579956,
sujeto_7ab61c9c,2,4,10,10,192.239462852,inverse,4,1,1,"¿Cuántas teclas tiene
 un piano moderno?",80,88,,0,0,1,competitive,right,2.38514089584,194.624651909,2.61485910416,197.396589994,3.7109811306,201.107635975,2.2890188694,203.431607008,204.440086842,204.516043901,207.519024849,0,207.533404827,214.331166983,
sujeto_7ab61c9c,2,4,11,11,214.484603882,direct,4,1,3,¿Cuántos países hay en África?,54,62,,0,0,1,competitive,right,1.20802402496,215.692724943,3.79197597504,219.658951998,2.91065597534,222.569665909,3.08934402466,225.692145824,227.382706881,227.46000886,230.462994814,0,230.478178978,238.282948017,
sujeto_7ab61c9c,2,4,12,12,238.428948879,inverse,1,1,3,"¿En qué siglo se crearon
 las primeras pistolas?",XV,XIII,,1,1,1,competitive,right,1.26269984245,239.691725969,3.73730015755,243.598508835,5.30113983154,248.899688959,0.698860168457,249.652311802,251.600208998,251.685774803,254.688746929,1,254.703263998,257.93637991,
sujeto_7ab61c9c,2,4,13,13,258.071467876,direct,3,1,4,"¿En qué año se estrenó 
la serie friends?",1994,1995,,0,0,1,competitive,left,2.30219888687,260.37371397,2.69780111313,263.246641874,4.04402399063,267.290728807,1.95597600937,269.332170963,271.207446814,271.283180952,274.286178827,0,274.300689936,279.306759834,
sujeto_7ab61c9c,2,4,14,14,279.450381994,inverse,3,1,4,¿En qué año nació Hitler?,1889,1887,,0,0,1,competitive,right,0.767358064651,280.217787027,4.23264193535,284.62458086,3.84101700783,288.465633869,2.15898299217,290.676503897,291.790891886,291.876785994,294.879773855,0,294.894049883,299.92104888,
sujeto_7ab61c9c,2,4,15,15,300.062145948,direct,1,1,4,¿Cuánto pesa un elefante Africano?,6000 kilos,5400 kilos,,0,0,0,individual,right,2.39355802536,302.455750942,2.60644197464,305.219482899,3.88225317001,309.10177803,2.11774682999,311.270114899,312.626036882,312.671331882,315.674299002,0,315.688606977,322.395659924,
sujeto_7ab61c9c,2,4,16,16,322.540375948,inverse,1,1,2,"¿Qué porcentaje de 
la población es zurda?",10%,7%,,1,1,0,competitive,right,1.12636899948,323.666823864,3.87363100052,327.695395947,4.80435204506,332.499789953,1.19564795494,333.747927904,334.990983963,335.064457893,338.067451954,1,338.084880829,344.06459403,
sujeto_7ab61c9c,2,4,17,17,344.216734886,direct,1,1,2,"¿En qué año se estrenó
Volver al futuro?",1984,1985,,0,0,1,individual,right,1.34215188026,345.558993816,3.65784811974,349.376024008,3.70774412155,353.083807945,2.29225587845,355.42648983,356.988022804,357.027607918,360.030589819,0,360.04521203,367.136663914,
sujeto_7ab61c9c,2,4,18,18,367.279392004,inverse,3,1,2,"¿Cuántos jugadores hay en un 
equipo de baseball?",9,8,,1,1,0,individual,left,1.71241903305,368.991875887,3.28758096695,372.437674999,4.01613497734,376.453874826,1.98386502266,378.488730907,380.103009939,380.139000893,383.141935825,1,383.157236814,388.134481907,
sujeto_7ab61c9c,2,4,19,19,388.291610003,direct,2,1,1,"¿Cuántos Oscar ganó
 la película titanic?",13,11,,1,1,1,individual,right,1.22531604767,389.516973019,3.77468395233,393.448047876,3.33680295944,396.784894943,2.66319704056,399.498708963,400.800742865,400.850328922,403.853314877,1,403.867713928,408.470381975,
sujeto_7ab61c9c,2,4,20,20,408.618737936,inverse,4,1,4,"¿En qué año comenzó
la segunda guerra mundial?",1939,1976,left,0,0,1,individual,left,2.62121701241,411.239998817,2.37878298759,413.788250923,3.47669100761,417.26499486,2.52330899239,419.825594902,421.625460863,421.676514864,424.679494858,1,424.694162846,428.681318998,
sujeto_7ab61c9c,2,4,21,21,428.828949928,direct,2,1,4,¿Cuántos biomas hay en Uruguay?,5,4,,0,0,1,individual,right,1.23408389091,430.063079834,3.76591610909,434.002107859,2.89387202263,436.896049023,3.10612797737,440.036312819,441.833675861,441.871305943,444.874284029,0,444.888911963,451.13833499,
sujeto_7ab61c9c,2,4,22,22,451.272776842,inverse,2,1,3,¿Cuándo murió Pablo Escobar?,1993,1997,,1,1,1,competitive,left,2.1962480545,453.469072819,2.8037519455,456.431188822,2.89986395836,459.331094027,3.10013604164,462.481320858,464.264179945,464.350484848,467.35203886,1,467.367446899,473.071115017,
sujeto_7ab61c9c,2,4,23,23,473.218941927,direct,1,1,4,¿Qué serie ha ganado mas premios?,Friends,Murphy Brown,,1,1,0,individual,left,2.06615686417,475.285143852,2.93384313583,478.391974926,4.10216593742,482.494180918,1.89783406258,484.443840981,485.796262026,485.84436202,488.847328901,1,488.8617239,494.423362017,
sujeto_7ab61c9c,2,4,24,24,494.563414812,inverse,4,1,2,¿Cuántas fichas tiene el dominó?,26,28,,1,1,1,individual,left,0.959774971008,495.523235798,4.04022502899,499.715374947,3.63775920868,503.353190899,2.36224079132,505.767172813,506.822486877,506.868921995,509.87191987,1,509.88596797,515.129030943,
sujeto_7ab61c9c,2,4,25,25,515.270087957,direct,2,1,4,¿Cuántos son los dientes de leche?,20,25,,0,0,1,competitive,right,1.75114583969,517.021299839,3.24885416031,520.429183006,5.20598196983,525.635221004,0.794018030167,526.482539892,528.192960978,528.265612841,531.268579006,0,531.283216953,533.428959846,
sujeto_7ab61c9c,2,4,26,26,533.569027901,inverse,3,1,3,¿Cuántos gramos son una onza?,22,28,,0,0,1,competitive,right,1.1733109951,534.742383957,3.8266890049,538.723601818,3.75171089172,542.475375891,2.24828910828,544.773826838,546.768676996,546.858183861,549.861158848,0,549.875406981,556.165658951,
sujeto_7ab61c9c,2,4,27,27,556.311000824,direct,3,1,1,"¿Cuándo salió el primer album
 de los Beatles?",1963,1962,,1,1,1,competitive,left,2.560338974,558.871404886,2.439661026,561.485135794,3.6302959919,565.115472794,2.3697040081,567.519545794,568.683197021,568.770948887,571.773944855,1,571.78846097,575.560493946,
sujeto_7ab61c9c,2,4,28,28,575.706291914,inverse,3,1,3,¿Quién fundó la empresa apple?,Carlos Slim,Steve Jobs,,1,1,1,individual,right,1.84009790421,577.546435833,3.15990209579,580.879210949,2.95518016815,583.834430933,3.04481983185,586.926523924,588.041196823,588.078060865,591.081041813,1,591.095644951,597.393499851,
sujeto_7ab61c9c,2,4,29,29,597.547418833,direct,4,1,2,"¿Cuántos municipios hay
 en Montevideo?",8,7,,1,1,1,competitive,left,2.17213892937,599.71962285,2.82786107063,602.70658493,3.88589286804,606.592517853,2.11410713196,608.758080006,610.67283988,610.758891821,613.761866808,1,613.776440859,615.857586861,
sujeto_7ab61c9c,2,4,30,30,615.994807005,inverse,1,1,1,"¿Cuántos kilómetros hay
 de Montevideo a Artigas?",632,599,,0,0,0,competitive,left,2.27774095535,618.272593975,2.72225904465,621.149386883,4.31125879288,625.460706949,1.68874120712,627.184520006,628.667668819,628.751982927,631.754957914,0,631.769237995,637.821349859,
sujeto_7ab61c9c,2,4,31,31,637.956220865,direct,2,1,2,"¿En qué año nació 
Leonardo Da Vinci?",1452,1511,,1,1,0,individual,left,2.15945696831,640.115720987,2.84054303169,643.125913858,3.14975881577,646.275728941,2.85024118423,649.178501844,651.032094002,651.07981801,654.082789898,1,654.097470999,657.243872881,
sujeto_7ab61c9c,2,4,32,32,657.398748875,inverse,3,1,1,"¿A qué continente
 pertenece el país Gabón?",Africa,Oceanía,,0,0,1,competitive,right,1.5010228157,658.899835825,3.4989771843,662.570866823,4.67689299583,667.24779892,1.32310700417,668.605075836,670.416739941,670.489470959,673.49245882,0,673.507139921,678.745049953,
