"code","nro_aplicante","nro_bloque","nro_trial_bloque","nro_trial_global","show_game_type","choice_order","rival","pay_individual","pay_competitive","question","answer_left_text","answer_right_text","correct_answer","outcome_individual","outcome_competitive","outcome_rival","game_type","answer","social_time","rt_game_type","feedback_delay","show_question","answer_time","rt_answer_global","feedback_delay_2","show_jitter","jitter_time","show_outcome","outcome_time","outcome_participant_real","show_final_jitter","second_jitter_time","inicio_descanso"
"sujeto_85db03a2","1","1","1","1","46.5225119591","direct","3","1","4","¿Cuántos centímetros corresponden
al talle 36 del calzado?","23","24","","0","0","1","competitive","","1.97038912773","48.4929659367","3.02961087227","51.6784999371","6","57.6786558628","0","57.691480875","58.7196969986","58.7938959599","61.7968418598","0","61.810956955","63.9734790325",""
"sujeto_85db03a2","1","1","2","2","64.1125018597","inverse","3","1","2","¿Cuántas metros mide la Intendencia
Municipal de Montevideo? ","84","78","","0","0","1","competitive","left","1.3795208931","65.4920928478","3.6204791069","69.2692699432","3.0427441597","72.312076807","2.9572558403","75.3028388023","77.18085289","77.2547729015","80.2577469349","0","80.2719459534","82.3647079468",""
"sujeto_85db03a2","1","1","3","3","82.523157835","direct","1","1","3","¿Cuántas La Pasiva
 hay en uruguay?","15","11","","1","1","1","competitive","left","1.39677286148","83.9199738503","3.60322713852","87.6792190075","2.58073592186","90.2600150108","3.41926407814","93.7125489712","95.3241798878","95.3978698254","98.4008069038","1","98.4146709442","102.692979813",""
"sujeto_85db03a2","1","1","4","4","102.849172831","inverse","3","1","3","¿De que color es la camiseta de uruguay?","blanca","celeste","right","1","1","1","competitive","right","1.09577894211","103.94499588","3.90422105789","107.987716913","2.64325785637","110.631017923","3.35674214363","114.022943974","115.22771287","115.30745101","118.310375929","1","118.325218916","121.779130936",""
"sujeto_85db03a2","1","1","5","5","121.926295996","direct","2","1","1","¿Cuánto metros mide
la torre Eiffel?","333","324","","1","1","1","competitive","left","1.82568192482","123.752022028","3.17431807518","127.082477808","3.20151209831","130.284032822","2.79848790169","133.133131981","134.654511929","134.734027863","137.737015963","1","137.751227856","144.787922859",""
"sujeto_85db03a2","1","1","6","6","144.939965963","inverse","3","1","4","¿Cuantas ciudades existen
 en todo el uruguay?","63","72","","0","0","1","competitive","left","0.902022123337","145.842037916","4.09797787666","150.094056845","4.49790787697","154.592007875","1.50209212303","156.145001888","157.199796915","157.279500008","160.282478809","0","160.296661854","167.923249006",""
"sujeto_85db03a2","1","1","7","7","168.069038868","direct","1","1","1","¿Cuantos estados tiene África?","52","54","","1","1","0","competitive","left","0.972955942154","169.042042971","4.02704405785","173.205968857","2.94404387474","176.150085926","3.05595612526","179.239871979","181.103878021","181.192335844","184.195310831","1","184.209281921","189.97030282",""
"sujeto_85db03a2","1","1","8","8","190.113569975","inverse","4","1","4","¿En qué año nació
 Stephen Hawking?","1952","1942","","0","0","1","competitive","left","1.2414419651","191.355054855","3.7585580349","195.267166853","5.0328578949","200.300096989","0.967142105103","201.319301844","202.763553858","202.83620286","205.839170933","0","205.853084803","211.952453852",""
"sujeto_85db03a2","1","1","9","9","212.106724024","direct","2","1","3","¿Cuánto años tenía Artigas
 cuando se fue a Paraguay?","56","57","","1","1","1","competitive","left","1.10932993889","213.216118813","3.89067006111","217.242269993","4.91674518585","222.159083843","1.08325481415","223.29526186","224.844756842","224.929841995","227.932813883","1","227.946929932","233.994242907",""
"sujeto_85db03a2","1","1","10","10","234.135166883","inverse","1","1","2","¿Cuantos milímetros 
mide una hoja A2?","420x592","420x594","","0","0","1","competitive","left","1.2168610096","235.352074862","3.7831389904","239.289775848","0.0271980762482","239.317032814","5.97280192375","245.338666916","246.907070875","246.97573781","249.978713989","0","249.992825985","257.063707829",""
"sujeto_85db03a2","1","1","11","11","257.415462017","direct","3","1","3","¿Cuál es la menor temperatura 
registrada en Uruguay?","-5.4","-7.4","","0","0","1","competitive","right","0.99564909935","258.411180019","4.00435090065","262.568625927","5.97841596603","268.547103882","0.0215840339661","268.60394001","270.285938025","270.354060888","273.357033014","0","273.371212959","277.104514837",""
"sujeto_85db03a2","1","1","12","12","277.241642952","inverse","2","1","2","¿Cuantos años hace que 
se fundó facebook?","18","17","","0","0","0","competitive","left","1.04844522476","278.29015398","3.95155477524","282.39526701","4.07978701591","286.475100994","1.92021298409","288.430311918","289.803017855","289.880657911","292.883634806","0","292.898509026","295.673144817",""
"sujeto_85db03a2","1","1","13","13","295.815932035","direct","1","1","4","¿Cuál animal es más
 pesado en promedio?","Rinoceronte","Hipopotamo","","0","0","0","competitive","right","1.07911992073","296.895117998","3.92088007927","301.002322912","3.75580716133","304.758196831","2.24419283867","307.054280996","308.133526802","308.2054739","311.207700968","0","311.222814798","315.063799858",""
"sujeto_85db03a2","1","1","14","14","315.192972898","inverse","1","1","2","¿Qué personaje de dragon ball 
murió más veces?","Chaoz","Krillin","","1","1","0","competitive","right","1.00012803078","316.193176031","3.99987196922","320.348322868","3.71581697464","324.064211845","2.28418302536","326.399271965","327.857060909","327.934176922","330.935772896","1","330.950898886","338.723833799",""
"sujeto_85db03a2","1","1","15","15","338.855494976","direct","3","1","2","La universidad de oxford. 
existe desde:","1096","1249","","1","1","0","competitive","left","1.44760012627","340.303138971","3.55239987373","343.994132996","4.16300010681","348.157174826","1.83699989319","350.028576851","351.077386856","351.145668983","354.148645878","1","354.163628817","360.854499817",""
"sujeto_85db03a2","1","1","16","16","360.98306489","inverse","3","1","1","¿Qué escritor latino ganó antes
 el premio nobel?"," García Marquez","Neruda","","0","0","1","competitive","left","1.42107486725","362.40418601","3.57892513275","366.139384031","3.30173993111","369.441195011","2.69826006889","372.189291","373.929298878","374.007483959","377.010457993","0","377.025369883","380.485898972",""
"sujeto_85db03a2","1","1","17","17","380.626900911","direct","4","1","3","¿Cuántos dientes tiene un
 tiburón blanco?","6000","3000","","0","0","1","competitive","left","0.977202892303","381.604182005","4.0227971077","385.779234886","5.1448969841","390.924196959","0.8551030159","391.8158288","392.854825974","392.94906497","395.95202899","0","395.966228962","400.775699854",""
"sujeto_85db03a2","1","1","18","18","400.920684814","inverse","4","1","1","¿Cuánto mide el paralelo Ecuador?","40.000km","70.000km","","0","0","1","competitive","left","1.18745112419","402.108201981","3.81254887581","406.076717854","4.30840492249","410.385164976","1.69159507751","412.109818935","414.065912008","414.144793034","417.147771835","0","417.16187501","420.763692856",""
"sujeto_85db03a2","1","1","19","19","420.898850918","direct","4","1","2","¿Cuál fue el primer libro 
de Stephen King?","Carrie","The Stand","","1","1","1","competitive","left","1.79930090904","422.698226929","3.20069909096","426.070588827","4.78453588486","430.855191946","1.21546411514","432.120873928","433.864977837","433.938390017","436.94134593","1","436.956362009","441.430809975",""
"sujeto_85db03a2","1","1","20","20","441.593077898","inverse","2","1","3","¿Qué civilización practicaba
 la momificación?","Grecia","Egipto","right","0","0","1","competitive","right","0.854135990143","442.447289944","4.14586400986","446.743530035","3.14059209824","449.88419199","2.85940790176","452.796554804","454.73582983","454.814056873","457.816984892","1","457.832178831","462.060952902",""
"sujeto_85db03a2","1","1","21","21","462.218992949","direct","4","1","4","¿Cuántos millones de visitas
 recibe google por minuto?","3.0","4.5","","0","0","1","competitive","left","1.02718114853","463.246251822","3.97281885147","467.374625921","4.21451210976","471.589183807","1.78548789024","473.425051928","474.939935923","475.026571035","478.029560804","0","478.043776035","485.166459799",""
"sujeto_85db03a2","1","1","22","22","485.294972897","inverse","1","1","3","La máquina de fax. se inventó en:","1843","1960","","0","0","1","competitive","right","1.33822798729","486.633267879","3.66177201271","490.436661005","3.90756011009","494.344285011","2.09243988991","496.486647844","497.728663921","497.805052996","500.807701826","0","500.823851824","504.059715986",""
"sujeto_85db03a2","1","1","23","23","504.191013813","direct","2","1","4","En la verdadera historia de los
 300 espartanos. habían:","300 soldados","4300 soldados","","1","1","1","competitive","","1.8671848774","506.058246851","3.1328151226","509.362751007","6","515.362882853","0","515.378109932","516.63934803","516.714355946","519.717327833","0","519.73221302","523.533974886",""
"sujeto_85db03a2","1","1","24","24","523.66671586","inverse","1","1","4","¿Cuántos milímetros crece
 el pelo por día?","0.4","0.04","","0","0","0","competitive","left","0.949510812759","524.616290808","4.05048918724","528.823174","4.44704318047","533.270280838","1.55295681953","534.873737812","536.634464025","536.708375931","539.711349964","0","539.72534585","546.460444927",""
"sujeto_85db03a2","1","1","25","25","546.593591928","direct","4","1","1","¿Cuánto mide la baldosa gris 
clásica de Montevideo?","22x22 cm.","20x20 cm.","","1","1","1","competitive","right","0.894697904587","547.488395929","4.10530209541","551.767580032","4.53069806099","556.298319817","1.46930193901","557.818516016","559.813776016","559.886649847","562.889595032","1","562.903740883","568.446543932",""
"sujeto_85db03a2","1","1","26","26","568.590355873","inverse","2","1","2","¿Cuántas películas de rápidos
 y furiosos hay?","10","11","","1","1","0","competitive","right","1.71383786201","570.304260969","3.28616213799","573.745729923","4.62547898293","578.371253014","1.37452101707","579.780484915","581.138513803","581.214407921","584.215709925","1","584.231859922","586.266561031",""
"sujeto_85db03a2","1","1","27","27","586.401014805","direct","3","1","1","¿Cuántos masters 1000
 ganó Del Potro?","1","2","","1","1","1","competitive","right","1.03918504715","587.440244913","3.96081495285","591.537918806","4.79027295113","596.328231812","1.20972704887","597.573210955","599.327800989","599.406625986","602.409608841","1","602.424512863","609.820868015",""
"sujeto_85db03a2","1","1","28","28","609.976186991","inverse","2","1","4","¿Cuántos meses dura el 
embarazo de una leona?","3 meses","4 meses","","0","0","1","competitive","right","0.907080173492","610.883383036","4.09291982651","615.147464991","5.78673696518","620.934270859","0.213263034821","621.20062685","622.311677933","622.384099007","625.38706398","0","625.401237011","632.123677969",""
"sujeto_85db03a2","1","1","29","29","632.258374929","direct","1","1","1","¿En qué año fue creado
 el sandwich?","1762","1653","","1","1","0","competitive","right","1.21185994148","633.470304966","3.78814005852","637.411228895","4.8109998703","642.222296953","1.1890001297","643.44689703","645.045456886","645.130144835","648.133114815","1","648.147264957","651.617892981",""
"sujeto_85db03a2","1","1","30","30","651.751371861","inverse","4","1","2","El nombre de la moneda de Vietnam es:","Dinar","Dong","","0","0","1","competitive","left","0.990860939026","652.742297888","4.00913906097","656.905599833","3.65463709831","660.560305834","2.34536290169","662.956020832","664.38803196","664.474221945","667.477183819","0","667.491235018","673.659659863",""
"sujeto_85db03a2","1","1","31","31","673.793624878","direct","2","1","1","¿cuantos aleteos puede dar 
un colibrí por segundo?","120","50","","0","0","0","competitive","left","1.45462107658","675.248319864","3.54537892342","678.932977915","3.77925086021","682.712297916","2.22074913979","684.967155933","686.699553013","686.768862009","689.771839857","0","689.785782814","693.998051882",""
"sujeto_85db03a2","1","1","32","32","694.137632847","inverse","4","1","3","¿Qué altura promedio tienen
 los hombres uruguayos?","1.73 m","1.72 m","","1","1","1","competitive","left","0.896636962891","695.034336805","4.10336303711","699.291074991","2.72118997574","702.012332916","3.27881002426","705.34262681","706.605060816","706.677421808","709.680397987","1","709.694540977","714.170475006",""
"sujeto_85db03a2","1","2","1","33","845.063956022","direct","1","1","1","¿En qué año nació 
el actor Bradd Pitt?","1967","1963","","1","1","1","competitive","right","1.02036309242","846.084389925","3.97963690758","850.221833944","2.82551002502","853.04738903","3.17448997498","856.27142787","857.367275953","857.440291882","860.443245888","1","860.457167864","866.384758949","714.185045004"
"sujeto_85db03a2","1","2","2","34","866.507655859","inverse","2","1","1","¿Cual es el segundo 
monte más alto?","Kanchenjunga","K2","","1","1","1","competitive","right","1.09174489975","867.599468946","3.90825510025","871.647497892","5.6679019928","877.315447807","0.332098007202","877.701131821","879.153550863","879.233897924","882.236878872","1","882.251796007","885.681685925",""
"sujeto_85db03a2","1","2","3","35","885.821537971","direct","3","1","1","¿Cuándo finalizó la construcción
 del Palacio Legislativo?","1925","1917","","0","0","1","competitive","left","0.916866064072","886.738471985","4.08313393593","890.975898027","3.52349996567","894.499439955","2.47650003433","897.026610851","898.668292999","898.744412899","901.747402906","0","901.761413813","907.455708027",""
"sujeto_85db03a2","1","2","4","36","907.596177816","inverse","3","1","3","¿Cuántos integrantes tenía
 en su inicio  el cuarteto de nos?","3","4","","1","1","1","competitive","right","0.791186094284","908.38743186","4.20881390572","912.753106833","4.83931207657","917.592459917","1.16068792343","918.788851976","919.921944857","920.005079985","923.008066893","1","923.022053003","928.671871901",""
"sujeto_85db03a2","1","2","5","37","928.809747934","direct","2","1","3","¿Qué valor tiene el número pi?","3.14","4.18","left","0","0","1","competitive","left","1.00462698936","929.814450026","3.99537301064","933.947537899","1.67385601997","935.621456861","4.32614398003","939.997598886","941.451826811","941.535015821","944.538002014","1","944.55062294","951.471616983",""
"sujeto_85db03a2","1","2","6","38","951.618213892","inverse","2","1","2","¿Cuál es la esperanza de vida
 en Uruguay?","75","77","","1","1","0","competitive","left","1.02420186996","952.64246583","3.97579813004","956.756378889","4.70602297783","961.462445974","1.29397702217","962.810142994","964.463680983","964.543164015","967.543671846","1","967.560781956","974.023814917",""
"sujeto_85db03a2","1","2","7","39","974.145574808","direct","1","1","2","¿Cuantos pisos tiene la torre 
de las comunicaciones?","26","32","","1","1","0","competitive","right","1.42686605453","975.572485924","3.57313394547","979.28754282","4.22690105438","983.514506817","1.77309894562","985.322135925","987.150926828","987.223590851","990.226528883","1","990.240574837","992.386765957",""
"sujeto_85db03a2","1","2","8","40","992.526721954","inverse","2","1","4","¿En qué país sudamericano 
no hay McDonalds?","Bolivia","Venezuela","","0","0","1","competitive","left","0.900722980499","993.427497864","4.0992770195","997.680553913","3.93586087227","1001.61645699","2.06413912773","1003.73200798","1005.04133201","1005.11601281","1008.1189909","0","1008.13315701","1014.49288988",""
"sujeto_85db03a2","1","2","9","41","1014.63507295","direct","3","1","1","¿En qué año empieza
 la Edad Media?","476","512","","1","1","1","competitive","right","2.91336202621","1017.54850197","2.08663797379","1019.80678701","5.12264990807","1024.92950082","0.877350091934","1025.86107087","1027.26365495","1027.344486","1030.34741998","1","1030.36137199","1033.34766197",""
"sujeto_85db03a2","1","2","10","42","1033.47947693","inverse","3","1","4","¿Hace cuántos años surgió
 el ser humano?","200mil","300mil","","0","0","0","competitive","right","1.71197080612","1035.19151497","3.28802919388","1038.63505983","3.51442098618","1042.14952183","2.48557901382","1044.68617296","1046.57223988","1046.65360284","1049.65655088","0","1049.67177391","1052.98225188",""
"sujeto_85db03a2","1","2","11","43","1053.1246779","direct","3","1","4","¿Cuántas cuadras tiene
 actualmente 18 de julio? ","36","33","","0","0","1","competitive","left","1.20979404449","1054.33453894","3.79020595551","1058.27863693","4.09280085564","1062.37150097","1.90719914436","1064.31318784","1066.0154109","1066.09771395","1069.10065699","0","1069.11479902","1073.84108901",""
"sujeto_85db03a2","1","2","12","44","1074.00171995","inverse","1","1","4","¿Qué juego de equipo se 
considera mas rápido?","Lacrosse","Badminton","","0","0","0","competitive","left","1.02174305916","1075.02353597","3.97825694084","1079.15637994","2.96509981155","1082.121526","3.03490018845","1085.20572686","1086.44883204","1086.52438283","1089.52733684","0","1089.54218793","1097.53732085",""
"sujeto_85db03a2","1","2","13","45","1097.67721391","direct","1","1","3","¿Qué promedio de edad 
vive una jirafa? ","25","20","","0","0","1","competitive","right","0.842258930206","1098.51952195","4.15774106979","1102.83460689","4.12289094925","1106.95754385","1.87710905075","1108.88566995","1110.64716887","1110.71965194","1113.72262502","0","1113.73751688","1119.69325089",""
"sujeto_85db03a2","1","2","14","46","1119.82560682","inverse","1","1","2","¿Cuántos grandes lagos hay?","7","5","","0","0","1","competitive","right","1.07991600037","1120.90558887","3.92008399963","1124.97641993","2.95411682129","1127.93060589","3.04588317871","1131.02794385","1132.31970882","1132.39730597","1135.40028191","0","1135.41440892","1143.23569584",""
"sujeto_85db03a2","1","2","15","47","1143.38386798","direct","3","1","2","¿Cuántos discos de estudio
 grabó Johhny Cash? ","54","43","","1","1","0","competitive","right","1.20960211754","1144.59354401","3.79039788246","1148.54147792","4.5390329361","1153.0805819","1.4609670639","1154.59266996","1155.87128687","1155.94404984","1158.94701385","1","1158.96122599","1165.61214185",""
"sujeto_85db03a2","1","2","16","48","1165.78145289","inverse","4","1","1","¿Cuántos barrios tiene
 Montevideo? ","71","62","","0","0","1","competitive","left","1.072067976","1166.85357094","3.927932024","1170.93627095","3.34124803543","1174.277565","2.65875196457","1176.98738885","1177.99444199","1178.07151484","1181.07453203","0","1181.08867097","1186.550699",""
"sujeto_85db03a2","1","2","17","49","1186.69179583","direct","3","1","3","¿Qué edad tiene Homero Simpson?","36","42","","0","0","1","competitive","left","1.41671991348","1188.10858202","3.58328008652","1191.83133483","3.82515501976","1195.65653086","2.17484498024","1197.864856","1199.24086785","1199.31566286","1202.3186419","0","1202.33361387","1206.71970582",""
"sujeto_85db03a2","1","2","18","50","1206.87073088","inverse","4","1","2","¿Cuántos países con monarquía 
hay en europa actualmente? ","6","10","","1","1","1","competitive","left","0.741796970367","1207.61257291","4.25820302963","1212.03816295","4.51342320442","1216.55163789","1.48657679558","1218.07372284","1219.51197982","1219.59137893","1222.59165788","1","1222.60776687","1228.76454091",""
"sujeto_85db03a2","1","2","19","51","1228.91213894","direct","2","1","3","¿Cuántos capítulos de
 Friends existen? ","236","228","","1","1","1","competitive","","0.872806787491","1229.78501201","4.12719321251","1234.05233693","6","1240.05244493","0","1240.06774402","1241.37331891","1241.45487189","1244.45786095","0","1244.47093892","1246.84657788",""
"sujeto_85db03a2","1","2","20","52","1246.97320199","inverse","1","1","3","¿Cuántas óperas compuso Mozart? ","27","22","","1","1","1","competitive","right","1.00541806221","1247.978688","3.99458193779","1252.12836099","3.27622699738","1255.40463185","2.72377300262","1258.16247487","1259.45458698","1259.53033996","1262.53169799","1","1262.54784298","1269.85570192",""
"sujeto_85db03a2","1","2","21","53","1270.03400183","direct","4","1","3","¿Cuántos mundiales de fútbol 
femenino ha realizado FIFA? ","9","7","","1","1","1","competitive","left","0.884612083435","1270.91871881","4.11538791656","1275.20739198","3.93714404106","1279.14460588","2.06285595894","1281.25752902","1282.50123596","1282.57598591","1285.57894301","1","1285.59288692","1291.69535589",""
"sujeto_85db03a2","1","2","22","54","1291.86052203","inverse","3","1","2","¿Cuál es la temperatura 
media anual en Montevideo? ","17.5","16.3","","0","0","1","competitive","left","0.829097032547","1292.68972087","4.17090296745","1297.0313859","4.09322881699","1301.12467599","1.90677118301","1303.06797099","1305.00654292","1305.08562994","1308.08862591","0","1308.10260201","1314.67213583",""
"sujeto_85db03a2","1","2","23","55","1314.80643797","direct","2","1","2","¿En qué año se estrenó el
 videojuego The Sims? ","2000","2002","","0","0","0","competitive","right","0.967137098312","1315.77364087","4.03286290169","1319.9638648","3.82869887352","1323.79260898","2.17130112648","1325.99712396","1327.85911894","1327.93164492","1330.93462396","0","1330.94983888","1338.3434689",""
"sujeto_85db03a2","1","2","24","56","1338.48750591","inverse","2","1","1","¿Cuál es la canción con 
mas covers? ","Yesterday","Stand by me","","0","0","0","competitive","right","1.56508111954","1340.05265498","3.43491888046","1343.64267397","5.8769390583","1349.51968694","0.123060941696","1349.67746902","1351.07603192","1351.1612649","1354.1642158","0","1354.17845488","1358.34929585",""
"sujeto_85db03a2","1","2","25","57","1358.47950602","direct","1","1","4","¿Cuánto duró la guerra
 de los 100 años?","116","123","","0","0","0","competitive","right","1.30409002304","1359.78364587","3.69590997696","1363.61859393","4.07404899597","1367.69268394","1.92595100403","1369.66980696","1371.1506238","1371.22135687","1374.22435403","0","1374.23843884","1376.55820799",""
"sujeto_85db03a2","1","2","26","58","1376.68988299","inverse","4","1","4","¿Qué color tiene la  bandera de Brasil?","Amarillo","Naranja","left","0","0","1","competitive","left","1.21377396584","1377.90370584","3.78622603416","1381.84179997","3.40387010574","1385.24571681","2.59612989426","1387.8939569","1389.4604609","1389.54563284","1392.5486238","1","1392.5631249","1395.59592891",""
"sujeto_85db03a2","1","2","27","59","1395.73123789","direct","4","1","3","¿Qué carabela de 
Colon no volvió del viaje?","Santa María","La pinta","","0","0","1","individual","left","1.20737504959","1396.93868589","3.79262495041","1400.88791585","4.8516960144","1405.73965693","1.1483039856","1406.94006491","1408.431113","1408.473382","1411.47636485","0","1411.49045992","1413.58992195",""
"sujeto_85db03a2","1","2","28","60","1413.72625995","inverse","4","1","4","¿Cuántos huesos tiene
 un adulto humano?","217","206","","0","0","1","competitive","left","1.29936504364","1415.02569985","3.70063495636","1418.88142991","2.81919407845","1421.70068502","3.18080592155","1424.93140197","1426.20243096","1426.28283381","1429.28581882","0","1429.29987192","1437.13754082",""
"sujeto_85db03a2","1","2","29","61","1437.26834297","direct","1","1","1","¿Qué país africano fue 
fundado por esclavos?","Liberia","Chad","","0","0","0","competitive","left","1.12434005737","1438.39275503","3.87565994263","1442.40915394","3.39253616333","1445.80173182","2.60746383667","1448.44314599","1450.43477988","1450.51187491","1453.5148468","0","1453.52978587","1461.52062392",""
"sujeto_85db03a2","1","2","30","62","1461.84806395","inverse","4","1","2","¿A cuánto asciende la cima
 del monte Everest?","7.990 mts","8.848 mts","","0","0","1","competitive","right","0.873635053635","1462.72175002","4.12636494637","1467.00210595","3.20063018799","1470.20277882","2.79936981201","1473.05492592","1474.23965192","1474.32280493","1477.32578802","0","1477.33997798","1484.52402282",""
"sujeto_85db03a2","1","2","31","63","1484.65803003","direct","4","1","1","¿Cuál es el país mas chico?","Sealand","Luxemburgo","","1","1","1","competitive","right","0.896703004837","1485.55480695","4.10329699516","1489.83427191","3.27738785744","1493.11172891","2.72261214256","1495.86753297","1497.73101687","1497.80294585","1500.80366397","1","1500.81988502","1503.942173",""
"sujeto_85db03a2","1","2","32","64","1504.07164192","inverse","2","1","4","¿Cuántas pirámides hay en Egipto?","10000","11000","","1","1","1","competitive","left","0.85702586174","1504.92871189","4.14297413826","1509.22748995","5.5771791935","1514.80471301","0.422820806503","1515.262532","1516.29614186","1516.37948489","1519.38245487","1","1519.39681196","1524.50588489",""
"sujeto_85db03a2","1","3","1","65","1636.90809202","direct","2","1","2","¿Cuál es el quinto país con 
mas extensión?","Canadá","Brasil","","1","1","0","competitive","right","4.31762695312","1641.22578692","0.682373046875","1642.06006193","3.01264119148","1645.07274795","2.98735880852","1648.09646702","1649.42976594","1649.49829292","1652.50127602","1","1652.51522803","1660.2416029","1524.52077889"
"sujeto_85db03a2","1","3","2","66","1660.38370895","inverse","1","1","2","¿Qué rasgo facial no tiene
 la Mona Lisa?","Cejas","Pómulos","","0","0","1","competitive","right","0.768064022064","1661.15181899","4.23193597794","1665.55510497","4.88363313675","1670.43880081","1.11636686325","1671.60765791","1673.35805297","1673.44200683","1676.44498992","0","1676.45882297","1682.72766685",""
"sujeto_85db03a2","1","3","3","67","1682.87802601","direct","4","1","3","¿Cuál es el país con 
mayor población?","Esados Unidos","China","right","0","0","1","competitive","right","1.37176203728","1684.24983191","3.62823796272","1688.03586602","2.56890392303","1690.60481381","3.43109607697","1694.08671284","1695.73161197","1695.80443788","1698.80741501","1","1698.82265091","1702.187675",""
"sujeto_85db03a2","1","3","4","68","1702.32586789","inverse","1","1","1","La palabra dinosaurio significa","Lagarto Terrible","Lagarto Dragón","","1","1","0","competitive","left","0.847950935364","1703.17386198","4.15204906464","1707.49540782","2.77337288857","1710.26884794","3.22662711143","1713.54618192","1714.71652484","1714.79843402","1717.80141592","1","1717.81481099","1720.67663002",""
"sujeto_85db03a2","1","3","5","69","1720.81661296","direct","2","1","3","¿Qué es el membrillero?","Arbol","Arbusto","","0","0","0","competitive","left","1.05821609497","1721.87487292","3.94178390503","1725.95522285","5.60755681992","1731.56281996","0.392443180084","1731.990695","1733.94480801","1734.02451897","1737.02751589","0","1737.04139996","1743.50367594",""
"sujeto_85db03a2","1","3","6","70","1743.66052794","inverse","3","1","3","¿Alrededor de qué planeta orbita 
el satélite Europa?","Jupiter","Saturno","","1","1","1","competitive","right","1.73928308487","1745.39985585","3.26071691513","1748.801548","4.19429111481","1752.99587798","1.80570888519","1754.83589101","1756.3806839","1756.45262599","1759.45560884","1","1759.47051096","1761.67567301",""
"sujeto_85db03a2","1","3","7","71","1761.82251096","direct","3","1","1","¿Donde fue el mundial de 
fútbol de 1954?","Suiza","Suecia","","1","1","1","competitive","left","2.45136213303","1764.27395582","2.54863786697","1767.00912499","3.82366490364","1770.83283091","2.17633509636","1773.0610559","1774.31362891","1774.39553285","1777.39855981","1","1777.41259694","1781.32437682",""
"sujeto_85db03a2","1","3","8","72","1781.49943995","inverse","1","1","4","¿Cuál de los 7 enanitos
no tenía barba?","Bashful","Mudito","","1","1","0","competitive","right","1.65538311005","1783.15488887","3.34461688995","1786.65384293","3.67894506454","1790.33284783","2.32105493546","1792.68777585","1794.26761985","1794.33882689","1797.3396709","1","1797.3565979","1802.28564882",""
"sujeto_85db03a2","1","3","9","73","1802.46109796","direct","3","1","2","¿Cual red social es
mas utilizada mundialmente?","Instagram","Facebook","","1","1","0","individual","left","0.722851037979","1803.18401694","4.27714896202","1807.62831402","2.70253992081","1810.33091593","3.29746007919","1813.67935085","1815.5956738","1815.63113093","1818.63166881","1","1818.64877486","1821.58327198",""
"sujeto_85db03a2","1","3","10","74","1821.71682787","inverse","4","1","1","¿Cuándo se inició la copa
 América de fútbol?","1916","1923","","1","1","1","competitive","","0.899046897888","1822.61592293","4.10095310211","1826.87360287","6","1832.87371802","0","1832.88915586","1834.78661895","1834.85929799","1837.86227393","0","1837.87732387","1840.53343892",""
"sujeto_85db03a2","1","3","11","75","1840.66193581","direct","3","1","4","¿Cuántos presidentes de EEUU
han muerto asesinados?","3","4","","0","0","1","competitive","right","1.83592891693","1842.49790883","3.16407108307","1845.83477592","2.88203883171","1848.71688485","3.11796116829","1851.88428187","1853.36823201","1853.45238185","1856.45537281","0","1856.47046089","1860.11459398",""
"sujeto_85db03a2","1","3","12","76","1860.28698182","inverse","2","1","4","¿Cuántas veces participó EEUU
 en la copa América?","4","5","","0","0","1","competitive","left","1.00586295128","1861.29291892","3.99413704872","1865.42579198","2.53705716133","1867.96289301","3.46294283867","1871.4773829","1872.92148399","1872.99598384","1875.99896288","0","1876.01282287","1882.13000488",""
"sujeto_85db03a2","1","3","13","77","1882.26507592","direct","4","1","1","¿Cuál de estos países 
no formaba la URSS?","Azeribayán","Afganistán","","0","0","1","competitive","right","1.25579595566","1883.52094293","3.74420404434","1887.40579796","4.1901011467","1891.59594083","1.8098988533","1893.45695591","1894.77000189","1894.84051085","1897.84349084","0","1897.85769296","1905.83969402",""
"sujeto_85db03a2","1","3","14","78","1905.99338794","inverse","1","1","1","¿En qué año se inauguró
 el teatro Solís?","1867","1856","","0","0","0","competitive","right","1.74054002762","1907.73397493","3.25945997238","1911.15147901","2.93944406509","1914.09096503","3.06055593491","1917.20108294","1918.257406","1918.33691382","1921.33970594","0","1921.35383201","1928.0016458",""
"sujeto_85db03a2","1","3","15","79","1928.15581298","direct","1","1","4","¿A qué velocidad vuela 
el avión más rápido?","3529","3874","","0","0","0","competitive","right","0.887130975723","1929.043015","4.11286902428","1933.32948589","4.27341198921","1937.60293984","1.72658801079","1939.37992597","1941.13540697","1941.21358895","1944.21657896","0","1944.23060298","1946.34085488",""
"sujeto_85db03a2","1","3","16","80","1946.48262","inverse","3","1","4","¿De qué año es la primer 
película cinematográfica?","1897","1888","","0","0","0","competitive","right","0.726320981979","1947.20900798","4.27367901802","1951.65412092","5.93678498268","1957.59096694","0.0632150173187","1957.70759988","1958.84058499","1958.92363381","1961.9266088","0","1961.94156194","1967.3513279",""
"sujeto_85db03a2","1","3","17","81","1967.50978804","direct","2","1","3","¿Cuántos países 
tiene nuestro planeta?","191","194","","1","1","1","competitive","right","0.960193872452","1968.470052","4.03980612755","1972.67937803","3.68352198601","1976.36296201","2.31647801399","1978.73216987","1980.0893898","1980.16620302","1983.16919398","1","1983.18434286","1986.42264795",""
"sujeto_85db03a2","1","3","18","82","1986.5687449","inverse","2","1","2","¿Cuántos habitantes
 tiene Buenos Aires?","2.9000.000","3650000","","0","0","0","competitive","left","0.848226070404","1987.41701984","4.1517739296","1991.72545886","5.82952904701","1997.55505085","0.170470952988","1997.76037788","1999.15764999","1999.22707891","2002.23006296","0","2002.24424291","2008.07169986",""
"sujeto_85db03a2","1","3","19","83","2008.24637103","direct","2","1","1","¿Cuántos kilos forman una tonelada?","1000","1500","left","1","1","1","competitive","right","1.23355388641","2009.48000002","3.76644611359","2013.40360188","3.14535093307","2016.54900002","2.85464906693","2019.43754387","2021.32488084","2021.40548587","2024.40846395","0","2024.42336893","2030.38076282",""
"sujeto_85db03a2","1","3","20","84","2030.52578092","inverse","4","1","4","¿Cuántos estados tiene la 
República del Perú? ","24","23","","0","0","1","competitive","right","0.861203193665","2031.38702798","4.13879680634","2035.67874384","4.52523994446","2040.20402884","1.47476005554","2041.71585202","2042.73793697","2042.81570292","2045.81869292","0","2045.83363795","2050.77571487",""
"sujeto_85db03a2","1","3","21","85","2050.91834688","direct","3","1","3","¿En qué año nació Cristóbal Colón? ","1451","1447","","0","0","1","individual","left","1.12962388992","2052.04801989","3.87037611008","2056.05837202","3.37264609337","2059.43108892","2.62735390663","2062.10934496","2063.9552269","2063.99257994","2066.99553585","0","2067.01075888","2071.23875189",""
"sujeto_85db03a2","1","3","22","86","2071.37884283","inverse","4","1","4","¿Cuánto mide la 
Montaña Aconcagua? ","6234","6962","","0","0","1","competitive","left","1.12713694572","2072.50604892","3.87286305428","2076.53617692","3.70579314232","2080.24203897","2.29420685768","2082.58788586","2083.87722301","2083.95467901","2086.95766592","0","2086.97188687","2094.155545",""
"sujeto_85db03a2","1","3","23","87","2094.30690002","direct","2","1","4","¿Cuánto mide el punto
 más profundo del océano? ","12508","11003","","0","0","1","competitive","left","1.66408109665","2095.97105694","3.33591890335","2099.4648459","3.07813286781","2102.54305291","2.92186713219","2105.51471496","2106.76617789","2106.85021687","2109.85319686","0","2109.86715698","2114.07342482",""
"sujeto_85db03a2","1","3","24","88","2114.23513985","inverse","1","1","3","¿Cuántos álbumes ha publicado 
el cantante Jaime Roos? ","41","34","","0","0","1","competitive","right","0.841907978058","2115.07711387","4.15809202194","2119.38831401","3.54367399216","2122.93203282","2.45632600784","2125.42449188","2126.91431594","2126.99194503","2129.99491096","0","2130.00985503","2136.20602083",""
"sujeto_85db03a2","1","3","25","89","2136.345397","direct","4","1","3","¿En qué año nació el 
ex-presidente Jorge Battle? ","1921","1927","","1","1","1","competitive","right","1.13563203812","2137.48109984","3.86436796188","2141.50335884","4.57170987129","2146.07511401","1.42829012871","2147.55465603","2149.28532696","2149.37217903","2152.3751688","1","2152.38937283","2155.87541986",""
"sujeto_85db03a2","1","3","26","90","2156.00809002","inverse","1","1","3","¿Cuántas presidencias 
constitucionales  hubo en Uruguay? ","41","42","","0","0","1","competitive","left","1.15894699097","2157.16710997","3.84105300903","2161.14650488","5.11850905418","2166.26505494","0.881490945816","2167.19848895","2168.40225887","2168.48243403","2171.48543096","0","2171.49867582","2177.28232098",""
"sujeto_85db03a2","1","3","27","91","2177.43505096","direct","1","1","2","¿Quién escribió mas sinfonías?","Mozart","Haydn","","1","1","0","competitive","left","1.12201595306","2178.55713081","3.87798404694","2182.574512","3.02953100204","2185.60408998","2.97046899796","2188.60707998","2189.82452989","2189.909271","2192.91225195","1","2192.9262259","2196.67764401",""
"sujeto_85db03a2","1","3","28","92","2196.81063581","inverse","4","1","2","¿En qué año nació Michael Jackson?","1958","1953","","1","1","1","competitive","right","0.772978067398","2197.5837009","4.2270219326","2201.98159099","3.90243697166","2205.88409686","2.09756302834","2208.03399491","2210.01223087","2210.101964","2213.10493088","1","2213.11912084","2218.98144984",""
"sujeto_85db03a2","1","3","29","93","2219.11995888","direct","3","1","2","¿En qué año entró en vigencia 
la ley antitabaco en Uruguay?","2005","2006","","1","1","1","competitive","left","2.21409988403","2221.33416581","2.78590011597","2224.2957859","3.91724801064","2228.21310401","2.08275198936","2230.34640884","2231.94117999","2232.014112","2235.01709104","1","2235.03229785","2240.36631083",""
"sujeto_85db03a2","1","3","30","94","2240.5199368","inverse","3","1","1","¿Cuándo se subió el 
primer video a youtube?","2004","2005","","0","0","1","competitive","left","1.0401570797","2241.56014085","3.9598429203","2245.67368793","2.40440678596","2248.07813692","3.59559321404","2251.723598","2253.02925897","2253.10812402","2256.11109996","0","2256.12534785","2263.88093901",""
"sujeto_85db03a2","1","3","31","95","2264.01039386","direct","2","1","1","¿Cuántos habitantes tiene India?","1200 millones","1300 millones","","0","0","0","competitive","right","1.01266884804","2265.02310991","3.98733115196","2269.18558598","4.20349907875","2273.38912892","1.79650092125","2275.23671794","2277.20632291","2277.287848","2280.29084897","0","2280.30475497","2286.35221982",""
"sujeto_85db03a2","1","3","32","96","2286.48939681","inverse","4","1","2","¿A qué edad murió Bob Marley?","36","37","","0","0","1","competitive","left","0.89368891716","2287.38312984","4.10631108284","2291.62820601","2.49188709259","2294.12015796","3.50811290741","2297.6803658","2299.5781939","2299.64836097","2302.65130091","0","2302.6651659","2305.7676239",""
"sujeto_85db03a2","1","4","1","97","2454.12986493","direct","2","1","1","¿Cuantos años dirigió la selección 
uruguaya Tabarez?","15 años","13 años","","0","0","0","competitive","right","1.21331000328","2455.34323692","3.78668999672","2459.2813139","4.73287391663","2464.01423001","1.26712608337","2465.33452296","2466.52568197","2466.6015439","2469.6045289","0","2469.61851597","2476.68770194","2305.78241181"
"sujeto_85db03a2","1","4","2","98","2476.83725381","inverse","4","1","1","¿Cuantas teclas tiene un teclado 
de computadora generalmente? ","Entre 99 y 108","Entre 109 y 113","","1","1","1","competitive","left","1.61391496658","2478.45124292","3.38608503342","2481.99519992","4.76898479462","2486.764256","1.23101520538","2488.04645491","2489.04922581","2489.13019085","2492.13317299","1","2492.14727998","2494.518718",""
"sujeto_85db03a2","1","4","3","99","2494.6662879","direct","1","1","1","¿Cuál Departamento tiene
 mayor superficie?","Río Negro","Soriano","","0","0","0","competitive","left","1.17689299583","2495.84324884","3.82310700417","2499.82087183","4.01533389091","2503.83626699","1.98466610909","2505.87212086","2507.585603","2507.65631485","2510.65929604","0","2510.67329097","2514.99938202",""
"sujeto_85db03a2","1","4","4","100","2515.14222884","inverse","3","1","2","¿Cuál es el apellido de las 
hermanastras  de  cenicienta?","Tremaine","Truman","","0","0","1","competitive","","1.14400696754","2516.28628087","3.85599303246","2520.29825997","6","2526.29837584","0","2526.31376886","2528.183249","2528.26701093","2531.26999497","0","2531.28399897","2533.97999191",""
"sujeto_85db03a2","1","4","5","101","2534.11942482","direct","4","1","4","¿Cuál película ganó un
 Oscar a mejor película?","Alto Impacto","Cache","","0","0","1","competitive","left","1.93185997009","2536.0513618","3.06814002991","2539.29095984","3.60528087616","2542.89630985","2.39471912384","2545.341501","2546.46089482","2546.54270887","2549.54569602","0","2549.56083989","2551.82547402",""
"sujeto_85db03a2","1","4","6","102","2551.96181798","inverse","1","1","3","¿A cuántos centímetros
equivale la medida pié?","25","30","","0","0","1","competitive","right","1.0224211216","2552.98428488","3.9775788784","2557.11700892","5.36424088478","2562.48131084","0.635759115219","2563.1693809","2564.20939589","2564.28586698","2567.28885388","0","2567.3030839","2572.70403194",""
"sujeto_85db03a2","1","4","7","103","2572.87143087","direct","2","1","2","¿Qué departamento es mas grande?","Cerro Largo","Paysandú","","0","0","0","individual","left","0.767840862274","2573.6393218","4.23215913773","2578.02787685","5.32834196091","2583.356287","0.671658039093","2584.06285596","2585.66262293","2585.71339202","2588.71573687","0","2588.73072886","2592.84069896",""
"sujeto_85db03a2","1","4","8","104","2592.98196697","inverse","2","1","3","¿Quién pintó la Mona Lisa?","Picasso","Da Vinci","right","0","0","1","competitive","right","0.865320205688","2593.84733081","4.13467979431","2598.13503003","4.7342441082","2602.86931586","1.2657558918","2604.18796992","2605.7938149","2605.87188292","2608.87486696","1","2608.88902092","2611.05135489",""
"sujeto_85db03a2","1","4","9","105","2611.19147301","direct","4","1","3","¿Cuántos litros hay en un galon?","3.54","3.78","","1","1","1","competitive","left","0.921770095825","2612.11331081","4.07822990417","2616.36409402","3.4811899662","2619.84533191","2.5188100338","2622.39818597","2623.91605401","2623.99847102","2627.00145292","1","2627.01671791","2632.80394697",""
"sujeto_85db03a2","1","4","10","106","2632.95149899","inverse","4","1","1","¿Cuántas teclas tiene
 un piano moderno?","80","88","","0","0","1","competitive","left","1.19474601746","2634.14629602","3.80525398254","2638.09263802","3.38160705566","2641.47428584","2.61839294434","2644.14249182","2645.15098596","2645.22750592","2648.23051","0","2648.24455285","2655.04231596",""
"sujeto_85db03a2","1","4","11","107","2655.19636798","direct","4","1","3","¿Cuántos países hay en África?","54","62","","0","0","1","competitive","right","0.816900968552","2656.01331401","4.18309903145","2660.36805987","4.87917590141","2665.24728203","1.12082409859","2666.40455604","2668.09508991","2668.17144895","2671.17442489","0","2671.18932295","2678.99408388",""
"sujeto_85db03a2","1","4","12","108","2679.12369394","inverse","1","1","3","¿En qué siglo se crearon
 las primeras pistolas?","XV","XIII","","1","1","1","competitive","left","0.747580766678","2679.87132096","4.25241923332","2684.27908492","5.4412548542","2689.72038698","0.558745145798","2690.3159349","2692.26366687","2692.33320594","2695.33617783","1","2695.35034585","2698.58345294",""
"sujeto_85db03a2","1","4","13","109","2698.71960902","direct","3","1","4","¿En qué año se estrenó 
la serie friends?","1994","1995","","0","0","1","individual","left","0.831726074219","2699.55138493","4.16827392578","2703.87488604","4.46548604965","2708.34043598","1.53451395035","2709.92700791","2711.80234694","2711.84402299","2714.84699392","0","2714.86217284","2719.86821294",""
"sujeto_85db03a2","1","4","14","110","2719.99713993","inverse","3","1","4","¿En qué año nació Hitler?","1889","1887","","0","0","1","competitive","right","0.756230831146","2720.75348997","4.24376916885","2725.13626981","3.97101593018","2729.10734987","2.02898406982","2731.18819594","2732.30256891","2732.37213182","2735.37510586","0","2735.38918281","2740.41615486",""
"sujeto_85db03a2","1","4","15","111","2740.55790401","direct","1","1","4","¿Cuánto pesa un elefante Africano?","6000 kilos","5400 kilos","","0","0","0","competitive","right","0.929407119751","2741.48737884","4.07059288025","2745.72863698","3.24965214729","2748.97835994","2.75034785271","2751.780442","2753.13636589","2753.21526504","2756.2182188","0","2756.23318887","2762.94022298",""
"sujeto_85db03a2","1","4","16","112","2763.08800602","inverse","1","1","2","¿Qué porcentaje de 
la población es zurda?","10%","7%","","1","1","0","competitive","left","1.08034205437","2764.16839194","3.91965794563","2768.23930693","3.57107782364","2771.81044888","2.42892217636","2774.29152298","2775.53465295","2775.6092658","2778.61169791","1","2778.62690592","2784.6036799",""
"sujeto_85db03a2","1","4","17","113","2784.74573183","direct","1","1","2","¿En qué año se estrenó
Volver al futuro?","1984","1985","","0","0","1","competitive","right","2.87262296677","2787.61840081","2.12737703323","2789.91768789","3.24067997932","2793.15842986","2.75932002068","2795.97090483","2797.53272796","2797.60564494","2800.60862803","0","2800.62297702","2807.71167994",""
"sujeto_85db03a2","1","4","18","114","2807.87502193","inverse","3","1","2","¿Cuántos jugadores hay en un 
equipo de baseball?","9","8","","1","1","0","competitive","right","0.854377985001","2808.72946596","4.145622015","2813.04856801","2.33677601814","2815.38538599","3.66322398186","2819.09836197","2820.71164703","2820.7837379","2823.78670597","1","2823.80185986","2828.77912188",""
"sujeto_85db03a2","1","4","19","115","2828.92024994","direct","2","1","1","¿Cuántos Oscar ganó
 la película titanic?","13","11","","1","1","1","competitive","right","0.761098861694","2829.68139386","4.23890113831","2834.09235883","4.76409196854","2838.85651588","1.23590803146","2840.12728095","2841.42933297","2841.51843381","2844.52140784","1","2844.52840686","2849.13109183",""
"sujeto_85db03a2","1","4","20","116","2849.2805469","inverse","4","1","4","¿En qué año comenzó
la segunda guerra mundial?","1939","1976","left","0","0","1","competitive","right","0.768832921982","2850.04945397","4.23116707802","2854.43284893","2.31451797485","2856.74742794","3.68548202515","2860.4677968","2862.26762891","2862.35415983","2865.35570598","0","2865.37101293","2869.35817099",""
"sujeto_85db03a2","1","4","21","117","2869.48888683","direct","2","1","4","¿Cuántos biomas hay en Uruguay?","5","4","","0","0","1","competitive","right","0.754554033279","2870.24351883","4.24544596672","2874.66290593","2.93846797943","2877.60141897","3.06153202057","2880.71400881","2882.51135802","2882.59914804","2885.6021409","0","2885.616575","2891.86599684",""
"sujeto_85db03a2","1","4","22","118","2892.01861382","inverse","2","1","3","¿Cuándo murió Pablo Escobar?","1993","1997","","1","1","1","competitive","right","0.83980512619","2892.85848784","4.16019487381","2897.19179392","2.95263385773","2900.14447498","3.04736614227","2903.24154997","2905.02369881","2905.09287882","2908.09584785","1","2908.11094403","2913.81170297",""
"sujeto_85db03a2","1","4","23","119","2913.96207595","direct","1","1","4","¿Qué serie ha ganado mas premios?","Friends","Murphy Brown","","1","1","0","competitive","left","1.00037121773","2914.96251583","3.99962878227","2919.12012792","3.47023200989","2922.59042883","2.52976799011","2925.17066693","2926.52308583","2926.60577583","2929.60875583","1","2929.62273097","2935.18367791",""
"sujeto_85db03a2","1","4","24","120","2935.34034896","inverse","4","1","2","¿Cuántas fichas tiene el dominó?","26","28","","1","1","1","competitive","left","1.0567419529","2936.39716983","3.9432580471","2940.49638581","3.83901405334","2944.33544493","2.16098594666","2946.54883695","2947.60416389","2947.68299484","2950.68368292","1","2950.69996381","2955.94307303",""
"sujeto_85db03a2","1","4","25","121","2956.08516383","direct","2","1","4","¿Cuántos son los dientes de leche?","20","25","","0","0","1","","","","","","","","","","","","","","","2961.10797286","2963.25363803",""
"sujeto_85db03a2","1","4","26","122","2963.37491202","inverse","3","1","3","¿Cuántos gramos son una onza?","22","28","","0","0","1","competitive","left","1.43952894211","2964.81448388","3.56047105789","2968.54242396","3.87102603912","2972.41351295","2.12897396088","2974.59523892","2976.59012198","2976.66315293","2979.66365099","0","2979.680794","2985.967659",""
"sujeto_85db03a2","1","4","27","123","2986.09839797","direct","3","1","1","¿Cuándo salió el primer album
 de los Beatles?","1963","1962","","1","1","1","","","","","","","","","","","","","","","2991.10689592","2994.87892389",""
"sujeto_85db03a2","1","4","28","124","2995.02277899","inverse","3","1","3","¿Quién fundó la empresa apple?","Carlos Slim","Steve Jobs","","1","1","1","competitive","","0.825688123703","2995.84853292","4.1743118763","3000.17833996","6","3006.1784718","0","3006.19381285","3007.3084929","3007.3805759","3010.38357782","0","3010.39698601","3016.69485283",""
"sujeto_85db03a2","1","4","29","125","3016.83282399","direct","4","1","2","¿Cuántos municipios hay
 en Montevideo?","8","7","","1","1","1","competitive","left","1.0246629715","3017.85756183","3.9753370285","3021.98643184","1.68600201607","3023.67247796","4.31399798393","3028.03776288","3029.95253682","3030.0239408","3033.02691293","1","3033.04108381","3035.12225103",""
"sujeto_85db03a2","1","4","30","126","3035.2596128","inverse","1","1","1","¿Cuántos kilómetros hay
 de Montevideo a Artigas?","632","599","","0","0","0","competitive","left","0.928854942322","3036.18852282","4.07114505768","3040.41583586","4.92661595345","3045.34249282","1.07338404655","3046.45100188","3047.93412089","3048.01802588","3051.02100897","0","3051.03519893","3057.08729196",""
"sujeto_85db03a2","1","4","31","127","3057.22042084","direct","2","1","2","¿En qué año nació 
Leonardo Da Vinci?","1452","1511","","1","1","0","competitive","right","0.857028961182","3058.07749581","4.14297103882","3062.3770299","2.77745985985","3065.1545589","3.22254014015","3068.41020894","3070.26379895","3070.34578085","3073.34875894","1","3073.36371803","3076.50769496",""
"sujeto_85db03a2","1","4","32","128","3076.6482029","inverse","3","1","1","¿A qué continente
 pertenece el país Gabón?","Africa","Oceanía","","0","0","1","competitive","right","0.636320829391","3077.28460383","4.36367917061","3081.81719398","3.80829119682","3085.62552691","2.19170880318","3087.85323191","3089.66490483","3089.73829103","3092.74128199","0","3092.75525188","3097.99316788",""
