"code","nro_aplicante","nro_bloque","nro_trial_bloque","nro_trial_global","show_game_type","choice_order","rival","pay_individual","pay_competitive","question","answer_left_text","answer_right_text","correct_answer","outcome_individual","outcome_competitive","outcome_rival","game_type","answer","social_time","rt_game_type","feedback_delay","show_question","answer_time","rt_answer_global","feedback_delay_2","show_jitter","jitter_time","show_outcome","outcome_time","outcome_participant_real","show_final_jitter","second_jitter_time","inicio_descanso"
"sujeto_acaff5ce","1","1","1","1","49.4451479912","direct","3","1","4","¿Cuántos centímetros corresponden
al talle 36 del calzado?","23","24","","0","0","1","competitive","right","2.00264501572","51.447838068","2.99735498428","54.6211941242","4.34271597862","58.9639780521","1.65728402138","60.6524860859","61.6807849407","61.7530510426","64.7559869289","0","64.7712130547","66.9328188896",""
"sujeto_acaff5ce","1","1","2","2","67.0892250538","inverse","3","1","2","¿Cuántas metros mide la Intendencia
Municipal de Montevideo? ","84","78","","0","0","1","competitive","left","1.28883004189","68.3781189919","3.71116995811","72.2466568947","5.20434093475","77.451059103","0.795659065247","78.2978870869","80.1759080887","80.2483289242","83.251306057","0","83.2661800385","85.3589439392",""
"sujeto_acaff5ce","1","1","3","3","85.5009191036","direct","1","1","3","¿Cuántas La Pasiva
 hay en uruguay?","15","11","","1","1","1","competitive","right","1.45821809769","86.959207058","3.54178190231","90.656003952","3.86916089058","94.525206089","2.13083910942","96.7066988945","98.3183751106","98.391160965","101.394129992","1","101.40844202","105.686803102",""
"sujeto_acaff5ce","1","1","4","4","105.826711893","inverse","3","1","3","¿De que color es la camiseta de uruguay?","blanca","celeste","right","1","1","1","competitive","left","0.993632078171","106.820420027","4.00636792183","110.982172966","4.27321600914","115.255449057","1.72678399086","117.033332109","118.238075972","118.316637039","121.31962204","0","121.33425808","124.788183928",""
"sujeto_acaff5ce","1","1","5","5","124.93632412","direct","2","1","1","¿Cuánto metros mide
la torre Eiffel?","333","324","","1","1","1","competitive","left","1.22522711754","126.161617041","3.77477288246","130.093831062","4.65274000168","134.746630907","1.34725999832","136.144859076","137.666171074","137.745505095","140.748465061","1","140.763114929","147.799809933",""
"sujeto_acaff5ce","1","1","6","6","147.947732925","inverse","3","1","4","¿Cuantas ciudades existen
 en todo el uruguay?","63","72","","0","0","1","competitive","right","1.53696012497","149.484781981","3.46303987503","153.104499102","4.20125699043","157.305818081","1.79874300957","159.153299093","160.208096027","160.287349939","163.290333986","0","163.304830074","170.931421995",""
"sujeto_acaff5ce","1","1","7","7","171.072379112","direct","1","1","1","¿Cuantos estados tiene África?","52","54","","1","1","0","competitive","left","0.892590045929","171.965037107","4.10740995407","176.23447299","3.83454585075","180.069077969","2.16545414925","182.285382986","184.149384975","184.236335993","187.239305973","1","187.253582954","193.014615059",""
"sujeto_acaff5ce","1","1","8","8","193.155141115","inverse","4","1","4","¿En qué año nació
 Stephen Hawking?","1952","1942","","0","0","1","competitive","right","1.80203199387","194.957237959","3.19796800613","198.328882933","4.51135087013","202.84027791","1.48864912987","204.364532948","205.80884409","205.881798029","208.884778023","0","208.89902401","214.992806911",""
"sujeto_acaff5ce","1","1","9","9","215.135133028","direct","2","1","3","¿Cuánto años tenía Artigas
 cuando se fue a Paraguay?","56","57","","1","1","1","competitive","left","0.856231927872","215.991409063","4.14376807213","220.306572914","5.58994889259","225.896584988","0.410051107407","226.358761072","227.908282995","227.992930889","230.995917082","1","231.010447979","237.057796001",""
"sujeto_acaff5ce","1","1","10","10","237.211105108","inverse","1","1","2","¿Cuantos milímetros 
mide una hoja A2?","420x592","420x594","","0","0","1","competitive","right","1.15054702759","238.361717939","3.84945297241","242.401259899","5.1523270607","247.553627014","0.847672939301","248.453445911","250.021850109","250.103977919","253.106959105","0","253.121731043","260.195382118",""
"sujeto_acaff5ce","1","1","11","11","260.339473009","direct","3","1","3","¿Cuál es la menor temperatura 
registrada en Uruguay?","-5.4","-7.4","","0","0","1","competitive","left","1.11535000801","261.454871893","3.88464999199","265.514034033","4.24681186676","269.760905981","1.75318813324","271.565370083","273.247419119","273.332998037","276.335968971","0","276.350650072","280.08393693",""
"sujeto_acaff5ce","1","1","12","12","280.234544992","inverse","2","1","2","¿Cuantos años hace que 
se fundó facebook?","18","17","","0","0","0","competitive","right","0.961470127106","281.196079969","4.03852987289","285.388207912","4.59883093834","289.987097979","1.40116906166","291.425170898","292.797884941","292.876143932","295.879112959","0","295.893386126","298.666903973",""
"sujeto_acaff5ce","1","1","13","13","298.827820063","direct","1","1","4","¿Cuál animal es más
 pesado en promedio?","Rinoceronte","Hipopotamo","","0","0","0","competitive","left","0.999360084534","299.827241898","4.00063991547","304.001115084","4.41308498383","308.414267063","1.58691501617","310.085714102","311.164882898","311.236311913","314.239285946","0","314.253994942","318.095005035",""
"sujeto_acaff5ce","1","1","14","14","318.238457918","inverse","1","1","2","¿Qué personaje de dragon ball 
murió más veces?","Chaoz","Krillin","","1","1","0","competitive","right","0.737925052643","318.976428986","4.26207494736","323.411255121","3.81706809998","327.228388071","2.18293190002","329.462131977","330.919958115","330.996495008","333.999486923","1","334.013689041","341.786624908",""
"sujeto_acaff5ce","1","1","15","15","341.931659937","direct","3","1","2","La universidad de oxford. 
existe desde:","1096","1249","","1","1","0","competitive","right","0.947952985764","342.879659891","4.05204701424","347.089888096","4.70266604424","351.79260993","1.29733395576","353.141278982","354.190104008","354.275901079","357.27888608","1","357.293092966","363.983974934",""
"sujeto_acaff5ce","1","1","16","16","364.127702951","inverse","3","1","1","¿Qué escritor latino ganó antes
 el premio nobel?"," García Marquez","Neruda","","0","0","1","competitive","left","0.783089876175","364.910835981","4.21691012383","369.282068014","5.56478619576","374.846911907","0.435213804245","375.335505009","377.0755229","377.152672052","380.155680895","0","380.170366049","383.630878925",""
"sujeto_acaff5ce","1","1","17","17","383.78858304","direct","4","1","3","¿Cuántos dientes tiene un
 tiburón blanco?","6000","3000","","0","0","1","competitive","right","1.03935813904","384.82800293","3.96064186096","388.962054968","5.50793886185","394.47003293","0.492061138153","394.997164011","396.036137104","396.114515066","399.117497921","0","399.131136894","403.940819979",""
"sujeto_acaff5ce","1","1","18","18","404.082689047","inverse","4","1","1","¿Cuánto mide el paralelo Ecuador?","40.000km","70.000km","","0","0","1","competitive","right","0.741412162781","404.824165106","4.25858783722","409.239496946","5.16262793541","414.40216589","0.83737206459","415.274230003","417.230351925","417.308689117","420.31168294","0","420.326077938","423.928638935",""
"sujeto_acaff5ce","1","1","19","19","424.076980114","direct","4","1","2","¿Cuál fue el primer libro 
de Stephen King?","Carrie","The Stand","","1","1","1","competitive","left","2.41139292717","426.488435984","2.58860707283","429.250723124","4.28764295578","433.538408995","1.71235704422","435.300564051","437.044670105","437.117891073","440.120871067","1","440.135523081","444.609852076",""
"sujeto_acaff5ce","1","1","20","20","444.770827055","inverse","2","1","3","¿Qué civilización practicaba
 la momificación?","Grecia","Egipto","right","0","0","1","competitive","","1.23078417778","446.00168705","3.76921582222","449.92799902","6","455.928143024","0","455.942388058","457.881701946","457.960961103","460.963952065","0","460.978614092","465.207431078",""
"sujeto_acaff5ce","1","1","21","21","465.347831964","direct","4","1","4","¿Cuántos millones de visitas
 recibe google por minuto?","3.0","4.5","","0","0","1","competitive","left","0.97897195816","466.326870918","4.02102804184","470.504506111","3.7782099247","474.282788038","2.2217900753","476.538958073","478.053818941","478.140368938","481.143364906","0","481.157885075","488.280565023",""
"sujeto_acaff5ce","1","1","22","22","488.408303022","inverse","1","1","3","La máquina de fax. se inventó en:","1843","1960","","0","0","1","competitive","","2.39774394035","490.806127071","2.60225605965","493.583098888","6","499.583234072","0","499.602142096","500.843863964","500.919636011","503.922615051","0","503.934777975","507.171071053",""
"sujeto_acaff5ce","1","1","23","23","507.337152004","direct","2","1","4","En la verdadera historia de los
 300 espartanos. habían:","300 soldados","4300 soldados","","1","1","1","competitive","right","0.916949033737","508.254143","4.08305096626","512.490212917","3.33949589729","515.829768896","2.66050410271","518.542319059","519.803550959","519.877029896","522.880003929","1","522.894388914","526.696095943",""
"sujeto_acaff5ce","1","1","24","24","526.845429897","inverse","1","1","4","¿Cuántos milímetros crece
 el pelo por día?","0.4","0.04","","0","0","0","competitive","right","0.689718008041","527.53519392","4.31028199196","532.019197941","3.86760306358","535.88686204","2.13239693642","538.069453001","539.830183983","539.904096127","542.907145977","0","542.921766996","549.656867981",""
"sujeto_acaff5ce","1","1","25","25","549.805942059","direct","4","1","1","¿Cuánto mide la baldosa gris 
clásica de Montevideo?","22x22 cm.","20x20 cm.","","1","1","1","competitive","left","1.09728503227","550.903292894","3.90271496773","554.979677916","4.39601993561","559.375735044","1.60398006439","561.031286001","563.026487112","563.114377022","566.117302895","1","566.133026123","571.675831079",""
"sujeto_acaff5ce","1","1","26","26","571.834060907","inverse","2","1","2","¿Cuántas películas de rápidos
 y furiosos hay?","10","11","","1","1","0","competitive","right","1.02913689613","572.863240004","3.97086310387","576.990494013","4.60333681107","581.59387207","1.39666318893","583.041106939","584.399130106","584.475367069","587.478380919","1","587.492667913","589.527348995",""
"sujeto_acaff5ce","1","1","27","27","589.677470922","direct","3","1","1","¿Cuántos masters 1000
 ganó Del Potro?","1","2","","1","1","1","competitive","left","0.944056034088","590.621593952","4.05594396591","594.843418121","2.73673892021","597.580197096","3.26326107979","600.895987988","602.650617123","602.730487108","605.733470917","1","605.747997046","613.14437604",""
"sujeto_acaff5ce","1","1","28","28","613.283191919","inverse","2","1","4","¿Cuántos meses dura el 
embarazo de una leona?","3 meses","4 meses","","0","0","1","competitive","left","0.740401983261","614.023639917","4.25959801674","618.459716082","4.06548213959","622.525262117","1.93451786041","624.510905027","625.621964931","625.694689989","628.697659969","0","628.712316036","635.434781075",""
"sujeto_acaff5ce","1","1","29","29","635.579982996","direct","1","1","1","¿En qué año fue creado
 el sandwich?","1762","1653","","1","1","0","competitive","left","0.883825063705","636.463857889","4.11617493629","640.753614902","3.41485309601","644.16853404","2.58514690399","646.804883957","648.403441906","648.489171982","651.492127895","1","651.506611109","654.977215052",""
"sujeto_acaff5ce","1","1","30","30","655.124987125","inverse","4","1","2","El nombre de la moneda de Vietnam es:","Dinar","Dong","","0","0","1","competitive","right","1.01615095139","656.141192913","3.98384904861","660.280500889","3.62533402443","663.905874014","2.37466597557","666.331259012","667.763262033","667.848628044","670.851612091","0","670.865821123","677.034231901",""
"sujeto_acaff5ce","1","1","31","31","677.184205055","direct","2","1","1","¿cuantos aleteos puede dar 
un colibrí por segundo?","120","50","","0","0","0","competitive","right","1.16318011284","678.347451925","3.83681988716","682.354721069","4.82024097443","687.17502594","1.17975902557","688.407259941","690.139682055","690.224630117","693.227628946","0","693.241657972","697.453931093",""
"sujeto_acaff5ce","1","1","32","32","697.592514992","inverse","4","1","3","¿Qué altura promedio tienen
 los hombres uruguayos?","1.73 m","1.72 m","","1","1","1","competitive","left","0.855199813843","698.44778204","4.14480018616","702.783912897","4.40543198586","707.189383984","1.59456801414","708.835163116","710.09759593","710.168618917","713.171591997","1","713.186260939","717.660340071",""
"sujeto_acaff5ce","1","2","1","33","854.739845991","direct","1","1","1","¿En qué año nació 
el actor Bradd Pitt?","1967","1963","","1","1","1","competitive","right","1.12764310837","855.867533922","3.87235689163","859.890907049","3.91945409775","863.810399055","2.08054590225","865.943597078","867.03945899","867.110464096","870.113430977","1","870.127933979","876.055526018","717.675664902"
"sujeto_acaff5ce","1","2","2","34","876.196729898","inverse","2","1","1","¿Cual es el segundo 
monte más alto?","Kanchenjunga","K2","","1","1","1","competitive","right","1.37733912468","877.574172974","3.62266087532","881.354481936","4.57434892654","885.928870916","1.42565107346","887.387919903","888.840337038","888.922584057","891.925571918","1","891.939378977","895.369296074",""
"sujeto_acaff5ce","1","2","3","35","895.507648945","direct","3","1","1","¿Cuándo finalizó la construcción
 del Palacio Legislativo?","1925","1917","","0","0","1","competitive","left","1.01402401924","896.521759033","3.98597598076","900.680315971","4.38614392281","905.066502094","1.61385607719","906.731993914","908.373662949","908.448925972","911.451922894","0","911.466413021","917.163964033",""
"sujeto_acaff5ce","1","2","4","36","917.30154109","inverse","3","1","3","¿Cuántos integrantes tenía
 en su inicio  el cuarteto de nos?","3","4","","1","1","1","competitive","right","1.5746781826","918.876290083","3.4253218174","922.458604097","3.7224521637","926.181117058","2.2775478363","928.509068012","929.642168045","929.72871089","932.731729984","1","932.743397951","938.393211126",""
"sujeto_acaff5ce","1","2","5","37","938.52708292","direct","2","1","3","¿Qué valor tiene el número pi?","3.14","4.18","left","0","0","1","competitive","left","1.04869699478","939.575850964","3.95130300522","943.702991009","3.26871395111","946.971751928","2.73128604889","949.752285957","951.206470966","951.287293911","954.290302992","1","954.304512024","961.225459099",""
"sujeto_acaff5ce","1","2","6","38","961.372404099","inverse","2","1","2","¿Cuál es la esperanza de vida
 en Uruguay?","75","77","","1","1","0","competitive","left","1.90906000137","963.281537056","3.09093999863","966.563491106","3.06369996071","969.627249002","2.93630003929","972.597080946","974.25090909","974.332618952","977.335609913","1","977.350347042","983.813369036",""
"sujeto_acaff5ce","1","2","7","39","983.967396975","direct","1","1","2","¿Cuantos pisos tiene la torre 
de las comunicaciones?","26","32","","1","1","0","competitive","right","1.05759596825","985.02503705","3.94240403175","989.119405985","4.87349295616","993.992968082","1.12650704384","995.155822992","996.984612942","997.056240082","1000.05921912","1","1000.07281089","1002.21898794",""
"sujeto_acaff5ce","1","2","8","40","1002.35790992","inverse","2","1","4","¿En qué país sudamericano 
no hay McDonalds?","Bolivia","Venezuela","","0","0","1","competitive","left","0.990900993347","1003.34888792","4.00909900665","1007.51703691","4.45254802704","1011.96962905","1.54745197296","1013.56783295","1014.87720394","1014.95223093","1017.95523095","0","1017.96948099","1024.32920003",""
"sujeto_acaff5ce","1","2","9","41","1024.47028494","direct","3","1","1","¿En qué año empieza
 la Edad Media?","476","512","","1","1","1","competitive","right","1.11715888977","1025.58748889","3.88284111023","1029.64308596","3.70720291138","1033.3503499","2.29279708862","1035.69429398","1037.09805107","1037.17868805","1040.18168402","1","1040.19632196","1043.18490005",""
"sujeto_acaff5ce","1","2","10","42","1043.33069992","inverse","3","1","4","¿Hace cuántos años surgió
 el ser humano?","200mil","300mil","","0","0","0","competitive","right","1.36743187904","1044.69819593","3.63256812096","1048.50293112","4.33308005333","1052.83607101","1.66691994667","1054.5509479","1056.4370079","1056.51878095","1059.52176499","0","1059.53690004","1062.84738302",""
"sujeto_acaff5ce","1","2","11","43","1062.988482","direct","3","1","4","¿Cuántas cuadras tiene
 actualmente 18 de julio? ","36","33","","0","0","1","competitive","left","1.61830592155","1064.60685492","3.38169407845","1068.164047","4.02062892914","1072.18473196","1.97937107086","1074.21497512","1075.9172349","1075.99918795","1079.002177","0","1079.0169189","1083.74321389",""
"sujeto_acaff5ce","1","2","12","44","1083.88503599","inverse","1","1","4","¿Qué juego de equipo se 
considera mas rápido?","Lacrosse","Badminton","","0","0","0","competitive","right","0.967540025711","1084.85264802","4.03245997429","1089.0581181","5.16830706596","1094.22648597","0.831692934036","1095.1088841","1096.352","1096.42607903","1099.4290731","0","1099.44335103","1107.43490505",""
"sujeto_acaff5ce","1","2","13","45","1107.56221199","direct","1","1","3","¿Qué promedio de edad 
vive una jirafa? ","25","20","","0","0","1","competitive","left","1.15912294388","1108.72138","3.84087705612","1112.71870494","3.57950592041","1116.29827189","2.42049407959","1118.75342202","1120.51495194","1120.58822513","1123.59116292","0","1123.60545206","1129.56116509",""
"sujeto_acaff5ce","1","2","14","46","1129.70783091","inverse","1","1","2","¿Cuántos grandes lagos hay?","7","5","","0","0","1","competitive","right","0.961225986481","1130.66912198","4.03877401352","1134.85927296","3.34861397743","1138.20792794","2.65138602257","1140.89465904","1142.18677306","1142.26338005","1145.26637197","0","1145.28001595","1153.10139799",""
"sujeto_acaff5ce","1","2","15","47","1153.248384","direct","3","1","2","¿Cuántos discos de estudio
 grabó Johhny Cash? ","54","43","","1","1","0","competitive","left","1.21355295181","1154.46201706","3.78644704819","1158.4090271","5.19561100006","1163.60470009","0.804388999939","1164.44370389","1165.72237611","1165.81127191","1168.81387305","1","1168.82846904","1175.47937107",""
"sujeto_acaff5ce","1","2","16","48","1175.61317492","inverse","4","1","1","¿Cuántos barrios tiene
 Montevideo? ","71","62","","0","0","1","competitive","left","1.01138997078","1176.62460995","3.98861002922","1180.77067089","3.55077409744","1184.32150698","2.44922590256","1186.82069802","1187.82777095","1187.9056859","1190.9086709","0","1190.9233489","1196.38533711",""
"sujeto_acaff5ce","1","2","17","49","1196.52464199","direct","3","1","3","¿Qué edad tiene Homero Simpson?","36","42","","0","0","1","competitive","right","0.900271892548","1197.4249649","4.09972810745","1201.69797301","4.26429486275","1205.96231008","1.73570513725","1207.73201108","1209.10798693","1209.18267703","1212.18565702","0","1212.19986892","1216.588624",""
"sujeto_acaff5ce","1","2","18","50","1216.73515105","inverse","4","1","2","¿Cuántos países con monarquía 
hay en europa actualmente? ","6","10","","1","1","1","competitive","right","0.856948852539","1217.59215212","4.14305114746","1221.89028907","4.84479808807","1226.73515201","1.15520191193","1227.92635894","1229.36466193","1229.44345212","1232.44642901","1","1232.46085405","1238.61768699",""
"sujeto_acaff5ce","1","2","19","51","1238.76240993","direct","2","1","3","¿Cuántos capítulos de
 Friends existen? ","236","228","","1","1","1","competitive","left","0.694613933563","1239.45709395","4.30538606644","1243.91940308","4.32245016098","1248.24189401","1.67754983902","1249.9704411","1251.27601695","1251.35437393","1254.35735607","1","1254.37200212","1256.74760604",""
"sujeto_acaff5ce","1","2","20","52","1256.89025712","inverse","1","1","3","¿Cuántas óperas compuso Mozart? ","27","22","","1","1","1","competitive","right","1.98254299164","1258.87286592","3.01745700836","1262.04411411","3.75155305862","1265.79573011","2.24844694138","1268.09633398","1269.38845301","1269.4645679","1272.46750212","1","1272.48098612","1279.7924161",""
"sujeto_acaff5ce","1","2","21","53","1279.93259907","direct","4","1","3","¿Cuántos mundiales de fútbol 
femenino ha realizado FIFA? ","9","7","","1","1","1","competitive","left","0.992029190063","1280.92467308","4.00797080994","1285.10637093","3.46716094017","1288.57359099","2.53283905983","1291.15766811","1292.40132594","1292.47494292","1295.47792196","1","1295.49225712","1301.59472489",""
"sujeto_acaff5ce","1","2","22","54","1301.74367905","inverse","3","1","2","¿Cuál es la temperatura 
media anual en Montevideo? ","17.5","16.3","","0","0","1","competitive","right","0.908724069595","1302.65245104","4.0912759304","1306.89877295","3.65058898926","1310.54940295","2.34941101074","1312.95200896","1314.89061904","1314.96996903","1317.97294903","0","1317.98721194","1324.55675912",""
"sujeto_acaff5ce","1","2","23","55","1324.70557594","direct","2","1","2","¿En qué año se estrenó el
 videojuego The Sims? ","2000","2002","","0","0","0","competitive","right","1.00266885757","1325.70830894","3.99733114243","1329.87796497","4.73009896278","1334.60810399","1.26990103722","1335.92969394","1337.79171991","1337.88044095","1340.88342309","0","1340.8980999","1348.29179597",""
"sujeto_acaff5ce","1","2","24","56","1348.4326241","inverse","2","1","1","¿Cuál es la canción con 
mas covers? ","Yesterday","Stand by me","","0","0","0","competitive","right","1.0785651207","1349.51130009","3.9214348793","1353.59177494","4.26821899414","1357.86005807","1.73178100586","1359.64219904","1361.04074502","1361.12690091","1364.1298821","0","1364.14437199","1368.31520891",""
"sujeto_acaff5ce","1","2","25","57","1368.46223211","direct","1","1","4","¿Cuánto duró la guerra
 de los 100 años?","116","123","","0","0","0","competitive","right","0.91686296463","1369.3791759","4.08313703537","1373.63482809","3.82003307343","1377.45492101","2.17996692657","1379.68644404","1381.16729307","1381.2535181","1384.2564981","0","1384.27091193","1386.59067893",""
"sujeto_acaff5ce","1","2","26","58","1386.73946095","inverse","4","1","4","¿Qué color tiene la  bandera de Brasil?","Amarillo","Naranja","left","0","0","1","competitive","left","0.812409877777","1387.55193591","4.18759012222","1391.90838599","3.34948205948","1395.25792789","2.65051794052","1397.96025109","1399.52672291","1399.61207509","1402.61503792","1","1402.62924695","1405.66188097",""
"sujeto_acaff5ce","1","2","27","59","1405.81363392","direct","4","1","3","¿Qué carabela de 
Colon no volvió del viaje?","Santa María","La pinta","","0","0","1","competitive","right","1.5370850563","1407.35079694","3.4629149437","1410.98725295","3.62440800667","1414.6116991","2.37559199333","1417.03436208","1418.52540398","1418.60272098","1421.60572004","0","1421.62035704","1423.71982098",""
"sujeto_acaff5ce","1","2","28","60","1423.87207389","inverse","4","1","4","¿Cuántos huesos tiene
 un adulto humano?","217","206","","0","0","1","competitive","left","0.86159992218","1424.73371696","4.13840007782","1429.04688907","3.55570006371","1432.602633","2.44429993629","1435.09741807","1436.36844206","1436.44836807","1439.45137095","0","1439.46567702","1447.30336308",""
"sujeto_acaff5ce","1","2","29","61","1447.45059991","direct","1","1","1","¿Qué país africano fue 
fundado por esclavos?","Liberia","Chad","","0","0","0","competitive","left","0.801002979279","1448.25167704","4.19899702072","1452.62551308","3.27003407478","1455.89559102","2.72996592522","1458.67610502","1460.66778111","1460.74329996","1463.74626589","0","1463.76156807","1471.75240803",""
"sujeto_acaff5ce","1","2","30","62","1471.89614296","inverse","4","1","2","¿A cuánto asciende la cima
 del monte Everest?","7.990 mts","8.848 mts","","0","0","1","competitive","right","1.01132893562","1472.90753794","3.98867106438","1477.05096102","3.25940990448","1480.31043911","2.74059009552","1483.08622909","1484.27109003","1484.3546629","1487.35759592","0","1487.3724699","1494.5558989",""
"sujeto_acaff5ce","1","2","31","63","1494.7068541","direct","4","1","1","¿Cuál es el país mas chico?","Sealand","Luxemburgo","","1","1","1","competitive","right","1.00051593781","1495.70743704","3.99948406219","1499.88136411","4.70989513397","1504.59129906","1.29010486603","1505.91576004","1507.77927494","1507.86669397","1510.86968899","1","1510.88417411","1514.00646091",""
"sujeto_acaff5ce","1","2","32","64","1514.15215993","inverse","2","1","4","¿Cuántas pirámides hay en Egipto?","10000","11000","","1","1","1","competitive","left","1.46213197708","1515.6143589","3.53786802292","1519.32621002","3.40205812454","1522.72833896","2.59794187546","1525.37714195","1526.40988803","1526.49408007","1529.49703813","1","1529.5116241","1534.62070012",""
"sujeto_acaff5ce","1","3","1","65","1639.59724212","direct","2","1","2","¿Cuál es el quinto país con 
mas extensión?","Canadá","Brasil","","1","1","0","competitive","right","0.908113002777","1640.50542212","4.09188699722","1644.75450897","3.867374897","1648.62192702","2.132625103","1650.806319","1652.13965011","1652.22475696","1655.22773004","1","1655.24226594","1662.96867204","1534.63550711"
"sujeto_acaff5ce","1","3","2","66","1663.10980392","inverse","1","1","2","¿Qué rasgo facial no tiene
 la Mona Lisa?","Cejas","Pómulos","","0","0","1","competitive","left","0.784132957458","1663.89400506","4.21586704254","1668.26855493","3.59934186935","1671.86795712","2.40065813065","1674.31941199","1676.0697999","1676.15454197","1679.15752602","0","1679.17213297","1685.44347405",""
"sujeto_acaff5ce","1","3","3","67","1685.589432","direct","4","1","3","¿Cuál es el país con 
mayor población?","Esados Unidos","China","right","0","0","1","individual","right","0.881541967392","1686.47106004","4.11845803261","1690.76359296","2.98825001717","1693.75188804","3.01174998283","1696.81351209","1698.45952797","1698.49837112","1701.50134802","1","1701.51598001","1704.88331604",""
"sujeto_acaff5ce","1","3","4","68","1705.03505707","inverse","1","1","1","La palabra dinosaurio significa","Lagarto Terrible","Lagarto Dragón","","1","1","0","competitive","left","1.0042719841","1706.03937697","3.9957280159","1710.20675611","4.14409995079","1714.35091591","1.85590004921","1716.24092007","1717.41125798","1717.49217391","1720.4951601","1","1720.50944901","1723.3708961",""
"sujeto_acaff5ce","1","3","5","69","1723.51149702","direct","2","1","3","¿Qué es el membrillero?","Arbol","Arbusto","","0","0","0","competitive","left","2.40635895729","1725.91792393","2.59364104271","1728.68127608","4.0775001049","1732.75882411","1.9224998951","1734.71556592","1736.66965508","1736.75002599","1739.75302505","0","1739.76763296","1746.23163795",""
"sujeto_acaff5ce","1","3","6","70","1746.36786604","inverse","3","1","3","¿Alrededor de qué planeta orbita 
el satélite Europa?","Jupiter","Saturno","","1","1","1","competitive","right","2.19186615944","1748.55981112","2.80813384056","1751.54454994","4.53619503975","1756.08079505","1.46380496025","1757.59632397","1759.14113903","1759.2140739","1762.21704698","1","1762.23162889","1764.43680596",""
"sujeto_acaff5ce","1","3","7","71","1764.58278894","direct","3","1","1","¿Donde fue el mundial de 
fútbol de 1954?","Suiza","Suecia","","1","1","1","competitive","left","2.79090690613","1767.37375808","2.20909309387","1769.75343704","3.87431120872","1773.62781692","2.12568879128","1775.80593896","1777.05851698","1777.13937998","1780.14237189","1","1780.156775","1784.06851602",""
"sujeto_acaff5ce","1","3","8","72","1784.2105751","inverse","1","1","4","¿Cuál de los 7 enanitos
no tenía barba?","Bashful","Mudito","","1","1","0","competitive","right","1.0431189537","1785.25379491","3.9568810463","1789.3791039","4.64863300323","1794.02782798","1.35136699677","1795.43243504","1797.01255012","1797.0994091","1800.10240602","1","1800.11675","1805.04585099",""
"sujeto_acaff5ce","1","3","9","73","1805.20163894","direct","3","1","2","¿Cual red social es
mas utilizada mundialmente?","Instagram","Facebook","","1","1","0","competitive","left","2.17005991936","1807.37178802","2.82994008064","1810.37409711","4.68255209923","1815.05670905","1.31744790077","1816.42629695","1818.34366393","1818.42789602","1821.42889309","1","1821.44568896","1824.3801899",""
"sujeto_acaff5ce","1","3","10","74","1824.53050208","inverse","4","1","1","¿Cuándo se inició la copa
 América de fútbol?","1916","1923","","1","1","1","competitive","right","1.50117611885","1826.03175712","3.49882388115","1829.70179105","4.07287812233","1833.77471399","1.92712187767","1835.75300789","1837.65046692","1837.73637509","1840.73937201","1","1840.75514412","1843.41126609",""
"sujeto_acaff5ce","1","3","11","75","1843.55598903","direct","3","1","4","¿Cuántos presidentes de EEUU
han muerto asesinados?","3","4","","0","0","1","competitive","left","1.35868096352","1844.91473508","3.64131903648","1848.7117281","3.78590798378","1852.49767709","2.21409201622","1854.76195407","1856.24590611","1856.33030605","1859.33331203","0","1859.34763002","1862.99176693",""
"sujeto_acaff5ce","1","3","12","76","1863.1322639","inverse","2","1","4","¿Cuántas veces participó EEUU
 en la copa América?","4","5","","0","0","1","competitive","right","2.00739598274","1865.13970494","2.99260401726","1868.28778696","4.97684788704","1873.26469707","1.02315211296","1874.32123303","1875.76535797","1875.83763289","1878.83952999","0","1878.85532403","1884.97088695",""
"sujeto_acaff5ce","1","3","13","77","1885.12411809","direct","4","1","1","¿Cuál de estos países 
no formaba la URSS?","Azeribayán","Afganistán","","0","0","1","individual","right","1.76060700417","1886.88480401","3.23939299583","1890.29985595","3.28384494781","1893.58379698","2.71615505219","1896.35050297","1897.66353202","1897.70108891","1900.70406103","0","1900.71870399","1908.70085597",""
"sujeto_acaff5ce","1","3","14","78","1908.85306406","inverse","1","1","1","¿En qué año se inauguró
 el teatro Solís?","1867","1856","","0","0","0","individual","left","2.89065814018","1911.74381709","2.10934185982","1914.01126695","3.17632985115","1917.18765712","2.82367014885","1920.06298399","1921.11931109","1921.16436601","1924.16735601","0","1924.18080091","1930.82858801",""
"sujeto_acaff5ce","1","3","15","79","1930.98252392","direct","1","1","4","¿A qué velocidad vuela 
el avión más rápido?","3529","3874","","0","0","0","competitive","right","0.672194004059","1931.65477395","4.32780599594","1936.1561861","0.685516119003","1936.84175491","5.314483881","1942.20604897","1943.96080589","1944.04194999","1947.04495311","0","1947.0592649","1949.16954303",""
"sujeto_acaff5ce","1","3","16","80","1949.31026411","inverse","3","1","4","¿De qué año es la primer 
película cinematográfica?","1897","1888","","0","0","0","competitive","right","0.75843000412","1950.06875706","4.24156999588","1954.46412611","4.13658094406","1958.6007731","1.86341905594","1960.5155189","1961.6478231","1961.73280311","1964.73578811","0","1964.75044489","1970.16022706",""
"sujeto_acaff5ce","1","3","17","81","1970.28634405","direct","2","1","3","¿Cuántos países 
tiene nuestro planeta?","191","194","","1","1","1","competitive","left","1.32941913605","1971.61584711","3.67058086395","1975.44340611","3.90129709244","1979.34478211","2.09870290756","1981.49479508","1982.85088396","1982.92917204","1985.93212509","1","1985.94567704","1989.18397403",""
"sujeto_acaff5ce","1","3","18","82","1989.33157992","inverse","2","1","2","¿Cuántos habitantes
 tiene Buenos Aires?","2.9000.000","3650000","","0","0","0","competitive","left","3.15213990211","1992.48379612","1.84786009789","1994.51943803","4.36226892471","1998.88176608","1.63773107529","2000.55426192","2001.95080996","2002.02241707","2005.02539611","0","2005.03977704","2010.86917806",""
"sujeto_acaff5ce","1","3","19","83","2011.00714707","direct","2","1","1","¿Cuántos kilos forman una tonelada?","1000","1500","left","1","1","1","competitive","left","1.55153298378","2012.55875802","3.44846701622","2016.1812849","5.20946907997","2021.39079809","0.790530920029","2022.21616292","2024.10346293","2024.18390393","2027.18689704","1","2027.20024991","2033.15763807",""
"sujeto_acaff5ce","1","3","20","84","2033.30208302","inverse","4","1","4","¿Cuántos estados tiene la 
República del Perú? ","24","23","","0","0","1","competitive","right","0.953741073608","2034.25586605","4.04625892639","2038.474195","5.31254196167","2043.78678989","0.68745803833","2044.50963211","2045.53182507","2045.60964489","2048.6126039","0","2048.62730503","2053.57260609",""
"sujeto_acaff5ce","1","3","21","85","2053.72833991","direct","3","1","3","¿En qué año nació Cristóbal Colón? ","1451","1447","","0","0","1","competitive","left","1.18141007423","2054.90983105","3.81858992577","2058.88640594","5.12536096573","2064.01183605","0.874639034271","2064.92038512","2066.76629806","2066.83812904","2069.84110808","0","2069.85580301","2074.08379006",""
"sujeto_acaff5ce","1","3","22","86","2074.22230411","inverse","4","1","4","¿Cuánto mide la 
Montaña Aconcagua? ","6234","6962","","0","0","1","competitive","right","1.42946314812","2075.6518271","3.57053685188","2079.39715099","5.19657301903","2084.59381199","0.803426980972","2085.4484551","2086.73781204","2086.81543493","2089.81842494","0","2089.83275795","2097.01640296",""
"sujeto_acaff5ce","1","3","23","87","2097.16720891","direct","2","1","4","¿Cuánto mide el punto
 más profundo del océano? ","12508","11003","","0","0","1","competitive","left","3.03061103821","2100.19788504","1.96938896179","2102.339782","4.27804899216","2106.61789513","1.72195100784","2108.376513","2109.62787294","2109.71144295","2112.71443295","0","2112.72876406","2116.93503594",""
"sujeto_acaff5ce","1","3","24","88","2117.08017206","inverse","1","1","3","¿Cuántos álbumes ha publicado 
el cantante Jaime Roos? ","41","34","","0","0","1","competitive","right","1.65666413307","2118.736902","3.34333586693","2122.23501492","5.23277688026","2127.467834","0.767223119736","2128.28640699","2129.776263","2129.85324311","2132.85623002","0","2132.87168407","2139.06688809",""
"sujeto_acaff5ce","1","3","25","89","2139.20532298","direct","4","1","3","¿En qué año nació el 
ex-presidente Jorge Battle? ","1921","1927","","1","1","1","competitive","left","1.03957700729","2140.24495196","3.96042299271","2144.37904596","4.64984107018","2149.02895403","1.35015892982","2150.43027306","2152.16090298","2152.24811411","2155.25110006","1","2155.26577806","2158.75183105",""
"sujeto_acaff5ce","1","3","26","90","2158.90068102","inverse","1","1","3","¿Cuántas presidencias 
constitucionales  hubo en Uruguay? ","41","42","","0","0","1","competitive","right","1.05322980881","2159.9539609","3.94677019119","2164.07378912","4.74509191513","2168.81895208","1.25490808487","2170.12493896","2171.32869911","2171.40947604","2174.41246104","0","2174.42644191","2180.21008801",""
"sujeto_acaff5ce","1","3","27","91","2180.36142802","direct","1","1","2","¿Quién escribió mas sinfonías?","Mozart","Haydn","","1","1","0","individual","left","1.2825088501","2181.64398098","3.7174911499","2185.53215408","3.38076710701","2188.91298294","2.61923289299","2191.56796598","2192.78545403","2192.83646607","2195.83944702","1","2195.85278106","2199.60420299",""
"sujeto_acaff5ce","1","3","28","92","2199.75430894","inverse","4","1","2","¿En qué año nació Michael Jackson?","1958","1953","","1","1","1","competitive","right","0.981819868088","2200.73619509","4.01818013191","2204.92802906","3.60791802406","2208.53598809","2.39208197594","2210.97864389","2212.95582795","2213.02968812","2216.03264213","1","2216.048419","2221.910671",""
"sujeto_acaff5ce","1","3","29","93","2222.04882693","direct","3","1","2","¿En qué año entró en vigencia 
la ley antitabaco en Uruguay?","2005","2006","","1","1","1","competitive","left","1.19017100334","2223.23906112","3.80982899666","2227.20641589","4.94055008888","2232.14700294","1.05944991112","2233.25694299","2234.85172391","2234.92500305","2237.92797112","1","2237.94262695","2243.27663493",""
"sujeto_acaff5ce","1","3","30","94","2243.41041994","inverse","3","1","1","¿Cuándo se subió el 
primer video a youtube?","2004","2005","","0","0","1","competitive","","1.07460093498","2244.48506403","3.92539906502","2248.56676602","6","2254.56687999","0","2254.58447504","2255.89015603","2255.96901608","2258.97199011","0","2258.98636103","2266.74192691",""
"sujeto_acaff5ce","1","3","31","95","2266.88925099","direct","2","1","1","¿Cuántos habitantes tiene India?","1200 millones","1300 millones","","0","0","0","competitive","right","0.753779888153","2267.64310098","4.24622011185","2272.05983496","4.36924600601","2276.42912197","1.63075399399","2278.11248398","2280.08208013","2280.16381812","2283.16682601","0","2283.18117094","2289.22868705",""
"sujeto_acaff5ce","1","3","32","96","2289.36925912","inverse","4","1","2","¿A qué edad murió Bob Marley?","36","37","","0","0","1","competitive","right","1.44377803802","2290.81308198","3.55622196198","2294.5238421","3.5332300663","2298.05711102","2.4667699337","2300.57406092","2302.47192502","2302.55909801","2305.56207108","0","2305.57668805","2308.67915893",""
"sujeto_acaff5ce","1","4","1","97","2431.5824039","direct","2","1","1","¿Cuantos años dirigió la selección 
uruguaya Tabarez?","15 años","13 años","","0","0","0","competitive","right","1.01432394981","2432.5968039","3.98567605019","2436.74609089","3.7963180542","2440.54246998","2.2036819458","2442.79855204","2443.9897089","2444.06652594","2447.06951308","0","2447.08406401","2454.15611005","2308.69440508"
"sujeto_acaff5ce","1","4","2","98","2454.30151391","inverse","4","1","1","¿Cuantas teclas tiene un teclado 
de computadora generalmente? ","Entre 99 y 108","Entre 109 y 113","","1","1","1","competitive","left","1.29398488998","2455.59557796","3.70601511002","2459.47587609","5.11759305","2464.59350801","0.882406949997","2465.52800894","2466.53078794","2466.61158991","2469.61456704","1","2469.62937999","2472.00081205",""
"sujeto_acaff5ce","1","4","3","99","2472.14773393","direct","1","1","1","¿Cuál Departamento tiene
 mayor superficie?","Río Negro","Soriano","","0","0","0","competitive","left","0.922791957855","2473.07059193","4.07720804214","2477.3032639","4.57320809364","2481.87653208","1.42679190636","2483.35219502","2485.06564713","2485.13663197","2488.13961601","0","2488.15391612","2492.48001099",""
"sujeto_acaff5ce","1","4","4","100","2492.6097579","inverse","3","1","2","¿Cuál es el apellido de las 
hermanastras  de  cenicienta?","Tremaine","Truman","","0","0","1","competitive","right","0.902349948883","2493.51224208","4.09765005112","2497.77878904","4.28670811653","2502.06556511","1.71329188347","2503.83140993","2505.70095611","2505.78103495","2508.78402901","0","2508.79828906","2511.4942379",""
"sujeto_acaff5ce","1","4","5","101","2511.633708","direct","4","1","4","¿Cuál película ganó un
 Oscar a mejor película?","Alto Impacto","Cache","","0","0","1","competitive","left","1.63390088081","2513.267658","3.36609911919","2516.80628109","3.98234915733","2520.78866911","2.01765084267","2522.85630894","2523.97567391","2524.05820608","2527.06119609","0","2527.07486606","2529.33947492",""
"sujeto_acaff5ce","1","4","6","102","2529.49323606","inverse","1","1","3","¿A cuántos centímetros
equivale la medida pié?","25","30","","0","0","1","competitive","right","2.32037901878","2531.81367803","2.67962098122","2534.66455007","4.01206898689","2538.67666411","1.98793101311","2540.70027304","2541.7398591","2541.81781912","2544.82076812","0","2544.83511209","2550.23609591",""
"sujeto_acaff5ce","1","4","7","103","2550.36619902","direct","2","1","2","¿Qué departamento es mas grande?","Cerro Largo","Paysandú","","0","0","0","competitive","left","2.0674829483","2552.43372703","2.9325170517","2555.53849697","4.6481719017","2560.18670893","1.3518280983","2561.57736492","2563.17651105","2563.26164889","2566.26461411","0","2566.27897906","2570.38895702",""
"sujeto_acaff5ce","1","4","8","104","2570.53095794","inverse","2","1","3","¿Quién pintó la Mona Lisa?","Picasso","Da Vinci","right","0","0","1","competitive","left","1.43473005295","2571.96573305","3.56526994705","2575.68512297","3.95155787468","2579.63672209","2.04844212532","2581.73572993","2583.34160209","2583.41977906","2586.422791","0","2586.43800497","2588.6003511",""
"sujeto_acaff5ce","1","4","9","105","2588.75602794","direct","4","1","3","¿Cuántos litros hay en un galon?","3.54","3.78","","1","1","1","competitive","right","1.14274382591","2589.89883208","3.85725617409","2593.91297603","4.5658249855","2598.478863","1.4341750145","2599.96371889","2601.48156595","2601.56430793","2604.56729293","1","2604.5816319","2610.37399697",""
"sujeto_acaff5ce","1","4","10","106","2610.53309107","inverse","4","1","1","¿Cuántas teclas tiene
 un piano moderno?","80","88","","0","0","1","competitive","right","1.54174900055","2612.07488894","3.45825099945","2615.69019103","4.16166782379","2619.85191011","1.83833217621","2621.72247005","2622.73095512","2622.82351398","2625.82649803","0","2625.84140205","2632.63917398",""
"sujeto_acaff5ce","1","4","11","107","2632.77511597","direct","4","1","3","¿Cuántos países hay en África?","54","62","","0","0","1","competitive","right","1.75675797462","2634.5319171","3.24324202538","2637.93440795","3.90439486504","2641.83884406","2.09560513496","2643.98377395","2645.67433095","2645.75180697","2648.75479007","0","2648.7692709","2656.57404399",""
"sujeto_acaff5ce","1","4","12","108","2656.72108293","inverse","1","1","3","¿En qué siglo se crearon
 las primeras pistolas?","XV","XIII","","1","1","1","individual","right","0.904922962189","2657.62607598","4.09507703781","2661.89677501","3.06715798378","2664.963974","2.93284201622","2667.94675207","2669.89470601","2669.9485929","2672.95152903","1","2672.96477103","2676.19783092",""
"sujeto_acaff5ce","1","4","13","109","2676.34850597","direct","3","1","4","¿En qué año se estrenó 
la serie friends?","1994","1995","","0","0","1","individual","left","1.416492939","2677.76505113","3.583507061","2681.50729108","3.75174093246","2685.25907207","2.24825906754","2687.55821705","2689.43355608","2689.47634912","2692.47932911","0","2692.49401498","2697.50009012",""
"sujeto_acaff5ce","1","4","14","110","2697.64542699","inverse","3","1","4","¿En qué año nació Hitler?","1889","1887","","0","0","1","competitive","right","0.990653991699","2698.63615012","4.0093460083","2702.80191207","5.07715201378","2707.87910604","0.922847986221","2708.83719993","2709.95086694","2710.03719807","2713.04018903","0","2713.05443096","2718.08141994",""
"sujeto_acaff5ce","1","4","15","111","2718.22245193","direct","1","1","4","¿Cuánto pesa un elefante Africano?","6000 kilos","5400 kilos","","0","0","0","individual","right","1.32661795616","2719.54914093","3.67338204384","2723.37818503","2.45691180229","2725.83515811","3.54308819771","2729.42956209","2730.78547311","2730.83124709","2733.834198","0","2733.84680891","2740.55390596",""
"sujeto_acaff5ce","1","4","16","112","2740.69759107","inverse","1","1","2","¿Qué porcentaje de 
la población es zurda?","10%","7%","","1","1","0","individual","right","1.14456415176","2741.84222603","3.85543584824","2745.8747921","4.13337516785","2750.00822592","1.86662483215","2751.92565799","2753.16877294","2753.21003199","2756.21299195","1","2756.22663498","2762.20637512",""
"sujeto_acaff5ce","1","4","17","113","2762.3456459","direct","1","1","2","¿En qué año se estrenó
Volver al futuro?","1984","1985","","0","0","1","individual","left","3.52153205872","2765.86722112","1.47846794128","2767.50224304","3.86597800255","2771.3682611","2.13402199745","2773.5537889","2775.1156261","2775.15420103","2778.15712094","0","2778.17171693","2785.26312494",""
"sujeto_acaff5ce","1","4","18","114","2785.40713692","inverse","3","1","2","¿Cuántos jugadores hay en un 
equipo de baseball?","9","8","","1","1","0","competitive","right","1.00613999367","2786.41334605","3.99386000633","2790.56390905","2.59635400772","2793.1603229","3.40364599228","2796.59718394","2798.21145892","2798.28275394","2801.28573799","1","2801.3001349","2806.27737403",""
"sujeto_acaff5ce","1","4","19","115","2806.41790795","direct","2","1","1","¿Cuántos Oscar ganó
 la película titanic?","13","11","","1","1","1","individual","right","2.49547195435","2808.91344404","2.50452804565","2811.5725491","2.8427529335","2814.4153409","3.1572470665","2817.62588596","2818.92781591","2818.97811508","2821.981112","1","2821.99460912","2826.597224",""
"sujeto_acaff5ce","1","4","20","116","2826.72790003","inverse","4","1","4","¿En qué año comenzó
la segunda guerra mundial?","1939","1976","left","0","0","1","individual","left","1.66453194618","2828.39250207","3.33546805382","2831.88610101","3.76432585716","2835.65048695","2.23567414284","2837.93664312","2839.73651099","2839.78817391","2842.7911799","1","2842.80500293","2846.79218602",""
"sujeto_acaff5ce","1","4","21","117","2846.92339993","direct","2","1","4","¿Cuántos biomas hay en Uruguay?","5","4","","0","0","1","competitive","left","0.764098882675","2847.68756795","4.23590111732","2852.07909393","4.65027999878","2856.72943211","1.34972000122","2858.13068891","2859.92803311","2860.01447701","2863.01745391","0","2863.03205609","2869.28144598",""
"sujeto_acaff5ce","1","4","22","118","2869.4327879","inverse","2","1","3","¿Cuándo murió Pablo Escobar?","1993","1997","","1","1","1","competitive","left","1.38177394867","2870.81461","3.61822605133","2874.59096599","3.19552397728","2877.78653502","2.80447602272","2880.62480211","2882.40764403","2882.49278712","2885.49578309","1","2885.51005602","2891.21373296",""
"sujeto_acaff5ce","1","4","23","119","2891.36118293","direct","1","1","4","¿Qué serie ha ganado mas premios?","Friends","Murphy Brown","","1","1","0","competitive","right","3.7184009552","2895.07962799","1.2815990448","2896.51926398","4.37630200386","2900.89561009","1.62369799614","2902.570297","2903.92178607","2904.004807","2907.00777006","1","2907.02213693","2912.58379412",""
"sujeto_acaff5ce","1","4","24","120","2912.74232292","inverse","4","1","2","¿Cuántas fichas tiene el dominó?","26","28","","1","1","1","competitive","right","1.01137590408","2913.75380611","3.98862409592","2917.9119029","2.83179306984","2920.74379206","3.16820693016","2923.96194601","2925.01724005","2925.09758806","2928.10053802","1","2928.1141901","2933.35730505",""
"sujeto_acaff5ce","1","4","25","121","2933.498945","direct","2","1","4","¿Cuántos son los dientes de leche?","20","25","","0","0","1","individual","left","1.38277292252","2934.8818121","3.61722707748","2938.67405105","3.88561105728","2942.55970502","2.11438894272","2944.72503209","2946.43485689","2946.47571707","2949.47868991","0","2949.49335289","2951.63907194",""
"sujeto_acaff5ce","1","4","26","122","2951.77806711","inverse","3","1","3","¿Cuántos gramos son una onza?","22","28","","0","0","1","individual","right","0.635730981827","2952.413872","4.36426901817","2956.93272996","4.36104893684","2961.29384804","1.63895106316","2962.96843004","2964.96281195","2965.00252604","2968.00552511","0","2968.0198009","2974.31006002",""
"sujeto_acaff5ce","1","4","27","123","2974.4491539","direct","3","1","1","¿Cuándo salió el primer album
 de los Beatles?","1963","1962","","1","1","1","individual","right","1.03570389748","2975.48492789","3.96429610252","2979.62731004","3.3085641861","2982.93591499","2.6914358139","2985.67729497","2986.8408401","2986.87867689","2989.88165808","1","2989.89600492","2993.668046",""
"sujeto_acaff5ce","1","4","28","124","2993.81380796","inverse","3","1","3","¿Quién fundó la empresa apple?","Carlos Slim","Steve Jobs","","1","1","1","competitive","left","0.86323094368","2994.67711401","4.13676905632","2998.97186399","2.9509780407","3001.92290711","3.0490219593","3005.02224708","3006.136935","3006.20726609","3009.21025109","1","3009.22500205","3015.52283597",""
"sujeto_acaff5ce","1","4","29","125","3015.6754539","direct","4","1","2","¿Cuántos municipios hay
 en Montevideo?","8","7","","1","1","1","individual","right","1.2605381012","3016.93605709","3.7394618988","3020.85013795","3.76174092293","3024.61191893","2.23825907707","3026.88476706","3028.79949212","3028.85149312","3031.85446","1","3031.86922693","3033.95037603",""
"sujeto_acaff5ce","1","4","30","126","3034.10276389","inverse","1","1","1","¿Cuántos kilómetros hay
 de Montevideo a Artigas?","632","599","","0","0","0","competitive","right","0.818289995193","3034.92110705","4.18171000481","3039.25973606","3.85227298737","3043.11207604","2.14772701263","3045.31075191","3046.79387307","3046.87834406","3049.88132501","0","3049.89563489","3055.94778109",""
"sujeto_acaff5ce","1","4","31","127","3056.08019304","direct","2","1","2","¿En qué año nació 
Leonardo Da Vinci?","1452","1511","","1","1","0","competitive","left","1.24087905884","3057.32118297","3.75912094116","3061.24935603","5.01571893692","3066.26511812","0.98428106308","3067.302068","3069.15569305","3069.23622704","3072.23921204","1","3072.25394702","3075.4003551",""
"sujeto_acaff5ce","1","4","32","128","3075.53857112","inverse","3","1","1","¿A qué continente
 pertenece el país Gabón?","Africa","Oceanía","","0","0","1","competitive","left","4.70955991745","3080.24819708","0.29044008255","3080.69645","4.47269487381","3085.16920495","1.52730512619","3086.7495811","3088.56127596","3088.63377094","3091.63674307","0","3091.65127611","3096.88916612",""
