"code","nro_aplicante","nro_bloque","nro_trial_bloque","nro_trial_global","show_game_type","choice_order","rival","pay_individual","pay_competitive","question","answer_left_text","answer_right_text","correct_answer","outcome_individual","outcome_competitive","outcome_rival","game_type","answer","social_time","rt_game_type","feedback_delay","show_question","answer_time","rt_answer_global","feedback_delay_2","show_jitter","jitter_time","show_outcome","outcome_time","outcome_participant_real","show_final_jitter","second_jitter_time","inicio_descanso"
"sujeto_0050473","1","1","1","1","573.62943387","direct","3","1","4","¿Cuántos centímetros corresponden
al talle 36 del calzado?","23","24","","0","0","1","competitive","left","2.25973892212","575.889235973","2.74026107788","578.785913944","3.9753408432","582.761320829","2.0246591568","584.819218874","585.847462893","585.920534849","588.92346096","0","588.936681032","591.099171877",""
"sujeto_0050473","1","1","2","2","591.239039898","inverse","3","1","2","¿Cuántas metros mide la Intendencia
Municipal de Montevideo? ","84","78","","0","0","1","competitive","left","2.07141089439","593.310496807","2.92858910561","596.393426895","4.14501905441","600.538506031","1.85498094559","602.429224968","604.307248831","604.380283833","607.3832829","0","607.397451878","609.490240812",""
"sujeto_0050473","1","1","3","3","609.632620811","direct","1","1","3","¿Cuántas La Pasiva
 hay en uruguay?","15","11","","1","1","1","competitive","right","1.55193305016","611.184617996","3.44806694984","614.805022001","4.12054514885","618.925630808","1.87945485115","620.855834007","622.467465878","622.539726019","625.542685032","1","625.556878805","629.832620859",""
"sujeto_0050473","1","1","4","4","629.97582984","inverse","3","1","3","¿De que color es la camiseta de uruguay?","blanca","celeste","right","1","1","1","competitive","right","1.17391204834","631.149787903","3.82608795166","635.131917953","5.1439371109","640.275893927","0.856062889099","641.167008877","642.37173295","642.450712919","645.452638865","1","645.467532873","648.921412945",""
"sujeto_0050473","1","1","5","5","649.071532965","direct","2","1","1","¿Cuánto metros mide
la torre Eiffel?","333","324","","1","1","1","competitive","right","2.03145599365","651.103052855","2.96854400635","654.22436595","3.61474490166","657.839170933","2.38525509834","660.273625851","661.794978857","661.875726938","664.878698826","1","664.892776966","671.92946887",""
"sujeto_0050473","1","1","6","6","672.060792923","inverse","3","1","4","¿Cuantas ciudades existen
 en todo el uruguay?","63","72","","0","0","1","competitive","right","1.25651621819","673.317373037","3.74348378181","677.20446682","4.99286484718","682.197391033","1.00713515282","683.239385843","684.294188976","684.372671843","687.37564683","0","687.38978982","695.016328812",""
"sujeto_0050473","1","1","7","7","695.158022881","direct","1","1","1","¿Cuantos estados tiene África?","52","54","","1","1","0","competitive","left","2.11954879761","697.277613878","2.88045120239","700.316277981","4.49435901642","704.810679913","1.50564098358","706.351155996","708.215181828","708.284927845","711.287901878","1","711.302870035","717.063894033",""
"sujeto_0050473","1","1","8","8","717.204773903","inverse","4","1","4","¿En qué año nació
 Stephen Hawking?","1952","1942","","0","0","1","competitive","left","1.04904389381","718.253882885","3.95095610619","722.360467911","4.5163500309","726.876874924","1.4836499691","728.412241936","729.856546879","729.929876804","732.932807922","0","732.946713924","739.046070814",""
"sujeto_0050473","1","1","9","9","739.198845863","direct","2","1","3","¿Cuánto años tenía Artigas
 cuando se fue a Paraguay?","56","57","","1","1","1","competitive","left","1.10621905327","740.305169821","3.89378094673","744.386196852","5.28093290329","749.667194843","0.71906709671","750.439105988","751.988641024","752.073175907","755.07613802","1","755.090117931","761.136636972",""
"sujeto_0050473","1","1","10","10","761.291291952","inverse","1","1","2","¿Cuantos milímetros 
mide una hoja A2?","420x592","420x594","","0","0","1","competitive","right","1.19500517845","762.486372948","3.80499482155","766.450235844","4.87604403496","771.326323032","1.12395596504","772.485113859","774.053550959","774.135692835","777.138669014","0","777.154038906","784.222558022",""
"sujeto_0050473","1","1","11","11","784.354794979","direct","3","1","3","¿Cuál es la menor temperatura 
registrada en Uruguay?","-5.4","-7.4","","0","0","1","competitive","right","1.0787332058","785.433578968","3.9212667942","789.513077974","5.44649910927","794.95963788","0.553500890732","795.564590931","797.246615887","797.331637859","800.334590912","0","800.348743916","804.080616951",""
"sujeto_0050473","1","1","12","12","804.217769861","inverse","2","1","2","¿Cuantos años hace que 
se fundó facebook?","18","17","","0","0","0","competitive","right","1.11396789551","805.331784964","3.88603210449","809.406571865","4.37319993973","813.779815912","1.62680006027","815.458269835","816.830929041","816.908567905","819.911537886","0","819.92659688","822.701218843",""
"sujeto_0050473","1","1","13","13","822.827838898","direct","1","1","4","¿Cuál animal es más
 pesado en promedio?","Rinoceronte","Hipopotamo","","0","0","0","competitive","","1.94361376762","824.771557808","3.05638623238","828.034420967","6","834.034582853","0","834.04707098","835.126309872","835.199868917","838.202848911","0","838.217079878","842.058072805",""
"sujeto_0050473","1","1","14","14","842.185230017","inverse","1","1","2","¿Qué personaje de dragon ball 
murió más veces?","Chaoz","Krillin","","1","1","0","competitive","right","1.09022903442","843.275527","3.90977096558","847.377779007","4.55646705627","851.93431282","1.44353294373","853.428251028","854.886044979","854.962487936","857.965477943","1","857.979724884","865.75265789",""
"sujeto_0050473","1","1","15","15","865.88104701","direct","3","1","2","La universidad de oxford. 
existe desde:","1096","1249","","1","1","0","competitive","left","1.26937818527","867.150472879","3.73062181473","871.038975954","2.62656402588","873.665578842","3.37343597412","877.088940859","878.137744904","878.207908869","881.210884809","1","881.225003004","887.912616968",""
"sujeto_0050473","1","1","16","16","888.042776823","inverse","3","1","1","¿Qué escritor latino ganó antes
 el premio nobel?"," García Marquez","Neruda","","0","0","1","competitive","left","0.932913064957","888.975734949","4.06708693504","893.233594894","3.78816390038","897.021816969","2.21183609962","899.285494804","901.025492907","901.102722883","904.104635954","0","904.120536804","907.580637932",""
"sujeto_0050473","1","1","17","17","907.721915007","direct","4","1","3","¿Cuántos dientes tiene un
 tiburón blanco?","6000","3000","","0","0","1","competitive","right","0.941056013107","908.663043976","4.05894398689","912.908123016","4.19182395935","917.099990845","1.80817604065","918.944190979","919.983188868","920.061360836","923.064342976","0","923.078449011","927.884631872",""
"sujeto_0050473","1","1","18","18","928.013978004","inverse","4","1","1","¿Cuánto mide el paralelo Ecuador?","40.000km","70.000km","","0","0","1","competitive","left","0.696105003357","928.710127831","4.30389499664","933.188282967","4.32193207741","937.510255814","1.67806792259","939.23968482","941.195807934","941.274055004","944.277045965","0","944.291267872","947.893805027",""
"sujeto_0050473","1","1","19","19","948.04340291","direct","4","1","2","¿Cuál fue el primer libro 
de Stephen King?","Carrie","The Stand","","1","1","1","competitive","left","0.940935850143","948.984402895","4.05906414986","953.198798895","4.89473104477","958.093592882","1.10526895523","959.233528852","960.977622032","961.050384998","964.053342819","1","964.068547964","968.542999983",""
"sujeto_0050473","1","1","20","20","968.68669796","inverse","2","1","3","¿Qué civilización practicaba
 la momificación?","Grecia","Egipto","right","0","0","1","competitive","right","0.755972146988","969.442778826","4.24402785301","973.85765481","3.0980079174","976.955701828","2.9019920826","979.909873009","981.848568916","981.928081036","984.928601027","1","984.945634842","989.174429893",""
"sujeto_0050473","1","1","21","21","989.29774189","direct","4","1","4","¿Cuántos millones de visitas
 recibe google por minuto?","3.0","4.5","","0","0","1","competitive","right","0.763126850128","990.060933828","4.23687314987","994.453398943","3.11653017998","997.569967985","2.88346982002","1000.50405002","1002.01890683","1002.08893204","1005.09186196","0","1005.10701203","1012.22969794",""
"sujeto_0050473","1","1","22","22","1012.35808492","inverse","1","1","3","La máquina de fax. se inventó en:","1843","1960","","0","0","1","competitive","right","0.840395927429","1013.19856882","4.15960407257","1017.49853992","3.37560009956","1020.87417793","2.62439990044","1023.533494","1024.77550483","1024.85180092","1027.85478401","0","1027.86796403","1031.10247302",""
"sujeto_0050473","1","1","23","23","1031.23651695","direct","2","1","4","En la verdadera historia de los
 300 espartanos. habían:","300 soldados","4300 soldados","","1","1","1","competitive","left","0.70781493187","1031.94437695","4.29218506813","1036.39251399","5.54987096786","1041.94244885","0.450129032135","1042.444875","1043.70609999","1043.77811885","1046.78109193","1","1046.79505301","1050.59682894",""
"sujeto_0050473","1","1","24","24","1050.72983789","inverse","1","1","4","¿Cuántos milímetros crece
 el pelo por día?","0.4","0.04","","0","0","0","competitive","left","0.840665817261","1051.57056785","4.15933418274","1055.88244987","3.18411493301","1059.06660795","2.81588506699","1061.93527603","1063.695997","1063.76962399","1066.77256799","0","1066.787709","1073.52280402",""
"sujeto_0050473","1","1","25","25","1073.65504503","direct","4","1","1","¿Cuánto mide la baldosa gris 
clásica de Montevideo?","22x22 cm.","20x20 cm.","","1","1","1","competitive","right","0.697745084763","1074.35285783","4.30225491524","1078.81445098","4.7332880497","1083.54777884","1.2667119503","1084.86663198","1086.86065793","1086.93409681","1089.93666291","1","1089.9508009","1095.49360895",""
"sujeto_0050473","1","1","26","26","1095.61933684","inverse","2","1","2","¿Cuántas películas de rápidos
 y furiosos hay?","10","11","","1","1","0","competitive","left","0.70068693161","1096.32008886","4.29931306839","1100.75961399","2.65449619293","1103.41415","3.34550380707","1106.81047392","1108.16850996","1108.24468493","1111.24766994","1","1111.26184988","1113.2965529",""
"sujeto_0050473","1","1","27","27","1113.43018603","direct","3","1","1","¿Cuántos masters 1000
 ganó Del Potro?","1","2","","1","1","1","competitive","left","0.669004917145","1114.09923601","4.33099508286","1118.58561897","4.67169117928","1123.25734997","1.32830882072","1124.63677287","1126.39140391","1126.47165084","1129.47463703","1","1129.48868394","1136.88504791",""
"sujeto_0050473","1","1","28","28","1137.02302098","inverse","2","1","4","¿Cuántos meses dura el 
embarazo de una leona?","3 meses","4 meses","","0","0","1","competitive","right","1.01356506348","1138.03668785","3.98643493652","1142.19613981","4.76639199257","1146.96259785","1.23360800743","1148.24956489","1149.36064482","1149.43290496","1152.43587589","0","1152.44980097","1159.17228985",""
"sujeto_0050473","1","1","29","29","1159.30221701","direct","1","1","1","¿En qué año fue creado
 el sandwich?","1762","1653","","1","1","0","competitive","left","1.07553696632","1160.37782788","3.92446303368","1164.44302082","3.55976104736","1168.00284791","2.44023895264","1170.47778082","1172.07633495","1172.14505601","1175.14803696","1","1175.16319895","1178.63264489",""
"sujeto_0050473","1","1","30","30","1178.7641449","inverse","4","1","2","El nombre de la moneda de Vietnam es:","Dinar","Dong","","0","0","1","competitive","right","0.839030981064","1179.60325098","4.16096901894","1183.91961598","3.43241596222","1187.35208988","2.56758403778","1189.97049904","1191.40247393","1191.47252297","1194.47550082","0","1194.49004698","1200.65663481",""
"sujeto_0050473","1","1","31","31","1200.79066682","direct","2","1","1","¿cuantos aleteos puede dar 
un colibrí por segundo?","120","50","","0","0","0","competitive","left","0.637356042862","1201.42814684","4.36264395714","1205.94863987","3.28463602066","1209.23333383","2.71536397934","1211.99947286","1213.73186684","1213.80109787","1216.80409002","0","1216.81794786","1221.03021502",""
"sujeto_0050473","1","1","32","32","1221.17017198","inverse","4","1","3","¿Qué altura promedio tienen
 los hombres uruguayos?","1.73 m","1.72 m","","1","1","1","competitive","right","0.66454911232","1221.83476996","4.33545088768","1226.33932495","3.58415603638","1229.923522","2.41584396362","1232.391886","1233.65434694","1233.72630596","1236.72860003","1","1236.74367881","1241.21960402",""
"sujeto_0050473","1","2","1","33","1406.42886901","direct","1","1","1","¿En qué año nació 
el actor Bradd Pitt?","1967","1963","","1","1","1","competitive","left","1.97961616516","1408.40856004","3.02038383484","1411.58950186","3.82202506065","1415.41159296","2.17797493935","1417.64121199","1418.73705101","1418.82618594","1421.8291719","1","1421.8422749","1427.7698679","1241.23154283"
"sujeto_0050473","1","2","2","34","1427.91116881","inverse","2","1","1","¿Cual es el segundo 
monte más alto?","Kanchenjunga","K2","","1","1","1","competitive","left","0.889542102814","1428.80075288","4.11045789719","1433.06798387","4.57487797737","1437.64290285","1.42512202263","1439.10269189","1440.55510688","1440.63680792","1443.63975883","1","1443.65369987","1447.08063889",""
"sujeto_0050473","1","2","3","35","1447.22172904","direct","3","1","1","¿Cuándo finalizó la construcción
 del Palacio Legislativo?","1925","1917","","0","0","1","competitive","left","0.705217123032","1447.92701292","4.29478287697","1452.37446594","4.133507967","1456.508039","1.866492033","1458.42769504","1460.06940103","1460.14446902","1463.14747","0","1463.16262698","1468.86018491",""
"sujeto_0050473","1","2","4","36","1468.99782681","inverse","3","1","3","¿Cuántos integrantes tenía
 en su inicio  el cuarteto de nos?","3","4","","1","1","1","competitive","right","0.768395900726","1469.76626682","4.23160409927","1474.15602684","4.35728693008","1478.51337481","1.64271306992","1480.19046593","1481.32354283","1481.40863585","1484.41161704","1","1484.424721","1490.07452703",""
"sujeto_0050473","1","2","5","37","1490.22707582","direct","2","1","3","¿Qué valor tiene el número pi?","3.14","4.18","left","0","0","1","competitive","left","1.43933296204","1491.66645193","3.56066703796","1495.38408899","3.59435510635","1498.97848201","2.40564489365","1501.41745996","1502.87164092","1502.95284796","1505.95583892","1","1505.97020602","1512.89121604",""
"sujeto_0050473","1","2","6","38","1513.02126694","inverse","2","1","2","¿Cuál es la esperanza de vida
 en Uruguay?","75","77","","1","1","0","competitive","left","0.771461009979","1513.79279089","4.22853899002","1518.16196394","3.00379180908","1521.16581583","2.99620819092","1524.21300793","1525.86676097","1525.94825602","1528.95124793","1","1528.9652729","1535.42463994",""
"sujeto_0050473","1","2","7","39","1535.6001339","direct","1","1","2","¿Cuantos pisos tiene la torre 
de las comunicaciones?","26","32","","1","1","0","competitive","left","0.724812030792","1536.32501101","4.27518796921","1540.75763583","3.94039797783","1544.69809294","2.05960202217","1546.79143882","1548.6202209","1548.69248796","1551.69547701","1","1551.71037292","1553.85658193",""
"sujeto_0050473","1","2","8","40","1553.99559689","inverse","2","1","4","¿En qué país sudamericano 
no hay McDonalds?","Bolivia","Venezuela","","0","0","1","competitive","right","0.945572853088","1554.94121885","4.05442714691","1559.15055084","4.54167890549","1563.69226885","1.45832109451","1565.18577504","1566.49512887","1566.56906486","1569.57203293","0","1569.58620191","1575.94457197",""
"sujeto_0050473","1","2","9","41","1576.12116098","direct","3","1","1","¿En qué año empieza
 la Edad Media?","476","512","","1","1","1","competitive","right","0.947293043137","1577.0686059","4.05270695686","1581.27834487","4.09013795853","1585.36857295","1.90986204147","1587.33000183","1588.73376989","1588.81362796","1591.81660581","1","1591.83177996","1594.82035899",""
"sujeto_0050473","1","2","10","42","1594.94974399","inverse","3","1","4","¿Hace cuántos años surgió
 el ser humano?","200mil","300mil","","0","0","0","competitive","right","0.809900999069","1595.75971293","4.19009900093","1600.10497689","3.99067902565","1604.09569502","2.00932097435","1606.13933587","1608.02533984","1608.10695481","1611.10993004","0","1611.12485886","1614.43534088",""
"sujeto_0050473","1","2","11","43","1614.57696104","direct","3","1","4","¿Cuántas cuadras tiene
 actualmente 18 de julio? ","36","33","","0","0","1","competitive","right","0.867914915085","1615.44498181","4.13208508492","1619.76605201","5.44290804863","1625.20902181","0.55709195137","1625.801296","1627.50356388","1627.58467698","1630.58768392","0","1630.60176492","1635.32806087",""
"sujeto_0050473","1","2","12","44","1635.47071886","inverse","1","1","4","¿Qué juego de equipo se 
considera mas rápido?","Lacrosse","Badminton","","0","0","0","competitive","left","0.63036108017","1636.10114884","4.36963891983","1640.62638688","4.61972403526","1645.24617696","1.38027596474","1646.67817187","1647.92125392","1647.99608803","1650.99906802","0","1651.01230693","1659.00746083",""
"sujeto_0050473","1","2","13","45","1659.13123703","direct","1","1","3","¿Qué promedio de edad 
vive una jirafa? ","25","20","","0","0","1","competitive","left","0.710135936737","1659.84147882","4.28986406326","1664.32258296","3.98982405663","1668.31247187","2.01017594337","1670.3738029","1672.13529897","1672.20768881","1675.21066904","0","1675.22618699","1681.18190789",""
"sujeto_0050473","1","2","14","46","1681.31030798","inverse","1","1","2","¿Cuántos grandes lagos hay?","7","5","","0","0","1","competitive","right","0.795570850372","1682.10598302","4.20442914963","1686.50014687","3.94651985168","1690.44671297","2.05348014832","1692.53471184","1693.82678699","1693.90305901","1696.90603685","0","1696.919981","1704.74136496",""
"sujeto_0050473","1","2","15","47","1704.8879149","direct","3","1","2","¿Cuántos discos de estudio
 grabó Johhny Cash? ","54","43","","1","1","0","competitive","right","1.04796385765","1705.93594503","3.95203614235","1710.0465219","4.85439300537","1714.90097594","1.14560699463","1716.09839201","1717.377038","1717.44853997","1720.45152497","1","1720.46550798","1727.1126399",""
"sujeto_0050473","1","2","16","48","1727.25110197","inverse","4","1","1","¿Cuántos barrios tiene
 Montevideo? ","71","62","","0","0","1","competitive","right","0.696056127548","1727.94722295","4.30394387245","1732.40811682","2.8990650177","1735.30723882","3.1009349823","1738.45887804","1739.46595883","1739.54348087","1742.54461789","0","1742.56073499","1748.02276492",""
"sujeto_0050473","1","2","17","49","1748.14572501","direct","3","1","3","¿Qué edad tiene Homero Simpson?","36","42","","0","0","1","competitive","left","0.854580163956","1749.00037694","4.14541983604","1753.31901503","3.39434695244","1756.71342301","2.60565304756","1759.35389781","1760.72994304","1760.804842","1763.80780387","0","1763.822016","1768.21073985",""
"sujeto_0050473","1","2","18","50","1768.35718584","inverse","4","1","2","¿Cuántos países con monarquía 
hay en europa actualmente? ","6","10","","1","1","1","competitive","right","0.772361040115","1769.12961197","4.22763895988","1773.53032494","5.20334482193","1778.73373199","0.79665517807","1779.58198786","1781.02027082","1781.0990169","1784.10199594","1","1784.11601281","1790.27283692",""
"sujeto_0050473","1","2","19","51","1790.417696","direct","2","1","3","¿Cuántos capítulos de
 Friends existen? ","236","228","","1","1","1","competitive","left","0.869141101837","1791.286906","4.13085889816","1795.57285881","3.82300400734","1799.39592099","2.17699599266","1801.62545085","1802.93099689","1803.00988984","1806.01284289","1","1806.02680898","1808.40244389",""
"sujeto_0050473","1","2","20","52","1808.54583597","inverse","1","1","3","¿Cuántas óperas compuso Mozart? ","27","22","","1","1","1","competitive","right","0.744177103043","1809.29005599","4.25582289696","1813.70115304","3.4549601078","1817.15615487","2.5450398922","1819.75177002","1821.04391193","1821.11993885","1824.12064195","1","1824.13687301","1831.44829488",""
"sujeto_0050473","1","2","21","53","1831.58804393","direct","4","1","3","¿Cuántos mundiales de fútbol 
femenino ha realizado FIFA? ","9","7","","1","1","1","competitive","right","0.776243925095","1832.36436081","4.22375607491","1836.74625397","4.70304012299","1841.44934988","1.29695987701","1842.79839897","1844.04211593","1844.11534691","1847.11830783","1","1847.13257289","1853.23503184",""
"sujeto_0050473","1","2","22","54","1853.36756086","inverse","3","1","2","¿Cuál es la temperatura 
media anual en Montevideo? ","17.5","16.3","","0","0","1","competitive","right","0.83495593071","1854.20258188","4.16504406929","1858.52507782","4.69154405594","1863.21668386","1.30845594406","1864.55921888","1866.49781084","1866.57695699","1869.57994986","0","1869.5949769","1876.16453195",""
"sujeto_0050473","1","2","23","55","1876.29596996","direct","2","1","2","¿En qué año se estrenó el
 videojuego The Sims? ","2000","2002","","0","0","0","competitive","left","0.867821931839","1877.16384101","4.13217806816","1881.46958303","3.96227002144","1885.43191695","2.03772997856","1887.50410485","1889.36462593","1889.43861699","1892.44159389","0","1892.45657492","1899.84465981",""
"sujeto_0050473","1","2","24","56","1899.97420001","inverse","2","1","1","¿Cuál es la canción con 
mas covers? ","Yesterday","Stand by me","","0","0","0","competitive","left","0.645858049393","1900.62010193","4.35414195061","1905.12905192","4.11606693268","1909.245157","1.88393306732","1911.18170881","1912.58027697","1912.66616297","1915.66912889","0","1915.68341589","1919.85425091",""
"sujeto_0050473","1","2","25","57","1919.98489189","direct","1","1","4","¿Cuánto duró la guerra
 de los 100 años?","116","123","","0","0","0","competitive","right","0.624413013458","1920.60937095","4.37558698654","1925.14260292","4.54673790932","1929.68939996","1.45326209068","1931.1773138","1932.65817785","1932.72861195","1935.73155403","0","1935.745785","1938.06459093",""
"sujeto_0050473","1","2","26","58","1938.23080397","inverse","4","1","4","¿Qué color tiene la  bandera de Brasil?","Amarillo","Naranja","left","0","0","1","competitive","left","0.63466501236","1938.86553597","4.36533498764","1943.40262604","3.25287795067","1946.6555419","2.74712204933","1949.45308495","1951.01956487","1951.10501981","1954.10797882","1","1954.12198782","1957.15475488",""
"sujeto_0050473","1","2","27","59","1957.30700183","direct","4","1","3","¿Qué carabela de 
Colon no volvió del viaje?","Santa María","La pinta","","0","0","1","competitive","left","0.655740022659","1957.96279001","4.34425997734","1962.47605491","3.67870402336","1966.15479803","2.32129597664","1968.51223302","1970.0032618","1970.08038497","1973.08334494","0","1973.09729981","1975.19674802",""
"sujeto_0050473","1","2","28","60","1975.33230686","inverse","4","1","4","¿Cuántos huesos tiene
 un adulto humano?","217","206","","0","0","1","competitive","right","1.09459710121","1976.42701387","3.90540289879","1980.52300692","3.44085001945","1983.96391988","2.55914998055","1986.57379699","1987.84463692","1987.9247508","1990.92776489","0","1990.94194984","1998.77963901",""
"sujeto_0050473","1","2","29","61","1998.90980792","direct","1","1","1","¿Qué país africano fue 
fundado por esclavos?","Liberia","Chad","","0","0","0","competitive","left","1.60841202736","2000.51829886","3.39158797264","2004.06826496","5.17095017433","2009.23927402","0.829049825668","2010.1193769","2012.11104083","2012.18668485","2015.18966484","0","2015.20448494","2023.19533086",""
"sujeto_0050473","1","2","30","62","2023.32222986","inverse","4","1","2","¿A cuánto asciende la cima
 del monte Everest?","7.990 mts","8.848 mts","","0","0","1","competitive","left","0.92618393898","2024.24845886","4.07381606102","2028.48075891","5.66667890549","2034.14747381","0.333321094513","2034.53321791","2035.71806788","2035.79914999","2038.80059481","0","2038.81654692","2045.99657798",""
"sujeto_0050473","1","2","31","63","2046.16775084","direct","4","1","1","¿Cuál es el país mas chico?","Sealand","Luxemburgo","","1","1","1","competitive","left","0.833230018616","2047.00102997","4.16676998138","2051.34229088","4.39745783806","2055.73980904","1.60254216194","2057.37671685","2059.24025202","2059.3102479","2062.31264687","1","2062.32856202","2065.45077991",""
"sujeto_0050473","1","2","32","64","2065.58044481","inverse","2","1","4","¿Cuántas pirámides hay en Egipto?","10000","11000","","1","1","1","competitive","left","1.10647511482","2066.68698502","3.89352488518","2070.7360549","3.61990189552","2074.35601997","2.38009810448","2076.78733993","2077.82064199","2077.90512085","2080.90809989","1","2080.92224789","2086.02863598",""
"sujeto_0050473","1","3","1","65","2197.02439904","direct","2","1","2","¿Cuál es el quinto país con 
mas extensión?","Canadá","Brasil","","1","1","0","competitive","right","1.03995800018","2198.06445885","3.96004199982","2202.20509386","3.43430089951","2205.63945293","2.56569910049","2208.25602388","2209.58931494","2209.67470694","2212.67766285","1","2212.691118","2220.41747594","2086.04107785"
"sujeto_0050473","1","3","2","66","2220.54310584","inverse","1","1","2","¿Qué rasgo facial no tiene
 la Mona Lisa?","Cejas","Pómulos","","0","0","1","competitive","right","0.736501932144","2221.27967501","4.26349806786","2225.70026994","4.29647111893","2229.99680781","1.70352888107","2231.73525095","2233.48460698","2233.56943297","2236.57241583","0","2236.5873549","2242.85866284",""
"sujeto_0050473","1","3","3","67","2242.98926902","direct","4","1","3","¿Cuál es el país con 
mayor población?","Esados Unidos","China","right","0","0","1","competitive","right","0.724631071091","2243.71394396","4.27536892891","2248.14435482","2.6236269474","2250.76802301","3.3763730526","2254.19632697","2255.84229898","2255.91485596","2258.9178369","1","2258.93183804","2262.29916501",""
"sujeto_0050473","1","3","4","68","2262.43346286","inverse","1","1","1","La palabra dinosaurio significa","Lagarto Terrible","Lagarto Dragón","","1","1","0","competitive","","0.726680040359","2263.16018581","4.27331995964","2267.58896899","6","2273.58910584","0","2273.60467601","2274.77501297","2274.85885","2277.86065292","0","2277.87597585","2280.73780203",""
"sujeto_0050473","1","3","5","69","2280.89376998","direct","2","1","3","¿Qué es el membrillero?","Arbol","Arbusto","","0","0","0","competitive","left","0.92561006546","2281.81942797","4.07438993454","2286.04898596","2.8663880825","2288.91543388","3.1336119175","2292.09978986","2294.05388689","2294.13543081","2297.13836288","0","2297.15249181","2303.61655283",""
"sujeto_0050473","1","3","6","70","2303.753613","inverse","3","1","3","¿Alrededor de qué planeta orbita 
el satélite Europa?","Jupiter","Saturno","","1","1","1","competitive","right","0.726895093918","2304.48058891","4.27310490608","2308.91109586","3.9595079422","2312.8706429","2.0404920578","2314.94559002","2316.490412","2316.56311202","2319.56604099","1","2319.58056593","2321.78572297",""
"sujeto_0050473","1","3","7","71","2321.94920182","direct","3","1","1","¿Donde fue el mundial de 
fútbol de 1954?","Suiza","Suecia","","1","1","1","competitive","right","0.780548095703","2322.72981596","4.2194519043","2327.10071182","4.98305010796","2332.08380294","1.01694989204","2333.15374684","2334.40636992","2334.48694181","2337.48992586","1","2337.50469398","2341.41646981",""
"sujeto_0050473","1","3","8","72","2341.53936386","inverse","1","1","4","¿Cuál de los 7 enanitos
no tenía barba?","Bashful","Mudito","","1","1","0","competitive","right","0.634687900543","2342.17410183","4.36531209946","2346.71438694","4.32864308357","2351.04307103","1.67135691643","2352.74920201","2354.32861495","2354.41698503","2357.41995001","1","2357.43366194","2362.36063385",""
"sujeto_0050473","1","3","9","73","2362.48521495","direct","3","1","2","¿Cual red social es
mas utilizada mundialmente?","Instagram","Facebook","","1","1","0","competitive","right","0.725006818771","2363.21028996","4.27499318123","2367.6753099","3.90501093864","2371.58036089","2.09498906136","2373.72696686","2375.64435101","2375.72755289","2378.73053384","1","2378.74569201","2381.68019295",""
"sujeto_0050473","1","3","10","74","2381.81387186","inverse","4","1","1","¿Cuándo se inició la copa
 América de fútbol?","1916","1923","","1","1","1","competitive","right","0.606670856476","2382.42062283","4.39332914352","2386.96556592","2.81393790245","2389.77956486","3.18606209755","2393.00082588","2394.89830399","2394.96963692","2397.97259092","1","2397.98673201","2400.64282393",""
"sujeto_0050473","1","3","11","75","2400.77210903","direct","3","1","4","¿Cuántos presidentes de EEUU
han muerto asesinados?","3","4","","0","0","1","competitive","left","0.577656030655","2401.34981585","4.42234396935","2405.92870784","3.66393589973","2409.59268403","2.33606410027","2411.9625659","2413.44651604","2413.530828","2416.53381181","0","2416.54798293","2420.19208503",""
"sujeto_0050473","1","3","12","76","2420.31656384","inverse","2","1","4","¿Cuántas veces participó EEUU
 en la copa América?","4","5","","0","0","1","competitive","left","0.601444005966","2420.91808391","4.39855599403","2425.48934984","3.54963898659","2429.03905392","2.45036101341","2431.53961086","2432.98372483","2433.05788183","2436.06062889","0","2436.07572794","2442.19289684",""
"sujeto_0050473","1","3","13","77","2442.326823","direct","4","1","1","¿Cuál de estos países 
no formaba la URSS?","Azeribayán","Afganistán","","0","0","1","competitive","right","0.835313081741","2443.16220999","4.16468691826","2447.50086689","3.718323946","2451.21925187","2.281676054","2453.55122185","2454.86427498","2454.93622184","2457.93660998","0","2457.95358992","2465.93263698",""
"sujeto_0050473","1","3","14","78","2466.07174587","inverse","1","1","1","¿En qué año se inauguró
 el teatro Solís?","1867","1856","","0","0","0","competitive","left","0.609688997269","2466.68148685","4.39031100273","2471.22635889","3.80105686188","2475.02748084","2.19894313812","2477.27867484","2478.33499694","2478.4141469","2481.41713786","0","2481.4312489","2488.07905602",""
"sujeto_0050473","1","3","15","79","2488.21585894","direct","1","1","4","¿A qué velocidad vuela 
el avión más rápido?","3529","3874","","0","0","0","competitive","left","0.646891832352","2488.86282587","4.35310816765","2493.37549591","4.59422087669","2497.96975994","1.40577912331","2499.40995502","2501.16460299","2501.24382687","2504.24674892","0","2504.260921","2506.37119889",""
"sujeto_0050473","1","3","16","80","2506.52994585","inverse","3","1","4","¿De qué año es la primer 
película cinematográfica?","1897","1888","","0","0","0","competitive","right","0.84494304657","2507.37493992","4.15505695343","2511.7015059","3.56435394287","2515.26591802","2.43564605713","2517.75246","2518.88464594","2518.95376992","2521.95665097","0","2521.97080088","2527.3805809",""
"sujeto_0050473","1","3","17","81","2527.53911996","direct","2","1","3","¿Cuántos países 
tiene nuestro planeta?","191","194","","1","1","1","competitive","left","0.767163038254","2528.30636692","4.23283696175","2532.71247888","3.81065106392","2536.52316999","2.18934893608","2538.74635983","2540.10354996","2540.18065691","2543.18361402","1","2543.19855285","2546.43660903",""
"sujeto_0050473","1","3","18","82","2546.56656098","inverse","2","1","2","¿Cuántos habitantes
 tiene Buenos Aires?","2.9000.000","3650000","","0","0","0","competitive","left","0.730731010437","2547.29735494","4.26926898956","2551.75582886","4.80557799339","2556.56144786","1.19442200661","2557.80767298","2559.20494199","2559.29075098","2562.29373097","0","2562.30894995","2568.13831782",""
"sujeto_0050473","1","3","19","83","2568.27687097","direct","2","1","1","¿Cuántos kilos forman una tonelada?","1000","1500","left","1","1","1","competitive","left","0.656745195389","2568.93369484","4.34325480461","2573.43310404","3.5304441452","2576.96360302","2.4695558548","2579.46803284","2581.35537982","2581.43588781","2584.43882394","1","2584.4529829","2590.40860486",""
"sujeto_0050473","1","3","20","84","2590.55530691","inverse","4","1","4","¿Cuántos estados tiene la 
República del Perú? ","24","23","","0","0","1","competitive","right","0.752547979355","2591.30792189","4.24745202065","2595.71245003","3.56346607208","2599.27595687","2.43653392792","2601.7468679","2602.76905298","2602.84762883","2605.84865904","0","2605.86468792","2610.80818582",""
"sujeto_0050473","1","3","21","85","2610.95005894","direct","3","1","3","¿En qué año nació Cristóbal Colón? ","1451","1447","","0","0","1","competitive","right","0.650015830994","2611.60012484","4.34998416901","2616.12051487","3.44745898247","2619.568012","2.55254101753","2622.15500784","2624.000911","2624.07376599","2627.07663584","0","2627.09161401","2631.31631994",""
"sujeto_0050473","1","3","22","86","2631.44268799","inverse","4","1","4","¿Cuánto mide la 
Montaña Aconcagua? ","6234","6962","","0","0","1","competitive","left","0.628607988358","2632.07137084","4.37139201164","2636.61726999","3.70601606369","2640.32332182","2.29398393631","2642.6681509","2643.95657992","2644.03607488","2647.03908587","0","2647.05328298","2654.23695397",""
"sujeto_0050473","1","3","23","87","2654.37074089","direct","2","1","4","¿Cuánto mide el punto
 más profundo del océano? ","12508","11003","","0","0","1","competitive","left","0.695787906647","2655.06659389","4.30421209335","2659.52826595","4.65735507011","2664.18569088","1.34264492989","2665.56386089","2666.81537795","2666.89845085","2669.901443","0","2669.91476297","2674.12059402",""
"sujeto_0050473","1","3","24","88","2674.25038195","inverse","1","1","3","¿Cuántos álbumes ha publicado 
el cantante Jaime Roos? ","41","34","","0","0","1","competitive","right","0.553386926651","2674.80384088","4.44661307335","2679.40622997","3.56356716156","2682.96985698","2.43643283844","2685.44066191","2686.93048","2687.00866294","2690.01164603","0","2690.025563","2696.22172785",""
"sujeto_0050473","1","3","25","89","2696.36093903","direct","4","1","3","¿En qué año nació el 
ex-presidente Jorge Battle? ","1921","1927","","1","1","1","competitive","right","0.765010118484","2697.12599802","4.23498988152","2701.548666","3.96037817001","2705.50911403","2.03962182999","2707.58532786","2709.31600499","2709.40282202","2712.40581083","1","2712.42021585","2715.90626502",""
"sujeto_0050473","1","3","26","90","2716.03817487","inverse","1","1","3","¿Cuántas presidencias 
constitucionales  hubo en Uruguay? ","41","42","","0","0","1","competitive","left","0.870517969131","2716.90876603","4.12948203087","2721.19491601","4.56738209724","2725.76235795","1.43261790276","2727.24593186","2728.44970489","2728.52993393","2731.53262687","0","2731.54688787","2737.33052897",""
"sujeto_0050473","1","3","27","91","2737.46573901","direct","1","1","2","¿Quién escribió mas sinfonías?","Mozart","Haydn","","1","1","0","competitive","left","0.830743074417","2738.29656982","4.16925692558","2742.62235785","3.57219099998","2746.19461799","2.42780900002","2748.67322183","2749.89066982","2749.97452903","2752.97749496","1","2752.99169087","2756.74065995",""
"sujeto_0050473","1","3","28","92","2756.87754083","inverse","4","1","2","¿En qué año nació Michael Jackson?","1958","1953","","1","1","1","competitive","left","0.666186094284","2757.54377604","4.33381390572","2762.06624603","3.39847707748","2765.46478391","2.60152292252","2768.11645699","2770.09468985","2770.168015","2773.17097592","1","2773.18604898","2779.04836702",""
"sujeto_0050473","1","3","29","93","2779.18730783","direct","3","1","2","¿En qué año entró en vigencia 
la ley antitabaco en Uruguay?","2005","2006","","1","1","1","competitive","right","0.767580986023","2779.95494199","4.23241901398","2784.34159803","4.79540205002","2789.13706684","1.20459794998","2790.37759089","2791.97231984","2792.04453397","2795.04751587","1","2795.06275582","2800.39675689",""
"sujeto_0050473","1","3","30","94","2800.53113484","inverse","3","1","1","¿Cuándo se subió el 
primer video a youtube?","2004","2005","","0","0","1","competitive","left","0.67414689064","2801.20535803","4.32585310936","2805.68848801","3.92765903473","2809.61620402","2.07234096527","2811.72353101","2813.02917194","2813.10834694","2816.10863304","0","2816.12487602","2823.88048983",""
"sujeto_0050473","1","3","31","95","2824.04337502","direct","2","1","1","¿Cuántos habitantes tiene India?","1200 millones","1300 millones","","0","0","0","competitive","right","0.591095924377","2824.63454294","4.40890407562","2829.20195198","3.96856212616","2833.17055988","2.03143787384","2835.25252485","2837.22216296","2837.30344582","2840.30638695","0","2840.32172298","2846.36923695",""
"sujeto_0050473","1","3","32","96","2846.50657797","inverse","4","1","2","¿A qué edad murió Bob Marley?","36","37","","0","0","1","competitive","right","0.624111175537","2847.13076091","4.37588882446","2851.6628139","3.55888986588","2855.22174287","2.44111013412","2857.69729781","2859.595155","2859.68289185","2862.68463087","0","2862.69966984","2865.8021369",""
"sujeto_0050473","1","4","1","97","2985.95928693","direct","2","1","1","¿Cuantos años dirigió la selección 
uruguaya Tabarez?","15 años","13 años","","0","0","0","competitive","right","0.761933803558","2986.72128391","4.23806619644","2991.12008381","3.9911980629","2995.111341","2.0088019371","2997.15414691","2998.34528303","2998.42241001","3001.42539883","0","3001.43934584","3008.51135492","2865.81346297"
"sujeto_0050473","1","4","2","98","3008.67377591","inverse","4","1","1","¿Cuantas teclas tiene un teclado 
de computadora generalmente? ","Entre 99 y 108","Entre 109 y 113","","1","1","1","competitive","left","0.747735977173","3009.42157793","4.25226402283","3013.84825587","4.82524299622","3018.6735568","1.17475700378","3019.89956093","3020.90232086","3020.98424888","3023.98720598","1","3024.00123286","3026.37262797",""
"sujeto_0050473","1","4","3","99","3026.50241685","direct","1","1","1","¿Cuál Departamento tiene
 mayor superficie?","Río Negro","Soriano","","0","0","0","competitive","left","0.580375909805","3027.08287382","4.41962409019","3031.65803504","3.65172600746","3035.30982089","2.34827399254","3037.70896101","3039.42245984","3039.49304891","3042.49603391","0","3042.51125789","3046.83681488",""
"sujeto_0050473","1","4","4","100","3046.96244693","inverse","3","1","2","¿Cuál es el apellido de las 
hermanastras  de  cenicienta?","Tremaine","Truman","","0","0","1","competitive","left","0.656543970108","3047.61906481","4.34345602989","3052.11863184","4.40533399582","3056.52402496","1.59466600418","3058.17074704","3060.04023695","3060.12084699","3063.12381482","0","3063.13796782","3065.83391595",""
"sujeto_0050473","1","4","5","101","3065.97347999","direct","4","1","4","¿Cuál película ganó un
 Oscar a mejor película?","Alto Impacto","Cache","","0","0","1","competitive","left","0.635718107224","3066.60925102","4.36428189278","3071.14305091","4.10315799713","3075.2462709","1.89684200287","3077.19572687","3078.31506181","3078.39663291","3081.39959288","0","3081.41347694","3083.67662382",""
"sujeto_0050473","1","4","6","102","3083.83203197","inverse","1","1","3","¿A cuántos centímetros
equivale la medida pié?","25","30","","0","0","1","competitive","left","0.566386222839","3084.39849091","4.43361377716","3088.98809004","4.70024394989","3093.68837285","1.29975605011","3095.03995681","3096.07995987","3096.15713096","3099.16011286","0","3099.17431593","3104.57261682",""
"sujeto_0050473","1","4","7","103","3104.70853901","direct","2","1","2","¿Qué departamento es mas grande?","Cerro Largo","Paysandú","","0","0","0","competitive","right","0.777052164078","3105.48563981","4.22294783592","3109.86550403","5.57212400436","3115.4376719","0.427875995636","3115.90103102","3117.50077081","3117.58371186","3120.58667684","0","3120.60187197","3124.71184397",""
"sujeto_0050473","1","4","8","104","3124.85381103","inverse","2","1","3","¿Quién pintó la Mona Lisa?","Picasso","Da Vinci","right","0","0","1","competitive","right","0.537130117416","3125.39102602","4.46286988258","3130.00980783","3.21803498268","3133.22788286","2.78196501732","3136.06037498","3137.66624784","3137.74483395","3140.74779487","1","3140.76276588","3142.9250989",""
"sujeto_0050473","1","4","9","105","3143.06492496","direct","4","1","3","¿Cuántos litros hay en un galon?","3.54","3.78","","1","1","1","competitive","left","0.618103027344","3143.6830759","4.38189697266","3148.23571301","3.63432598114","3151.8700819","2.36567401886","3154.28638697","3155.80426002","3155.88796902","3158.88864589","1","3158.90504384","3164.697402",""
"sujeto_0050473","1","4","10","106","3164.84046102","inverse","4","1","1","¿Cuántas teclas tiene
 un piano moderno?","80","88","","0","0","1","competitive","left","0.582903146744","3165.42343998","4.41709685326","3170.01459503","4.38569903374","3174.40033889","1.61430096626","3176.065588","3177.07406783","3177.1494","3180.152385","0","3180.16667795","3186.96442103",""
"sujeto_0050473","1","4","11","107","3187.10124397","direct","4","1","3","¿Cuántos países hay en África?","54","62","","0","0","1","competitive","left","0.83029294014","3187.93163991","4.16970705986","3192.29206181","3.59338593483","3195.88548803","2.40661406517","3198.32685304","3200.01740003","3200.09463596","3203.09761286","0","3203.11179686","3210.91261196",""
"sujeto_0050473","1","4","12","108","3211.06369281","inverse","1","1","3","¿En qué siglo se crearon
 las primeras pistolas?","XV","XIII","","1","1","1","competitive","right","0.619174003601","3211.68294191","4.3808259964","3216.20457196","4.31026315689","3220.51489496","1.68973684311","3222.23927093","3224.18717694","3224.25697303","3227.25994897","1","3227.27383494","3230.50694299",""
"sujeto_0050473","1","4","13","109","3230.6429069","direct","3","1","4","¿En qué año se estrenó 
la serie friends?","1994","1995","","0","0","1","competitive","right","0.627125024796","3231.27010703","4.3728749752","3235.7951889","3.49285292625","3239.28810096","2.50714707375","3241.830832","3243.70616889","3243.782197","3246.78510189","0","3246.80035996","3251.80642796",""
"sujeto_0050473","1","4","14","110","3251.95142603","inverse","3","1","4","¿En qué año nació Hitler?","1889","1887","","0","0","1","competitive","right","0.569859981537","3252.52133894","4.43014001846","3257.11005497","4.04116415977","3261.151263","1.95883584023","3263.14395595","3264.25832701","3264.32884097","3267.3318789","0","3267.34530783","3272.37226796",""
"sujeto_0050473","1","4","15","111","3272.51366496","direct","1","1","4","¿Cuánto pesa un elefante Africano?","6000 kilos","5400 kilos","","0","0","0","competitive","right","0.867793083191","3273.38155603","4.13220691681","3277.70371294","4.3617708683","3282.06555104","1.6382291317","3283.75473499","3285.11065292","3285.18994093","3288.19292688","0","3288.20616102","3294.91323996",""
"sujeto_0050473","1","4","16","112","3295.07445192","inverse","1","1","2","¿Qué porcentaje de 
la población es zurda?","10%","7%","","1","1","0","competitive","right","0.563657045364","3295.63821101","4.43634295464","3300.23227882","3.03853011131","3303.27085495","2.96146988869","3306.28276801","3307.52586985","3307.6013329","3310.60431385","1","3310.61848283","3316.59822702",""
"sujeto_0050473","1","4","17","113","3316.73681402","direct","1","1","2","¿En qué año se estrenó
Volver al futuro?","1984","1985","","0","0","1","competitive","right","0.597226142883","3317.33408689","4.40277385712","3321.89016891","3.60385107994","3325.49406195","2.39614892006","3327.94329286","3329.50510883","3329.57740593","3332.58038187","0","3332.59462404","3339.68605089",""
"sujeto_0050473","1","4","18","114","3339.81252694","inverse","3","1","2","¿Cuántos jugadores hay en un 
equipo de baseball?","9","8","","1","1","0","competitive","right","0.733692884445","3340.54626489","4.26630711555","3344.97301602","4.80227994919","3349.77535701","1.19772005081","3351.02436304","3352.63864803","3352.70856786","3355.71154404","1","3355.72588587","3360.70313191",""
"sujeto_0050473","1","4","19","115","3360.84361196","direct","2","1","1","¿Cuántos Oscar ganó
 la película titanic?","13","11","","1","1","1","competitive","right","0.71390914917","3361.55756903","4.28609085083","3366.00007987","3.72342586517","3369.72354388","2.27657413483","3372.05116582","3373.35322404","3373.43558598","3376.43856096","1","3376.45272684","3381.05539298",""
"sujeto_0050473","1","4","20","116","3381.22146988","inverse","4","1","4","¿En qué año comenzó
la segunda guerra mundial?","1939","1976","left","0","0","1","competitive","right","0.627347946167","3381.84886789","4.37265205383","3386.37758493","3.99215888977","3390.36978292","2.00784111023","3392.41202903","3394.21189594","3394.29635382","3397.29934192","0","3397.3143549","3401.301507",""
"sujeto_0050473","1","4","21","117","3401.46581984","direct","2","1","4","¿Cuántos biomas hay en Uruguay?","5","4","","0","0","1","competitive","left","0.735435009003","3402.20133281","4.264564991","3406.60489988","4.4940559864","3411.09899688","1.5059440136","3412.63990092","3414.43726802","3414.50645089","3417.50942683","0","3417.52452302","3423.77390695",""
"sujeto_0050473","1","4","22","118","3423.94217896","inverse","2","1","3","¿Cuándo murió Pablo Escobar?","1993","1997","","1","1","1","competitive","right","0.630105018616","3424.57233381","4.36989498138","3429.11631989","3.60390782356","3432.72028804","2.39609217644","3435.16800785","3436.95083284","3437.03546286","3440.03840399","1","3440.05261087","3445.75258899",""
"sujeto_0050473","1","4","23","119","3445.9210639","direct","1","1","4","¿Qué serie ha ganado mas premios?","Friends","Murphy Brown","","1","1","0","competitive","left","0.740267038345","3446.66137481","4.25973296165","3451.07817292","2.95722198486","3454.03543401","3.04277801514","3457.12891197","3458.481323","3458.56421781","3461.56461501","1","3461.58079195","3467.14063096",""
"sujeto_0050473","1","4","24","120","3467.28276086","inverse","4","1","2","¿Cuántas fichas tiene el dominó?","26","28","","1","1","1","competitive","right","0.617958068848","3467.900769","4.38204193115","3472.45629787","3.94338583946","3476.39972281","2.05661416054","3478.49038386","3479.54568386","3479.62513304","3482.62813497","1","3482.64211988","3487.88464093",""
"sujeto_0050473","1","4","25","121","3488.0265789","direct","2","1","4","¿Cuántos son los dientes de leche?","20","25","","0","0","1","competitive","left","0.731331825256","3488.75796294","4.26866817474","3493.18128586","3.48862290382","3496.66996789","2.51137709618","3499.23308682","3500.94342995","3501.01811886","3504.02111602","0","3504.03497481","3506.18065381",""
"sujeto_0050473","1","4","26","122","3506.32048893","inverse","3","1","3","¿Cuántos gramos son una onza?","22","28","","0","0","1","competitive","right","0.563745975494","3506.88429594","4.43625402451","3511.49378395","3.33834719658","3514.83219695","2.66165280342","3517.54414296","3519.53898191","3519.6124599","3522.61547494","0","3522.62979484","3528.92002702",""
"sujeto_0050473","1","4","27","123","3529.06539488","direct","3","1","1","¿Cuándo salió el primer album
 de los Beatles?","1963","1962","","1","1","1","competitive","left","0.717972993851","3529.78343487","4.28202700615","3534.22175694","4.29558682442","3538.51740789","1.70441317558","3540.25628591","3541.41991496","3541.49091792","3544.49389887","1","3544.50816298","3548.28020096",""
"sujeto_0050473","1","4","28","124","3548.40936899","inverse","3","1","3","¿Quién fundó la empresa apple?","Carlos Slim","Steve Jobs","","1","1","1","competitive","right","0.667263031006","3549.07670498","4.33273696899","3553.56542492","4.4962079525","3558.06167984","1.5037920475","3559.61617994","3560.73087001","3560.80080986","3563.80378985","1","3563.81792998","3570.11578798",""
"sujeto_0050473","1","4","29","125","3570.25332499","direct","4","1","2","¿Cuántos municipios hay
 en Montevideo?","8","7","","1","1","1","competitive","left","0.703514099121","3570.95691586","4.29648590088","3575.42438102","3.73143196106","3579.15585685","2.26856803894","3581.45957494","3583.37263989","3583.44417882","3586.44715095","1","3586.46185493","3588.54294395",""
"sujeto_0050473","1","4","30","126","3588.68070602","inverse","1","1","1","¿Cuántos kilómetros hay
 de Montevideo a Artigas?","632","599","","0","0","0","competitive","left","0.584371089935","3589.26515198","4.41562891006","3593.85377383","4.64619803429","3598.50003099","1.35380196571","3599.90489984","3601.38799882","3601.47212696","3604.47510886","0","3604.48942494","3610.54154396",""
"sujeto_0050473","1","4","31","127","3610.67417598","direct","2","1","2","¿En qué año nació 
Leonardo Da Vinci?","1452","1511","","1","1","0","competitive","right","0.704128026962","3611.37835693","4.29587197304","3615.83177781","3.09653902054","3618.92837381","2.90346097946","3621.86593199","3623.71954489","3623.80102491","3626.80400896","1","3626.81814885","3629.96454692",""
"sujeto_0050473","1","4","32","128","3630.10280395","inverse","3","1","1","¿A qué continente
 pertenece el país Gabón?","Africa","Oceanía","","0","0","1","competitive","left","0.626725912094","3630.72958183","4.37327408791","3635.27189898","4.2716050148","3639.54354501","1.7283949852","3641.32435083","3643.13603187","3643.20900583","3646.21198893","0","3646.22599602","3651.46385098",""
