"code","nro_aplicante","nro_bloque","nro_trial_bloque","nro_trial_global","show_game_type","choice_order","rival","pay_individual","pay_competitive","question","answer_left_text","answer_right_text","correct_answer","outcome_individual","outcome_competitive","outcome_rival","game_type","answer","social_time","rt_game_type","feedback_delay","show_question","answer_time","rt_answer_global","feedback_delay_2","show_jitter","jitter_time","show_outcome","outcome_time","outcome_participant_real","show_final_jitter","second_jitter_time","inicio_descanso"
"sujeto_eafb7359","1","1","1","1","673.38356781","direct","3","1","4","¿Cuántos centímetros corresponden
al talle 36 del calzado?","23","24","","0","0","1","individual","right","2.47139692307","675.855035782","2.52860307693","678.536257982","3.69072794914","682.227058887","2.30927205086","684.588286877","685.616592884","685.655960798","688.658908844","0","688.672722816","690.835245848",""
"sujeto_eafb7359","1","1","2","2","690.973777771","inverse","3","1","2","¿Cuántas metros mide la Intendencia
Municipal de Montevideo? ","84","78","","0","0","1","individual","left","1.59133005142","692.56515193","3.40866994858","696.112288952","3.75281405449","699.865142822","2.24718594551","702.162925959","704.040684938","704.080494881","707.08346796","0","707.098622799","709.191374779",""
"sujeto_eafb7359","1","1","3","3","709.333843946","direct","1","1","3","¿Cuántas La Pasiva
 hay en uruguay?","15","11","","1","1","1","competitive","left","1.26742005348","710.601329803","3.73257994652","714.489023924","2.75225806236","717.241318941","3.24774193764","720.538795948","722.150465965","722.22426796","725.227187872","1","725.241007805","729.516645908",""
"sujeto_eafb7359","1","1","4","4","729.643117905","inverse","3","1","3","¿De que color es la camiseta de uruguay?","blanca","celeste","right","1","1","1","competitive","right","2.7202911377","732.363470793","2.2797088623","734.795823812","2.3786380291","737.174501896","3.6213619709","740.831855774","742.036645889","742.117229939","745.120190859","1","745.134352922","748.588271856",""
"sujeto_eafb7359","1","1","5","5","748.736612797","direct","2","1","1","¿Cuánto metros mide
la torre Eiffel?","333","324","","1","1","1","individual","right","1.78896689415","750.525644779","3.21103310585","753.875671864","3.55791902542","757.433630943","2.44208097458","759.927536964","761.448888779","761.49493885","764.497864008","1","764.511838913","771.544624805",""
"sujeto_eafb7359","1","1","6","6","771.696745872","inverse","3","1","4","¿Cuantas ciudades existen
 en todo el uruguay?","63","72","","0","0","1","competitive","left","1.90106201172","773.597881794","3.09893798828","776.870003939","4.00772714615","780.877785921","1.99227285385","782.905818939","783.960618973","784.039864779","787.042838812","0","787.056908846","794.683511972",""
"sujeto_eafb7359","1","1","7","7","794.808981895","direct","1","1","1","¿Cuantos estados tiene África?","52","54","","1","1","0","individual","left","2.00901985168","796.818118811","2.99098014832","799.963947773","2.97004294395","802.934034824","3.02995705605","806.015844822","807.879820824","807.919318914","810.922288895","1","810.936271906","816.697295904",""
"sujeto_eafb7359","1","1","8","8","816.838210821","inverse","4","1","4","¿En qué año nació
 Stephen Hawking?","1952","1942","","0","0","1","competitive","right","2.4569709301","819.295225859","2.5430290699","821.99753499","3.85558605194","825.853178978","2.14441394806","828.046269894","829.490592003","829.563291788","832.566259861","0","832.581463814","838.680801868",""
"sujeto_eafb7359","1","1","9","9","838.816064835","direct","2","1","3","¿Cuánto años tenía Artigas
 cuando se fue a Paraguay?","56","57","","1","1","1","competitive","left","2.20425486565","841.020367861","2.79574513435","843.974662781","3.88973093033","847.864451885","2.11026906967","850.024311781","851.573827982","851.65910387","854.660697937","1","854.675960779","860.723277807",""
"sujeto_eafb7359","1","1","10","10","860.860754967","inverse","1","1","2","¿Cuantos milímetros 
mide una hoja A2?","420x592","420x594","","0","0","1","competitive","right","2.5707051754","863.431501865","2.4292948246","866.050684929","5.64485406876","871.695578814","0.355145931244","872.087159872","873.655591965","873.736844778","876.739784002","0","876.753973007","883.824642897",""
"sujeto_eafb7359","1","1","11","11","883.956095934","direct","3","1","3","¿Cuál es la menor temperatura 
registrada en Uruguay?","-5.4","-7.4","","0","0","1","competitive","right","3.63959717751","887.595757008","1.36040282249","889.114123821","3.10759592056","892.221780777","2.89240407944","895.163872004","896.844613791","896.915056944","899.916646004","0","899.932591915","903.665917873",""
"sujeto_eafb7359","1","1","12","12","903.801680803","inverse","2","1","2","¿Cuantos años hace que 
se fundó facebook?","18","17","","0","0","0","competitive","left","2.20418691635","906.005932808","2.79581308365","908.939435005","2.70447015762","911.643943787","3.29552984238","914.991103888","916.363820791","916.442612886","919.445596933","0","919.45950985","922.234152794",""
"sujeto_eafb7359","1","1","13","13","922.362085819","direct","1","1","4","¿Cuál animal es más
 pesado en promedio?","Rinoceronte","Hipopotamo","","0","0","0","competitive","right","1.55089592934","923.913028002","3.44910407066","927.533726931","3.44825601578","930.982038975","2.55174398422","933.617522001","934.696680784","934.769121885","937.772090912","0","937.78617382","941.627182007",""
"sujeto_eafb7359","1","1","14","14","941.771178961","inverse","1","1","2","¿Qué personaje de dragon ball 
murió más veces?","Chaoz","Krillin","","1","1","0","competitive","right","2.26200604439","944.033231974","2.73799395561","946.926452875","2.97874593735","949.905237913","3.02125406265","952.960660934","954.418451786","954.496091843","957.499055862","1","957.513113976","965.286067963",""
"sujeto_eafb7359","1","1","15","15","965.4475739","direct","3","1","2","La universidad de oxford. 
existe desde:","1096","1249","","1","1","0","individual","left","3.14181494713","968.589491844","1.85818505287","970.6229918","3.77139687538","974.394429922","2.22860312462","976.673463821","977.722259998","977.774433851","980.776678801","1","980.791550875","987.482376814",""
"sujeto_eafb7359","1","1","16","16","987.627062798","inverse","3","1","1","¿Qué escritor latino ganó antes
 el premio nobel?"," García Marquez","Neruda","","0","0","1","individual","right","2.05050492287","989.677628994","2.94949507713","992.784051895","4.72655081749","997.5106709","1.27344918251","998.818624973","1000.55861092","1000.60301089","1003.60598183","0","1003.62004781","1007.08059096",""
"sujeto_eafb7359","1","1","17","17","1007.22204494","direct","4","1","3","¿Cuántos dientes tiene un
 tiburón blanco?","6000","3000","","0","0","1","individual","right","2.0686609745","1009.29074979","2.9313390255","1012.37680483","3.53687286377","1015.91371894","2.46312713623","1018.42821097","1019.46717691","1019.51346183","1022.51449895","0","1022.53068185","1027.34034896",""
"sujeto_eafb7359","1","1","18","18","1027.48178196","inverse","4","1","1","¿Cuánto mide el paralelo Ecuador?","40.000km","70.000km","","0","0","1","individual","right","1.46206402779","1028.9438858","3.53793597221","1032.63836098","4.43558812141","1037.07401299","1.56441187859","1038.68979287","1040.6458919","1040.69071579","1043.69368386","0","1043.70829797","1047.30868196",""
"sujeto_eafb7359","1","1","19","19","1047.44246697","direct","4","1","2","¿Cuál fue el primer libro 
de Stephen King?","Carrie","The Stand","","1","1","1","individual","left","1.94663119316","1049.38917089","3.05336880684","1052.61572289","3.94330978394","1056.55909991","2.05669021606","1058.64910793","1060.39321899","1060.4335258","1063.4364779","1","1063.45066595","1067.92507982",""
"sujeto_eafb7359","1","1","20","20","1068.0524199","inverse","2","1","3","¿Qué civilización practicaba
 la momificación?","Grecia","Egipto","right","0","0","1","competitive","right","1.95681381226","1070.009305","3.04318618774","1073.22668695","2.15761709213","1075.3843658","3.84238290787","1079.27637196","1081.21567798","1081.29555392","1084.29853582","1","1084.31260395","1088.54140782",""
"sujeto_eafb7359","1","1","21","21","1088.68123698","direct","4","1","4","¿Cuántos millones de visitas
 recibe google por minuto?","3.0","4.5","","0","0","1","individual","right","2.7681491375","1091.44942999","2.2318508625","1093.83694291","2.6795129776","1096.51651478","3.3204870224","1099.87096882","1101.38579893","1101.42245293","1104.4246428","0","1104.43981695","1111.56243896",""
"sujeto_eafb7359","1","1","22","22","1111.69080186","inverse","1","1","3","La máquina de fax. se inventó en:","1843","1960","","0","0","1","competitive","left","1.79779982567","1113.48866391","3.20220017433","1116.84792495","2.31968712807","1119.16767097","3.68031287193","1122.898669","1124.14065886","1124.21822286","1127.22121382","0","1127.235358","1130.47162795",""
"sujeto_eafb7359","1","1","23","23","1130.61973","direct","2","1","4","En la verdadera historia de los
 300 espartanos. habían:","300 soldados","4300 soldados","","1","1","1","competitive","left","3.02601099014","1133.64578581","1.97398900986","1135.80900979","5.57575201988","1141.38480687","0.424247980118","1141.84485888","1143.10609579","1143.1778388","1146.18077278","1","1146.19467282","1149.99642897",""
"sujeto_eafb7359","1","1","24","24","1150.12952685","inverse","1","1","4","¿Cuántos milímetros crece
 el pelo por día?","0.4","0.04","","0","0","0","competitive","right","1.20537304878","1151.33496499","3.79462695122","1155.2861619","3.94081282616","1159.22701788","2.05918717384","1161.3373208","1163.09668589","1163.17157888","1166.17456484","0","1166.18877578","1172.92387486",""
"sujeto_eafb7359","1","1","25","25","1173.05682492","direct","4","1","1","¿Cuánto mide la baldosa gris 
clásica de Montevideo?","22x22 cm.","20x20 cm.","","1","1","1","individual","right","2.33034014702","1175.38722682","2.66965985298","1178.22799897","5.3171069622","1183.5451448","0.682893037796","1184.28294492","1186.27816582","1186.31612897","1189.31905794","1","1189.33420396","1194.87665796",""
"sujeto_eafb7359","1","1","26","26","1195.0190568","inverse","2","1","2","¿Cuántas películas de rápidos
 y furiosos hay?","10","11","","1","1","0","competitive","left","3.42026090622","1198.43937993","1.57973909378","1200.19170189","2.68063688278","1202.87239885","3.31936311722","1206.22670889","1207.58473587","1207.66202593","1210.66467881","1","1210.67870879","1212.71268797",""
"sujeto_eafb7359","1","1","27","27","1212.84739685","direct","3","1","1","¿Cuántos masters 1000
 ganó Del Potro?","1","2","","1","1","1","individual","left","2.37906098366","1215.22652197","2.62093901634","1218.01249194","5.07999300957","1223.09252787","0.920006990433","1224.05398488","1225.80875182","1225.85345697","1228.85639882","1","1228.87151098","1236.26784778",""
"sujeto_eafb7359","1","1","28","28","1236.405725","inverse","2","1","4","¿Cuántos meses dura el 
embarazo de una leona?","3 meses","4 meses","","0","0","1","competitive","left","1.97693800926","1238.38273382","3.02306199074","1241.56487584","4.1317460537","1245.69667697","1.8682539463","1247.61354899","1248.72459984","1248.79808283","1251.80107188","0","1251.81528378","1258.53665185",""
"sujeto_eafb7359","1","1","29","29","1258.68351197","direct","1","1","1","¿En qué año fue creado
 el sandwich?","1762","1653","","1","1","0","competitive","left","3.50934195518","1262.19292283","1.49065804482","1263.84323788","3.55766510963","1267.40096092","2.44233489037","1269.893857","1271.49241996","1271.56129694","1274.56425595","1","1274.57845497","1278.04909086",""
"sujeto_eafb7359","1","1","30","30","1278.19719195","inverse","4","1","2","El nombre de la moneda de Vietnam es:","Dinar","Dong","","0","0","1","individual","right","1.19779992104","1279.39506483","3.80220007896","1283.35263085","2.92942500114","1286.28211689","3.07057499886","1289.38680196","1290.81876683","1290.87184191","1293.87483597","0","1293.88876486","1300.05718589",""
"sujeto_eafb7359","1","1","31","31","1300.19030499","direct","2","1","1","¿cuantos aleteos puede dar 
un colibrí por segundo?","120","50","","0","0","0","individual","left","2.21891999245","1302.40929079","2.78108000755","1305.34792995","2.99420499802","1308.34218979","3.00579500198","1311.38187099","1313.11427093","1313.15006089","1316.15265894","0","1316.16705394","1320.37931395",""
"sujeto_eafb7359","1","1","32","32","1320.552531","inverse","4","1","3","¿Qué altura promedio tienen
 los hombres uruguayos?","1.73 m","1.72 m","","1","1","1","individual","left","1.57376194","1322.12633491","3.42623806","1325.72479582","3.10757088661","1328.83240485","2.89242911339","1331.77607584","1333.03849697","1333.07675695","1336.07971978","1","1336.09407496","1340.57001996",""
"sujeto_eafb7359","1","2","1","33","1545.69644594","direct","1","1","1","¿En qué año nació 
el actor Bradd Pitt?","1967","1963","","1","1","1","individual","right","2.34440994263","1548.04091883","2.65559005737","1550.87952185","2.72241687775","1553.60197592","3.27758312225","1556.92939687","1558.02525496","1558.06465292","1561.06762099","1","1561.08089185","1567.00848389","1340.58165884"
"sujeto_eafb7359","1","2","2","34","1567.14937401","inverse","2","1","1","¿Cual es el segundo 
monte más alto?","Kanchenjunga","K2","","1","1","1","individual","left","1.93800401688","1569.08742785","3.06199598312","1572.30631185","3.34808897972","1575.65446687","2.65191102028","1578.35730791","1579.80860782","1579.8588438","1582.86066484","1","1582.87679601","1586.30669379",""
"sujeto_eafb7359","1","2","3","35","1586.44476891","direct","3","1","1","¿Cuándo finalizó la construcción
 del Palacio Legislativo?","1925","1917","","0","0","1","individual","left","1.30192184448","1587.74673891","3.69807815552","1591.61691093","3.8439040184","1595.46087599","2.1560959816","1597.65089393","1599.29265094","1599.33543587","1602.33835983","0","1602.35289288","1608.05044985",""
"sujeto_eafb7359","1","2","4","36","1608.2209599","inverse","3","1","3","¿Cuántos integrantes tenía
 en su inicio  el cuarteto de nos?","3","4","","1","1","1","competitive","right","2.83314180374","1611.05414391","2.16685819626","1613.40899992","3.11119222641","1616.52023482","2.88880777359","1619.445719","1620.5788219","1620.6641078","1623.66709185","1","1623.68146491","1629.32863879",""
"sujeto_eafb7359","1","2","5","37","1629.46693587","direct","2","1","3","¿Qué valor tiene el número pi?","3.14","4.18","left","0","0","1","competitive","left","2.04258298874","1631.50958085","2.95741701126","1634.62131882","2.12523508072","1636.74661398","3.87476491928","1640.67377687","1642.12799692","1642.2088809","1645.21187401","1","1645.22609282","1652.14466286",""
"sujeto_eafb7359","1","2","6","38","1652.29435301","inverse","2","1","2","¿Cuál es la esperanza de vida
 en Uruguay?","75","77","","1","1","0","competitive","right","3.70857191086","1656.00297093","1.29142808914","1657.45274282","2.22727108002","1659.68005586","3.77272891998","1663.5029819","1665.15668678","1665.237885","1668.24092889","1","1668.2550478","1674.71805382",""
"sujeto_eafb7359","1","2","7","39","1674.85728788","direct","1","1","2","¿Cuantos pisos tiene la torre 
de las comunicaciones?","26","32","","1","1","0","competitive","right","2.19598793983","1677.05331898","2.80401206017","1680.03123593","2.98313999176","1683.01441598","3.01686000824","1686.08091497","1687.90972185","1687.982584","1690.98556495","1","1691.00067496","1693.14688182",""
"sujeto_eafb7359","1","2","8","40","1693.2856648","inverse","2","1","4","¿En qué país sudamericano 
no hay McDonalds?","Bolivia","Venezuela","","0","0","1","competitive","right","1.49997997284","1694.78571081","3.50002002716","1698.44129896","2.48234915733","1700.92371178","3.51765084267","1704.49105692","1705.80043077","1705.87623286","1708.879215","0","1708.89384985","1715.25268698",""
"sujeto_eafb7359","1","2","9","41","1715.41140485","direct","3","1","1","¿En qué año empieza
 la Edad Media?","476","512","","1","1","1","individual","right","1.21458482742","1716.626055","3.78541517258","1720.58555293","4.25251817703","1724.83811092","1.74748182297","1726.6369288","1728.04070377","1728.08713078","1731.09007692","1","1731.10424781","1734.09267688",""
"sujeto_eafb7359","1","2","10","42","1734.24052","inverse","3","1","4","¿Hace cuántos años surgió
 el ser humano?","200mil","300mil","","0","0","0","competitive","left","2.35381102562","1736.59437299","2.64618897438","1739.44498992","5.3094201088","1744.75446987","0.690579891205","1745.48052192","1747.36655784","1747.44836092","1750.45134687","0","1750.46547794","1753.77593184",""
"sujeto_eafb7359","1","2","11","43","1753.93326783","direct","3","1","4","¿Cuántas cuadras tiene
 actualmente 18 de julio? ","36","33","","0","0","1","competitive","left","1.96442389488","1755.89782095","3.03557610512","1759.10639501","3.55832600594","1762.66478086","2.44167399406","1765.15641379","1766.85862494","1766.94066095","1769.94364786","0","1769.95777988","1774.68407393",""
"sujeto_eafb7359","1","2","12","44","1774.82671499","inverse","1","1","4","¿Qué juego de equipo se 
considera mas rápido?","Lacrosse","Badminton","","0","0","0","competitive","left","2.21124815941","1777.038028","2.78875184059","1779.98482299","5.05825591087","1785.04311895","0.941744089127","1786.0188539","1787.26193595","1787.33552289","1790.3384769","0","1790.35369682","1798.34886098",""
"sujeto_eafb7359","1","2","13","45","1798.47094893","direct","1","1","3","¿Qué promedio de edad 
vive una jirafa? ","25","20","","0","0","1","competitive","left","1.78543519974","1800.25644898","3.21456480026","1803.61313581","3.05527496338","1806.66845584","2.94472503662","1809.66324496","1811.42477083","1811.4979918","1814.50097799","0","1814.51511788","1820.4686749",""
"sujeto_eafb7359","1","2","14","46","1820.616961","inverse","1","1","2","¿Cuántos grandes lagos hay?","7","5","","0","0","1","competitive","right","1.51271891594","1822.12974596","3.48728108406","1825.79175186","3.22099804878","1829.012815","2.77900195122","1831.84233499","1833.13449979","1833.21011686","1836.21310687","0","1836.22711682","1844.04469299",""
"sujeto_eafb7359","1","2","15","47","1844.17830181","direct","3","1","2","¿Cuántos discos de estudio
 grabó Johhny Cash? ","54","43","","1","1","0","competitive","right","3.0177628994","1847.19610977","1.9822371006","1849.36752892","3.23560285568","1852.60319901","2.76439714432","1855.40532279","1856.68396497","1856.75612998","1859.759094","1","1859.77405882","1866.42498183",""
"sujeto_eafb7359","1","2","16","48","1866.55896688","inverse","4","1","1","¿Cuántos barrios tiene
 Montevideo? ","71","62","","0","0","1","individual","right","1.42243385315","1867.98144889","3.57756614685","1871.71622181","3.32424592972","1875.04052877","2.67575407028","1877.76503396","1878.772084","1878.81630182","1881.81928301","0","1881.83327389","1887.29529095",""
"sujeto_eafb7359","1","2","17","49","1887.43487191","direct","3","1","3","¿Qué edad tiene Homero Simpson?","36","42","","0","0","1","competitive","right","1.53380417824","1888.96873784","3.46619582176","1892.59209991","1.72466015816","1894.31681895","4.27533984184","1898.64376283","1900.0197258","1900.09505677","1903.09672689","0","1903.11289883","1907.5016818",""
"sujeto_eafb7359","1","2","18","50","1907.63149881","inverse","4","1","2","¿Cuántos países con monarquía 
hay en europa actualmente? ","6","10","","1","1","1","individual","left","1.81349802017","1909.44506097","3.18650197983","1912.7881918","5.37586903572","1918.16410184","0.624130964279","1918.82303095","1920.26065588","1920.30586886","1923.30884194","1","1923.32311296","1929.47665787",""
"sujeto_eafb7359","1","2","19","51","1929.60866094","direct","2","1","3","¿Cuántos capítulos de
 Friends existen? ","236","228","","1","1","1","competitive","left","1.3388800621","1930.94760895","3.6611199379","1934.76567078","3.27273011208","1938.03843999","2.72726988792","1940.81638885","1942.12196589","1942.20130992","1945.2043128","1","1945.21822596","1947.59382081",""
"sujeto_eafb7359","1","2","20","52","1947.71998382","inverse","1","1","3","¿Cuántas óperas compuso Mozart? ","27","22","","1","1","1","competitive","right","1.44760489464","1949.16765189","3.55239510536","1952.87349486","2.75308489799","1955.62663484","3.24691510201","1958.92498779","1960.21661878","1960.29320288","1963.2961688","1","1963.31033897","1970.62069392",""
"sujeto_eafb7359","1","2","21","53","1970.76172781","direct","4","1","3","¿Cuántos mundiales de fútbol 
femenino ha realizado FIFA? ","9","7","","1","1","1","individual","right","3.06622505188","1973.82802486","1.93377494812","1975.92119694","3.73080205917","1979.65203881","2.26919794083","1981.95559192","1983.1992538","1983.23971891","1986.24271297","1","1986.25690484","1992.35932994",""
"sujeto_eafb7359","1","2","22","54","1992.49150801","inverse","3","1","2","¿Cuál es la temperatura 
media anual en Montevideo? ","17.5","16.3","","0","0","1","individual","left","1.95475006104","1994.44630599","3.04524993896","1997.66483879","3.0214009285","2000.68627596","2.9785990715","2003.71626687","2005.65486979","2005.70096397","2008.70393491","0","2008.7190299","2015.288589",""
"sujeto_eafb7359","1","2","23","55","2015.43783498","direct","2","1","2","¿En qué año se estrenó el
 videojuego The Sims? ","2000","2002","","0","0","0","individual","left","1.82170605659","2017.25960398","3.17829394341","2020.60973382","2.54679608345","2023.15661883","3.45320391655","2026.64493585","2028.50692892","2028.54649496","2031.54948592","0","2031.56444979","2038.95810986",""
"sujeto_eafb7359","1","2","24","56","2039.09922791","inverse","2","1","1","¿Cuál es la canción con 
mas covers? ","Yesterday","Stand by me","","0","0","0","individual","left","2.21567678452","2041.31496692","2.78432321548","2044.25513983","3.9307448864","2048.18594193","2.0692551136","2050.30609179","2051.70466089","2051.7410388","2054.74394298","0","2054.75807381","2058.92868686",""
"sujeto_eafb7359","1","2","25","57","2059.05981684","direct","1","1","4","¿Cuánto duró la guerra
 de los 100 años?","116","123","","0","0","0","competitive","left","1.27736902237","2060.33723783","3.72263097763","2064.21678782","3.25743103027","2067.47427797","2.74256896973","2070.26776385","2071.74861193","2071.81942081","2074.82235384","0","2074.83640885","2077.1561799",""
"sujeto_eafb7359","1","2","26","58","2077.3056128","inverse","4","1","4","¿Qué color tiene la  bandera de Brasil?","Amarillo","Naranja","left","0","0","1","individual","left","2.13578510284","2079.44144297","2.86421489716","2082.47605896","5.03941917419","2087.51553798","0.960580825806","2088.5124619","2090.0789969","2090.12970281","2093.13268781","1","2093.14682889","2096.17962885",""
"sujeto_eafb7359","1","2","27","59","2096.31483197","direct","4","1","3","¿Qué carabela de 
Colon no volvió del viaje?","Santa María","La pinta","","0","0","1","individual","left","1.59685492516","2097.91175199","3.40314507484","2101.47135186","4.41831302643","2105.88972783","1.58168697357","2107.5218699","2109.01290178","2109.05601001","2112.05898094","0","2112.07324791","2114.17270494",""
"sujeto_eafb7359","1","2","28","60","2114.30827284","inverse","4","1","4","¿Cuántos huesos tiene
 un adulto humano?","217","206","","0","0","1","individual","right","1.85161304474","2116.15994787","3.14838695526","2119.47905087","2.90590000153","2122.38501787","3.09409999847","2125.53106189","2126.80209684","2126.84900999","2129.8519628","0","2129.86598492","2137.703686",""
"sujeto_eafb7359","1","2","29","61","2137.83452988","direct","1","1","1","¿Qué país africano fue 
fundado por esclavos?","Liberia","Chad","","0","0","0","individual","left","1.07765889168","2138.91223192","3.92234110832","2143.00838995","3.89690208435","2146.90533185","2.10309791565","2149.05970383","2151.05135798","2151.09436393","2154.09731197","0","2154.11245584","2162.10328484",""
"sujeto_eafb7359","1","2","30","62","2162.24686599","inverse","4","1","2","¿A cuánto asciende la cima
 del monte Everest?","7.990 mts","8.848 mts","","0","0","1","individual","right","3.27365398407","2165.5206058","1.72634601593","2167.42164588","3.58687615395","2171.00859189","2.41312384605","2173.47312093","2174.65798187","2174.70821285","2177.71118593","0","2177.72426891","2184.90830588",""
"sujeto_eafb7359","1","2","31","63","2185.0432899","direct","4","1","1","¿Cuál es el país mas chico?","Sealand","Luxemburgo","","1","1","1","individual","left","1.71050786972","2186.75383997","3.28949213028","2190.2010138","3.30877900124","2193.50984979","2.69122099876","2196.23494387","2198.09844899","2198.13595986","2201.13662481","1","2201.1536088","2204.27582979",""
"sujeto_eafb7359","1","2","32","64","2204.421978","inverse","2","1","4","¿Cuántas pirámides hay en Egipto?","10000","11000","","1","1","1","competitive","left","1.47205805779","2205.894099","3.52794194221","2209.5756278","2.95447587967","2212.53016281","3.04552412033","2215.62785983","2216.66142988","2216.74590492","2219.74871278","1","2219.76272082","2224.86868",""
"sujeto_eafb7359","1","3","1","65","2340.76203799","direct","2","1","2","¿Cuál es el quinto país con 
mas extensión?","Canadá","Brasil","","1","1","0","competitive","right","2.20370697975","2342.96581578","2.79629302025","2345.91717601","4.40463113785","2350.3218658","1.59536886215","2351.96756697","2353.30082178","2353.38514495","2356.38810992","1","2356.40223598","2364.12862086","2224.88009"
"sujeto_eafb7359","1","3","2","66","2364.27077389","inverse","1","1","2","¿Qué rasgo facial no tiene
 la Mona Lisa?","Cejas","Pómulos","","0","0","1","competitive","right","1.19428396225","2365.46510291","3.80571603775","2369.42750883","3.88154101372","2373.30908585","2.11845898628","2375.47954583","2377.22870183","2377.31311679","2380.31607485","0","2380.331218","2386.60069084",""
"sujeto_eafb7359","1","3","3","67","2386.73257899","direct","4","1","3","¿Cuál es el país con 
mayor población?","Esados Unidos","China","right","0","0","1","individual","right","1.92329907417","2388.6559279","3.07670092583","2391.9242599","5.44415593147","2397.36848283","0.555844068527","2397.95876193","2399.60474896","2399.65933084","2402.66227579","1","2402.6764648","2406.04063296",""
"sujeto_eafb7359","1","3","4","68","2406.17785692","inverse","1","1","1","La palabra dinosaurio significa","Lagarto Terrible","Lagarto Dragón","","1","1","0","individual","left","1.31265115738","2407.49055481","3.68734884262","2411.3343358","3.2472589016","2414.58163881","2.7527410984","2417.38426399","2418.55457783","2418.6022768","2421.60524893","1","2421.61917186","2424.48100281",""
"sujeto_eafb7359","1","3","5","69","2424.62193799","direct","2","1","3","¿Qué es el membrillero?","Arbol","Arbusto","","0","0","0","competitive","left","1.43981409073","2426.0618","3.56018590927","2429.77705193","4.38279008865","2434.15991092","1.61720991135","2435.82812285","2437.78070188","2437.86244678","2440.86542988","0","2440.87966681","2447.34068799",""
"sujeto_eafb7359","1","3","6","70","2447.48181486","inverse","3","1","3","¿Alrededor de qué planeta orbita 
el satélite Europa?","Jupiter","Saturno","","1","1","1","individual","right","2.1742348671","2449.65609384","2.8257651329","2452.63846588","5.71459293365","2458.35309887","0.285407066345","2458.69049978","2460.23527789","2460.27382493","2463.27676892","1","2463.29199791","2465.4971559",""
"sujeto_eafb7359","1","3","7","71","2465.62701988","direct","3","1","1","¿Donde fue el mundial de 
fútbol de 1954?","Suiza","Suecia","","1","1","1","individual","left","1.34619307518","2466.97325587","3.65380692482","2470.79784298","3.66350698471","2474.46139288","2.33649301529","2476.8485918","2478.1011939","2478.15000081","2481.15295792","1","2481.16793394","2485.07970285",""
"sujeto_eafb7359","1","3","8","72","2485.21903682","inverse","1","1","4","¿Cuál de los 7 enanitos
no tenía barba?","Bashful","Mudito","","1","1","0","competitive","right","2.36747908592","2487.58656096","2.63252091408","2490.3710959","4.86444497108","2495.23558187","1.13555502892","2496.40794086","2497.98804498","2498.05875778","2501.06173301","1","2501.07598495","2506.00069094",""
"sujeto_eafb7359","1","3","9","73","2506.12834287","direct","3","1","2","¿Cual red social es
mas utilizada mundialmente?","Instagram","Facebook","","1","1","0","individual","left","1.62439703941","2507.75278783","3.37560296059","2511.3031528","3.00762605667","2514.3108449","2.99237394333","2517.35303879","2519.2703979","2519.32137895","2522.32435393","1","2522.33951378","2525.2740128",""
"sujeto_eafb7359","1","3","10","74","2525.4250288","inverse","4","1","1","¿Cuándo se inició la copa
 América de fútbol?","1916","1923","","1","1","1","individual","left","2.06492185593","2527.49001193","2.93507814407","2530.57924986","3.32772183418","2533.90703082","2.67227816582","2536.61392999","2538.51135778","2538.54918981","2541.55215883","1","2541.565799","2544.22191",""
"sujeto_eafb7359","1","3","11","75","2544.36819196","direct","3","1","4","¿Cuántos presidentes de EEUU
han muerto asesinados?","3","4","","0","0","1","competitive","left","2.63602018356","2547.00427794","2.36397981644","2549.55366898","2.0725171566","2551.62623692","3.9274828434","2555.606359","2557.09030986","2557.17606091","2560.17667699","0","2560.19224596","2563.83635592",""
"sujeto_eafb7359","1","3","12","76","2563.97747779","inverse","2","1","4","¿Cuántas veces participó EEUU
 en la copa América?","4","5","","0","0","1","competitive","left","1.10693597794","2565.08448386","3.89306402206","2569.15065193","3.78080320358","2572.93149686","2.21919679642","2575.20123386","2576.64471889","2576.71857786","2579.72155881","0","2579.73577189","2585.85295391",""
"sujeto_eafb7359","1","3","13","77","2585.98750782","direct","4","1","1","¿Cuál de estos países 
no formaba la URSS?","Azeribayán","Afganistán","","0","0","1","individual","right","2.05119109154","2588.03876686","2.94880890846","2591.16202784","2.93165588379","2594.09372497","3.06834411621","2597.21228981","2598.52536392","2598.56460881","2601.56756377","0","2601.58070493","2609.56282878",""
"sujeto_eafb7359","1","3","14","78","2609.69954395","inverse","1","1","1","¿En qué año se inauguró
 el teatro Solís?","1867","1856","","0","0","0","individual","left","1.29632091522","2610.99593186","3.70367908478","2614.87347889","3.13751602173","2618.01105499","2.86248397827","2620.92401791","2621.98034883","2622.0263319","2625.0292809","0","2625.04313183","2631.68469977",""
"sujeto_eafb7359","1","3","15","79","2631.82758784","direct","1","1","4","¿A qué velocidad vuela 
el avión más rápido?","3529","3874","","0","0","0","competitive","right","1.5735039711","2633.40115285","3.4264960289","2636.98644686","3.03472590446","2640.02121687","2.96527409554","2643.03646183","2644.79198098","2644.87124181","2647.87419391","0","2647.88911581","2649.9993968",""
"sujeto_eafb7359","1","3","16","80","2650.14015889","inverse","3","1","4","¿De qué año es la primer 
película cinematográfica?","1897","1888","","0","0","0","competitive","left","2.51921987534","2652.65944886","2.48078012466","2655.30865097","3.83775496483","2659.1464448","2.16224503517","2661.36320186","2662.4962008","2662.58077383","2665.58374691","0","2665.59829283","2671.00805998",""
"sujeto_eafb7359","1","3","17","81","2671.14962578","direct","2","1","3","¿Cuántos países 
tiene nuestro planeta?","191","194","","1","1","1","competitive","right","1.52597999573","2672.67567492","3.47402000427","2676.30693579","2.97268795967","2679.27966595","3.02731204033","2682.35692096","2683.71414089","2683.7921648","2686.7951498","1","2686.80938196","2690.04764986",""
"sujeto_eafb7359","1","3","18","82","2690.19379187","inverse","2","1","2","¿Cuántos habitantes
 tiene Buenos Aires?","2.9000.000","3650000","","0","0","0","","","","","","","","","","","","","","","2695.21693683","2701.04631591",""
"sujeto_eafb7359","1","3","19","83","2701.18261695","direct","2","1","1","¿Cuántos kilos forman una tonelada?","1000","1500","left","1","1","1","individual","left","2.5352640152","2703.71792483","2.4647359848","2706.35608482","2.25280094147","2708.60896087","3.74719905853","2712.40561295","2714.29267883","2714.34156895","2717.34453988","1","2717.35872793","2723.31614089",""
"sujeto_eafb7359","1","3","20","84","2723.44354582","inverse","4","1","4","¿Cuántos estados tiene la 
República del Perú? ","24","23","","0","0","1","individual","right","0.910638093948","2724.35422897","4.08936190605","2728.60021281","3.75299191475","2732.35327196","2.24700808525","2734.65176296","2735.67394781","2735.71944594","2738.72241497","0","2738.73579884","2743.68111897",""
"sujeto_eafb7359","1","3","21","85","2743.82053185","direct","3","1","3","¿En qué año nació Cristóbal Colón? ","1451","1447","","0","0","1","competitive","right","2.4668970108","2746.28749394","2.5331029892","2748.99191689","3.4425098896","2752.43446779","2.5574901104","2755.02900982","2756.87491488","2756.94743586","2759.94866395","0","2759.96479893","2764.19279981",""
"sujeto_eafb7359","1","3","22","86","2764.33304286","inverse","4","1","4","¿Cuánto mide la 
Montaña Aconcagua? ","6234","6962","","0","0","1","individual","right","0.999637842178","2765.332726","4.00036215782","2769.48881197","3.13681817055","2772.62567496","2.86318182945","2775.53953195","2776.8286159","2776.8737278","2779.87667584","0","2779.89184594","2787.07550788",""
"sujeto_eafb7359","1","3","23","87","2787.22602582","direct","2","1","4","¿Cuánto mide el punto
 más profundo del océano? ","12508","11003","","0","0","1","competitive","left","1.49578595161","2788.72185397","3.50421404839","2792.38427281","3.46056294441","2795.84487295","2.53943705559","2798.41812086","2799.66966486","2799.75310397","2802.75601196","0","2802.77026796","2806.97654486",""
"sujeto_eafb7359","1","3","24","88","2807.15543294","inverse","1","1","3","¿Cuántos álbumes ha publicado 
el cantante Jaime Roos? ","41","34","","0","0","1","individual","left","1.20063495636","2808.35611486","3.79936504364","2812.31087089","3.06330680847","2815.37421894","2.93669319153","2818.3452239","2819.83501983","2819.879915","2822.88068581","0","2822.89772296","2829.09266996",""
"sujeto_eafb7359","1","3","25","89","2829.23197079","direct","4","1","3","¿En qué año nació el 
ex-presidente Jorge Battle? ","1921","1927","","1","1","1","individual","left","1.37629795074","2830.60831499","3.62370204926","2834.39007878","3.50634002686","2837.89646387","2.49365997314","2840.43823981","2842.16893792","2842.20583391","2845.20881987","1","2845.22395396","2848.71001101",""
"sujeto_eafb7359","1","3","26","90","2848.8588748","inverse","1","1","3","¿Cuántas presidencias 
constitucionales  hubo en Uruguay? ","41","42","","0","0","1","competitive","left","1.32867598534","2850.18762493","3.67132401466","2854.01707578","3.44550895691","2857.46265197","2.55449104309","2860.05044699","2861.25422001","2861.33475685","2864.33774996","0","2864.35190201","2870.13554382",""
"sujeto_eafb7359","1","3","27","91","2870.27090597","direct","1","1","2","¿Quién escribió mas sinfonías?","Mozart","Haydn","","1","1","0","competitive","left","2.99094200134","2873.26189899","2.00905799866","2875.42738581","1.80140805244","2877.22885585","4.19859194756","2881.47779679","2882.69527483","2882.78072691","2885.78370595","1","2885.79734492","2889.54873681",""
"sujeto_eafb7359","1","3","28","92","2889.69851494","inverse","4","1","2","¿En qué año nació Michael Jackson?","1958","1953","","1","1","1","individual","left","1.86817908287","2891.56680679","3.13182091713","2894.88715196","2.48989510536","2897.37710786","3.51010489464","2900.9382689","2902.91645598","2902.95714593","2905.96011186","1","2905.97412586","2911.83269095",""
"sujeto_eafb7359","1","3","29","93","2911.97575784","direct","3","1","2","¿En qué año entró en vigencia 
la ley antitabaco en Uruguay?","2005","2006","","1","1","1","individual","right","2.05547094345","2914.03127789","2.94452905655","2917.13264799","4.90365004539","2922.03635693","1.09634995461","2923.18493795","2924.77969885","2924.81851697","2927.820683","1","2927.83585382","2933.16985679",""
"sujeto_eafb7359","1","3","30","94","2933.30440092","inverse","3","1","1","¿Cuándo se subió el 
primer video a youtube?","2004","2005","","0","0","1","competitive","left","1.03907585144","2934.34354496","3.96092414856","2938.46093297","2.21251797676","2940.67351198","3.78748202324","2944.49348783","2945.79912686","2945.87973285","2948.88271999","0","2948.89703488","2956.652637",""
"sujeto_eafb7359","1","3","31","95","2956.78152394","direct","2","1","1","¿Cuántos habitantes tiene India?","1200 millones","1300 millones","","0","0","0","individual","right","1.01622104645","2957.79779792","3.98377895355","2961.93929291","3.55249786377","2965.49185586","2.44750213623","2967.99027801","2969.95992088","2970.00888395","2973.01185894","0","2973.02600598","2979.07351279",""
"sujeto_eafb7359","1","3","32","96","2979.31055093","inverse","4","1","2","¿A qué edad murió Bob Marley?","36","37","","0","0","1","individual","right","1.26140189171","2980.57199788","3.73859810829","2984.46845579","2.02258396149","2986.49107981","3.97741603851","2990.51800299","2992.41586685","2992.45378995","2995.45677781","0","2995.47172284","2998.57419395",""
"sujeto_eafb7359","1","4","1","97","3158.35692978","direct","2","1","1","¿Cuantos años dirigió la selección 
uruguaya Tabarez?","15 años","13 años","","0","0","0","individual","left","1.79494595528","3160.15191793","3.20505404472","3163.51281786","3.79209685326","3167.30495882","2.20790314674","3169.546556","3170.7377069","3170.78119779","3173.78417087","0","3173.79839683","3180.8704319","2998.585495"
"sujeto_eafb7359","1","4","2","98","3181.00029588","inverse","4","1","1","¿Cuantas teclas tiene un teclado 
de computadora generalmente? ","Entre 99 y 108","Entre 109 y 113","","1","1","1","individual","left","1.38481092453","3182.385185","3.61518907547","3186.17421293","4.39091014862","3190.56518292","1.60908985138","3192.22527194","3193.228019","3193.27590299","3196.27667785","1","3196.29278779","3198.66420698",""
"sujeto_eafb7359","1","4","3","99","3198.79541779","direct","1","1","1","¿Cuál Departamento tiene
 mayor superficie?","Río Negro","Soriano","","0","0","0","individual","left","2.67285203934","3201.46833587","2.32714796066","3203.99790287","3.00143384933","3206.99944782","2.99856615067","3210.05045891","3211.76389694","3211.80269599","3214.80566788","0","3214.82028985","3219.14634681",""
"sujeto_eafb7359","1","4","4","100","3219.28812885","inverse","3","1","2","¿Cuál es el apellido de las 
hermanastras  de  cenicienta?","Tremaine","Truman","","0","0","1","individual","left","1.62629389763","3220.91448498","3.37370610237","3224.46136284","4.36113190651","3228.82253194","1.63886809349","3230.51218987","3232.38171887","3232.42976499","3235.43274379","0","3235.44752598","3238.14346385",""
"sujeto_eafb7359","1","4","5","101","3238.28261089","direct","4","1","4","¿Cuál película ganó un
 Oscar a mejor película?","Alto Impacto","Cache","","0","0","1","individual","left","1.61103081703","3239.8937068","3.38896918297","3243.4382298","4.69550299644","3248.13377595","1.30449700356","3249.48967886","3250.6090579","3250.65644383","3253.65941095","0","3253.67382789","3255.93846488",""
"sujeto_eafb7359","1","4","6","102","3256.07454896","inverse","1","1","3","¿A cuántos centímetros
equivale la medida pié?","25","30","","0","0","1","competitive","left","2.84035515785","3258.91496587","2.15964484215","3261.22733688","4.03155398369","3265.25895786","1.96844601631","3267.26467085","3268.30468392","3268.38259482","3271.38467383","0","3271.39963388","3276.80060697",""
"sujeto_eafb7359","1","4","7","103","3276.93438387","direct","2","1","2","¿Qué departamento es mas grande?","Cerro Largo","Paysandú","","0","0","0","individual","right","1.1757440567","3278.1101799","3.8242559433","3282.090734","2.12741208076","3284.21820378","3.87258791924","3288.14158177","3289.74134493","3289.79363394","3292.79661083","0","3292.81091595","3296.92089081",""
"sujeto_eafb7359","1","4","8","104","3297.04614997","inverse","2","1","3","¿Quién pintó la Mona Lisa?","Picasso","Da Vinci","right","0","0","1","competitive","right","3.20411109924","3300.25033283","1.79588890076","3302.21788478","1.46847009659","3303.68639684","4.53152990341","3308.26841497","3309.87425089","3309.9530549","3312.95603395","1","3312.97118187","3315.13350797",""
"sujeto_eafb7359","1","4","9","105","3315.27287984","direct","4","1","3","¿Cuántos litros hay en un galon?","3.54","3.78","","1","1","1","individual","right","1.50857686996","3316.781528","3.49142313004","3320.44505286","2.23749494553","3322.6826148","3.76250505447","3326.49412394","3328.011971","3328.06324887","3331.066221","1","3331.08021283","3336.87256193",""
"sujeto_eafb7359","1","4","10","106","3337.0160439","inverse","4","1","1","¿Cuántas teclas tiene
 un piano moderno?","80","88","","0","0","1","individual","right","1.4296901226","3338.44577599","3.5703098774","3342.17301297","2.65179491043","3344.82484984","3.34820508957","3348.22259879","3349.2310679","3349.274616","3352.27664995","0","3352.29175782","3359.0895009",""
"sujeto_eafb7359","1","4","11","107","3359.22735786","direct","4","1","3","¿Cuántos países hay en África?","54","62","","0","0","1","individual","left","1.76456689835","3360.99196887","3.23543310165","3364.3854959","1.89746284485","3366.28301787","4.10253715515","3370.41802979","3372.10857677","3372.15369797","3375.15667987","0","3375.17079878","3382.97268391",""
"sujeto_eafb7359","1","4","12","108","3383.12243986","inverse","1","1","3","¿En qué siglo se crearon
 las primeras pistolas?","XV","XIII","","1","1","1","competitive","right","1.36075401306","3384.48325801","3.63924598694","3388.28049183","4.71579003334","3392.99634099","1.28420996666","3394.33146882","3396.27935886","3396.36546183","3399.36844492","1","3399.38260579","3402.61270189",""
"sujeto_eafb7359","1","4","13","109","3402.7511158","direct","3","1","4","¿En qué año se estrenó 
la serie friends?","1994","1995","","0","0","1","competitive","left","1.68800592422","3404.439188","3.31199407578","3407.89014697","2.37895512581","3410.26916385","3.62104487419","3413.92344785","3415.79874682","3415.87489796","3418.87668681","0","3418.8925879","3423.89671397",""
"sujeto_eafb7359","1","4","14","110","3424.02723289","inverse","3","1","4","¿En qué año nació Hitler?","1889","1887","","0","0","1","competitive","right","1.43917584419","3425.46652389","3.56082415581","3429.20166683","3.10416388512","3432.30588794","2.89583611488","3435.24952292","3436.36386585","3436.43378496","3439.43663979","0","3439.45179486","3444.47874188",""
"sujeto_eafb7359","1","4","15","111","3444.61949682","direct","1","1","4","¿Cuánto pesa un elefante Africano?","6000 kilos","5400 kilos","","0","0","0","competitive","left","1.09916186333","3445.71870589","3.90083813667","3449.77818584","2.21844983101","3451.99667597","3.78155016899","3455.82760286","3457.183496","3457.26302195","3460.26602697","0","3460.28032398","3466.98737097",""
"sujeto_eafb7359","1","4","16","112","3467.11483479","inverse","1","1","2","¿Qué porcentaje de 
la población es zurda?","10%","7%","","1","1","0","competitive","right","1.1465959549","3468.26149297","3.8534040451","3472.289608","1.91972208023","3474.20939398","4.08027791977","3478.33845592","3479.58065796","3479.65818691","3482.660707","1","3482.67484879","3488.6545949",""
"sujeto_eafb7359","1","4","17","113","3488.79348278","direct","1","1","2","¿En qué año se estrenó
Volver al futuro?","1984","1985","","0","0","1","competitive","right","1.05376505852","3489.84735489","3.94623494148","3493.96617079","4.25986099243","3498.22606683","1.74013900757","3500.00098801","3501.56279898","3501.63464689","3504.63760281","0","3504.65260577","3511.74405789",""
"sujeto_eafb7359","1","4","18","114","3511.87013793","inverse","3","1","2","¿Cuántos jugadores hay en un 
equipo de baseball?","9","8","","1","1","0","competitive","right","0.861942052841","3512.73212981","4.13805794716","3517.02805901","5.40380191803","3522.43190479","0.59619808197","3523.08046389","3524.69471979","3524.78082991","3527.78378987","1","3527.79780197","3532.77268291",""
"sujeto_eafb7359","1","4","19","115","3532.9156909","direct","2","1","1","¿Cuántos Oscar ganó
 la película titanic?","13","11","","1","1","1","individual","left","2.77210783958","3535.68786287","2.22789216042","3538.10608578","2.4807100296","3540.58683681","3.5192899704","3544.15528393","3545.45735383","3545.5067718","3548.50974178","1","3548.5239408","3553.12658978",""
"sujeto_eafb7359","1","4","20","116","3553.2758708","inverse","4","1","4","¿En qué año comenzó
la segunda guerra mundial?","1939","1976","left","0","0","1","individual","left","1.81580710411","3555.09172487","3.18419289589","3558.46685195","2.16876411438","3560.63567591","3.83123588562","3564.51584196","3566.31564999","3566.3689158","3569.37188292","1","3569.3851738","3573.36864281",""
"sujeto_eafb7359","1","4","21","117","3573.503829","direct","2","1","4","¿Cuántos biomas hay en Uruguay?","5","4","","0","0","1","competitive","right","1.57868504524","3575.08255982","3.42131495476","3578.66012979","2.4962849617","3581.15645695","3.5037150383","3584.69315481","3586.49045682","3586.56132388","3589.56427598","0","3589.5792098","3595.82468081",""
"sujeto_eafb7359","1","4","22","118","3595.96455693","inverse","2","1","3","¿Cuándo murió Pablo Escobar?","1993","1997","","1","1","1","competitive","left","1.43079090118","3597.39541292","3.56920909882","3601.138726","2.47851204872","3603.61727595","3.52148795128","3607.17044997","3608.95327187","3609.03909898","3612.04206085","1","3612.05601287","3617.75968289",""
"sujeto_eafb7359","1","4","23","119","3617.90785694","direct","1","1","4","¿Qué serie ha ganado mas premios?","Friends","Murphy Brown","","1","1","0","competitive","left","1.54429101944","3619.45219684","3.45570898056","3623.06592178","2.665102005","3625.73108196","3.334897995","3629.11539483","3630.46781898","3630.55090594","3633.55389595","1","3633.56805587","3639.12968397",""
"sujeto_eafb7359","1","4","24","120","3639.2696929","inverse","4","1","2","¿Cuántas fichas tiene el dominó?","26","28","","1","1","1","competitive","right","2.36439204216","3641.63413286","2.63560795784","3644.4421618","2.48091888428","3646.92313886","3.51908111572","3650.47716498","3651.53248596","3651.62848282","3654.63148594","1","3654.64566183","3659.88879585",""
"sujeto_eafb7359","1","4","25","121","3660.03042078","direct","2","1","4","¿Cuántos son los dientes de leche?","20","25","","0","0","1","competitive","left","0.881524085999","3660.91200781","4.118475914","3665.20351195","2.93942308426","3668.14300299","3.06057691574","3671.2543819","3672.9647119","3673.03844786","3676.04143381","0","3676.05652285","3678.20226789",""
"sujeto_eafb7359","1","4","26","122","3678.34197688","inverse","3","1","3","¿Cuántos gramos son una onza?","22","28","","0","0","1","competitive","right","0.883983850479","3679.22602892","4.11601614952","3683.5109818","2.45286297798","3685.96391082","3.54713702202","3689.56176782","3691.55662894","3691.64686084","3694.649858","0","3694.66504097","3700.95265484",""
"sujeto_eafb7359","1","4","27","123","3701.09915495","direct","3","1","1","¿Cuándo salió el primer album
 de los Beatles?","1963","1962","","1","1","1","individual","right","1.22167515755","3702.32089782","3.77832484245","3706.29186082","3.18889403343","3709.48081493","2.81110596657","3712.34249592","3713.50612187","3713.54326582","3716.54623389","1","3716.56038594","3720.33241677",""
"sujeto_eafb7359","1","4","28","124","3720.46143579","inverse","3","1","3","¿Quién fundó la empresa apple?","Carlos Slim","Steve Jobs","","1","1","1","competitive","right","1.08129191399","3721.54278088","3.91870808601","3725.61798978","2.43373394012","3728.05178881","3.56626605988","3731.6681459","3732.78282285","3732.85318589","3735.85615182","1","3735.87036681","3742.168226",""
"sujeto_eafb7359","1","4","29","125","3742.32164192","direct","4","1","2","¿Cuántos municipios hay
 en Montevideo?","8","7","","1","1","1","individual","right","1.11696910858","3743.43865585","3.88303089142","3747.47933483","2.1592810154","3749.63865495","3.8407189846","3753.52955484","3755.44435096","3755.48118877","3758.48414278","1","3758.49862695","3760.57975078",""
"sujeto_eafb7359","1","4","30","126","3760.71721292","inverse","1","1","1","¿Cuántos kilómetros hay
 de Montevideo a Artigas?","632","599","","0","0","0","competitive","left","1.11340808868","3761.830688","3.88659191132","3765.90251088","3.17005896568","3769.07263589","2.82994103432","3771.95467997","3773.43782282","3773.52291179","3776.52589679","0","3776.54012585","3782.59224296",""
"sujeto_eafb7359","1","4","31","127","3782.72439885","direct","2","1","2","¿En qué año nació 
Leonardo Da Vinci?","1452","1511","","1","1","0","competitive","right","2.16118884087","3784.88565087","2.83881115913","3787.88388991","2.75367212296","3790.63760591","3.24632787704","3793.933887","3795.78748679","3795.86931801","3798.87230897","1","3798.88646078","3802.03287888",""
"sujeto_eafb7359","1","4","32","128","3802.17170691","inverse","3","1","1","¿A qué continente
 pertenece el país Gabón?","Africa","Oceanía","","0","0","1","competitive","left","0.827860832214","3802.99963593","4.17213916779","3807.32600379","2.76753997803","3810.09360385","3.23246002197","3813.37635899","3815.18803883","3815.26127887","3818.26423979","0","3818.27943397","3823.51730895",""
