"code","nro_aplicante","nro_bloque","nro_trial_bloque","nro_trial_global","show_game_type","choice_order","rival","pay_individual","pay_competitive","question","answer_left_text","answer_right_text","correct_answer","outcome_individual","outcome_competitive","outcome_rival","game_type","answer","social_time","rt_game_type","feedback_delay","show_question","answer_time","rt_answer_global","feedback_delay_2","show_jitter","jitter_time","show_outcome","outcome_time","outcome_participant_real","show_final_jitter","second_jitter_time","inicio_descanso"
"sujeto_d72d8a7c","1","1","1","1","656.099725962","direct","3","1","4","¿Cuántos centímetros corresponden
al talle 36 del calzado?","23","24","","0","0","1","competitive","right","3.97054505348","660.070338011","1.02945494652","661.254541874","4.4697599411","665.724372864","1.5302400589","667.305478811","668.333745956","668.406185865","671.409135818","0","671.423017979","673.585551023",""
"sujeto_d72d8a7c","1","1","2","2","673.726614952","inverse","3","1","2","¿Cuántas metros mide la Intendencia
Municipal de Montevideo? ","84","78","","0","0","1","competitive","left","3.48270201683","677.209360838","1.51729798317","678.87962389","4.25771021843","683.137372971","1.74228978157","684.931775808","686.809791803","686.88220787","689.885138988","0","689.900346994","691.993134975",""
"sujeto_d72d8a7c","1","1","3","3","692.133761883","direct","1","1","3","¿Cuántas La Pasiva
 hay en uruguay?","15","11","","1","1","1","competitive","left","2.47857880592","694.612402916","2.52142119408","697.289366007","4.1710319519","701.460443974","1.8289680481","703.340902805","704.952575922","705.025062799","708.028028011","1","708.042051792","712.32040596",""
"sujeto_d72d8a7c","1","1","4","4","712.448081017","inverse","3","1","3","¿De que color es la camiseta de uruguay?","blanca","celeste","right","1","1","1","competitive","right","3.28437709808","715.732500792","1.71562290192","717.597697973","2.21975207329","719.817514896","3.78024792671","723.65069294","724.855439901","724.935537815","727.938483","1","727.952519894","731.406435013",""
"sujeto_d72d8a7c","1","1","5","5","731.538074017","direct","2","1","1","¿Cuánto metros mide
la torre Eiffel?","333","324","","1","1","1","individual","right","2.99138402939","734.529527903","2.00861597061","736.692932844","4.77353191376","741.466502905","1.22646808624","742.744812965","744.266201973","744.311570883","747.314543009","1","747.329691887","754.366369009",""
"sujeto_d72d8a7c","1","1","6","6","754.501106977","inverse","3","1","4","¿Cuantas ciudades existen
 en todo el uruguay?","63","72","","0","0","1","competitive","right","1.7943341732","756.29548502","3.2056658268","759.655372858","5.83713984489","765.492553949","0.162860155106","765.707269907","766.762103796","766.840086937","769.843070984","0","769.857150793","777.483741999",""
"sujeto_d72d8a7c","1","1","7","7","777.60875392","direct","1","1","1","¿Cuantos estados tiene África?","52","54","","1","1","0","individual","right","3.36475777626","780.973550797","1.63524222374","782.766660929","4.7639708519","787.530690908","1.2360291481","788.802164793","790.666200876","790.702354908","793.705339909","1","793.719485998","799.48048687",""
"sujeto_d72d8a7c","1","1","8","8","799.622264862","inverse","4","1","4","¿En qué año nació
 Stephen Hawking?","1952","1942","","0","0","1","competitive","left","2.38445401192","802.006770849","2.61554598808","804.793524981","3.40215611458","808.19572401","2.59784388542","810.846174002","812.29042387","812.364143848","815.367110014","0","815.381043911","821.479762793",""
"sujeto_d72d8a7c","1","1","9","9","821.619217873","direct","2","1","3","¿Cuánto años tenía Artigas
 cuando se fue a Paraguay?","56","57","","1","1","1","competitive","left","2.61747097969","824.23673296","2.38252902031","826.787405968","4.80128288269","831.588728905","1.19871711731","832.841418982","834.390906811","834.458653927","837.461581945","1","837.47645402","843.523752928",""
"sujeto_d72d8a7c","1","1","10","10","843.648502827","inverse","1","1","2","¿Cuantos milímetros 
mide una hoja A2?","420x592","420x594","","0","0","1","competitive","","4.13924789429","847.787813902","0.860752105713","848.785712957","6","854.785856962","0","854.803263903","856.371680021","856.453493834","859.456413984","0","859.471009016","866.544627905",""
"sujeto_d72d8a7c","1","1","11","11","866.674300909","direct","3","1","3","¿Cuál es la menor temperatura 
registrada en Uruguay?","-5.4","-7.4","","0","0","1","competitive","left","1.49556994438","868.169914961","3.50443005562","871.830515862","3.15531992912","874.985877991","2.84468007088","877.880627871","879.562652826","879.648910999","882.651888847","0","882.665452003","886.39872098",""
"sujeto_d72d8a7c","1","1","12","12","886.553021908","inverse","2","1","2","¿Cuantos años hace que 
se fundó facebook?","18","17","","0","0","0","competitive","left","2.26987910271","888.822964907","2.73012089729","891.721536875","4.95533490181","896.676913977","1.04466509819","897.77334094","899.146075964","899.22337079","902.226348877","0","902.240794897","905.015438795",""
"sujeto_d72d8a7c","1","1","13","13","905.160740852","direct","1","1","4","¿Cuál animal es más
 pesado en promedio?","Rinoceronte","Hipopotamo","","0","0","0","competitive","left","1.85824489594","907.019032955","3.14175510406","910.383476019","4.78849506378","915.172029972","1.21150493622","916.434329987","917.513574839","917.585472822","920.587768793","0","920.601855993","924.442830801",""
"sujeto_d72d8a7c","1","1","14","14","924.572395802","inverse","1","1","2","¿Qué personaje de dragon ball 
murió más veces?","Chaoz","Krillin","","1","1","0","competitive","left","3.1176071167","927.690073967","1.8823928833","929.72663188","4.46831893921","934.195015907","1.53168106079","935.778002024","937.235802889","937.311922789","940.314883947","1","940.329341888","948.099803925",""
"sujeto_d72d8a7c","1","1","15","15","948.231724977","direct","3","1","2","La universidad de oxford. 
existe desde:","1096","1249","","1","1","0","competitive","left","2.02132296562","950.253108025","2.97867703438","953.389446974","4.64164280891","958.031131983","1.35835719109","959.424031973","960.472829819","960.557330847","963.560315847","1","963.574504852","970.265372992",""
"sujeto_d72d8a7c","1","1","16","16","970.396306992","inverse","3","1","1","¿Qué escritor latino ganó antes
 el premio nobel?"," García Marquez","Neruda","","0","0","1","individual","left","1.43978714943","971.836139917","3.56021285057","975.54982996","3.29024505615","978.840137005","2.70975494385","981.60014081","983.339815855","983.38566494","986.388633966","0","986.40258193","989.863087893",""
"sujeto_d72d8a7c","1","1","17","17","990.003574848","direct","4","1","3","¿Cuántos dientes tiene un
 tiburón blanco?","6000","3000","","0","0","1","competitive","right","1.46959590912","991.473222017","3.53040409088","995.143147945","2.76702213287","997.910226822","3.23297786713","1001.19326901","1002.23226595","1002.312325","1005.31531096","0","1005.32947397","1010.13912392",""
"sujeto_d72d8a7c","1","1","18","18","1010.26455784","inverse","4","1","1","¿Cuánto mide el paralelo Ecuador?","40.000km","70.000km","","0","0","1","individual","right","1.37663793564","1011.64126682","3.62336206436","1015.42068291","4.67453503609","1020.09528399","1.32546496391","1021.45596886","1023.41207981","1023.45614886","1026.4590919","0","1026.47315001","1030.07572293",""
"sujeto_d72d8a7c","1","1","19","19","1030.20869493","direct","4","1","2","¿Cuál fue el primer libro 
de Stephen King?","Carrie","The Stand","","1","1","1","competitive","left","1.66159510612","1031.87036395","3.33840489388","1035.36451888","3.86775398254","1039.23233891","2.13224601746","1041.41507602","1043.15916085","1043.23343182","1046.23639584","1","1046.25036597","1050.72380686",""
"sujeto_d72d8a7c","1","1","20","20","1050.85428786","inverse","2","1","3","¿Qué civilización practicaba
 la momificación?","Grecia","Egipto","right","0","0","1","competitive","left","1.79103183746","1052.64536285","3.20896816254","1056.00903702","3.2882630825","1059.29733896","2.7117369175","1062.05867696","1063.99792886","1064.076401","1067.07935596","0","1067.0933218","1071.32211185",""
"sujeto_d72d8a7c","1","1","21","21","1071.46394801","direct","4","1","4","¿Cuántos millones de visitas
 recibe google por minuto?","3.0","4.5","","0","0","1","competitive","right","1.29846692085","1072.76248693","3.70153307915","1076.61892581","4.04350495338","1080.66246986","1.95649504662","1082.65339184","1084.16825581","1084.25421","1087.25719881","0","1087.27132988","1094.39395881",""
"sujeto_d72d8a7c","1","1","22","22","1094.52594781","inverse","1","1","3","La máquina de fax. se inventó en:","1843","1960","","0","0","1","competitive","right","1.50742411613","1096.03342986","3.49257588387","1099.66457295","2.79892206192","1102.46353889","3.20107793808","1105.71426797","1106.95634198","1107.03266883","1110.03565192","0","1110.04999495","1113.28379393",""
"sujeto_d72d8a7c","1","1","23","23","1113.418401","direct","2","1","4","En la verdadera historia de los
 300 espartanos. habían:","300 soldados","4300 soldados","","1","1","1","competitive","left","1.27405595779","1114.69250083","3.72594404221","1118.57405782","5.19637203217","1123.77047181","0.803627967834","1124.62577486","1125.88699889","1125.9587388","1128.96171498","1","1128.97672486","1132.77846599",""
"sujeto_d72d8a7c","1","1","24","24","1132.91203594","inverse","1","1","4","¿Cuántos milímetros crece
 el pelo por día?","0.4","0.04","","0","0","0","competitive","right","1.60750603676","1134.51961493","3.39249396324","1138.06800199","3.47451496124","1141.54255581","2.52548503876","1144.11627293","1145.87698984","1145.95103288","1148.95401382","0","1148.96832991","1155.7034018",""
"sujeto_d72d8a7c","1","1","25","25","1155.84033084","direct","4","1","1","¿Cuánto mide la baldosa gris 
clásica de Montevideo?","22x22 cm.","20x20 cm.","","1","1","1","individual","right","1.72529101372","1157.56568289","3.27470898628","1160.9967978","3.26981592178","1164.26665688","2.73018407822","1167.046103","1169.04134679","1169.08160591","1172.08455181","1","1172.09867382","1177.641469",""
"sujeto_d72d8a7c","1","1","26","26","1177.766644","inverse","2","1","2","¿Cuántas películas de rápidos
 y furiosos hay?","10","11","","1","1","0","competitive","right","2.09202194214","1179.85871696","2.90797805786","1182.92434096","2.8013780117","1185.72575784","3.1986219883","1188.97425485","1190.33186102","1190.40991688","1193.41180086","1","1193.42655492","1195.45977783",""
"sujeto_d72d8a7c","1","1","27","27","1195.59526992","direct","3","1","1","¿Cuántos masters 1000
 ganó Del Potro?","1","2","","1","1","1","individual","right","1.67251300812","1197.26782584","3.32748699188","1200.73345184","3.50826692581","1204.24178195","2.49173307419","1206.7843349","1208.53891301","1208.58580279","1211.58777094","1","1211.60272884","1218.99908996",""
"sujeto_d72d8a7c","1","1","28","28","1219.14182186","inverse","2","1","4","¿Cuántos meses dura el 
embarazo de una leona?","3 meses","4 meses","","0","0","1","competitive","left","1.30595302582","1220.44787192","3.69404697418","1224.29229999","3.50358009338","1227.7959199","2.49641990662","1230.34466887","1231.45570779","1231.52951288","1234.53249979","0","1234.5464859","1241.26896882",""
"sujeto_d72d8a7c","1","1","29","29","1241.40255284","direct","1","1","1","¿En qué año fue creado
 el sandwich?","1762","1653","","1","1","0","individual","right","1.24033093452","1242.64292884","3.75966906548","1246.55614686","2.94966387749","1249.50585079","3.05033612251","1252.60718989","1254.20569992","1254.24255085","1257.2437458","1","1257.25988698","1260.72774792",""
"sujeto_d72d8a7c","1","1","30","30","1260.86128688","inverse","4","1","2","El nombre de la moneda de Vietnam es:","Dinar","Dong","","0","0","1","competitive","right","1.85464096069","1262.71598983","3.14535903931","1266.01756096","3.70635414124","1269.72395182","2.29364585876","1272.06844592","1273.49974084","1273.58624101","1276.58917284","0","1276.60332799","1282.7677958",""
"sujeto_d72d8a7c","1","1","31","31","1282.9397428","direct","2","1","1","¿cuantos aleteos puede dar 
un colibrí por segundo?","120","50","","0","0","0","individual","right","2.07323503494","1285.01302099","2.92676496506","1288.09349298","3.94445109367","1292.03798485","2.05554890633","1294.12915683","1295.86153197","1295.89677191","1298.89974499","0","1298.91412687","1303.12640285",""
"sujeto_d72d8a7c","1","1","32","32","1303.26589179","inverse","4","1","3","¿Qué altura promedio tienen
 los hombres uruguayos?","1.73 m","1.72 m","","1","1","1","competitive","left","1.31812787056","1304.58406496","3.68187212944","1308.41887093","3.1661567688","1311.58508801","2.8338432312","1314.47033501","1315.7327559","1315.80587792","1318.80885482","1","1318.82309794","1323.29579902",""
"sujeto_d72d8a7c","1","2","1","33","1490.33287883","direct","1","1","1","¿En qué año nació 
el actor Bradd Pitt?","1967","1963","","1","1","1","competitive","left","2.82398295403","1493.15692282","2.17601704597","1495.51864195","3.36037707329","1498.87907887","2.63962292671","1501.57201195","1502.66788483","1502.73906589","1505.74203801","1","1505.75627685","1511.68382883","1323.30734181"
"sujeto_d72d8a7c","1","2","2","34","1511.82742","inverse","2","1","1","¿Cual es el segundo 
monte más alto?","Kanchenjunga","K2","","1","1","1","individual","left","2.8520359993","1514.67952394","2.1479640007","1516.99618793","3.40033984184","1520.39659095","2.59966015816","1523.03315902","1524.48555493","1524.53420091","1527.53717184","1","1527.55229092","1530.98218799",""
"sujeto_d72d8a7c","1","2","3","35","1531.1205399","direct","3","1","1","¿Cuándo finalizó la construcción
 del Palacio Legislativo?","1925","1917","","0","0","1","individual","right","1.591329813","1532.71190691","3.408670187","1536.27610588","3.12403082848","1539.40017581","2.87596917152","1542.30792999","1543.94963479","1543.99306893","1546.99605799","0","1547.01044583","1552.70778799",""
"sujeto_d72d8a7c","1","2","4","36","1552.82884288","inverse","3","1","3","¿Cuántos integrantes tenía
 en su inicio  el cuarteto de nos?","3","4","","1","1","1","competitive","right","1.03164982796","1553.86056781","3.96835017204","1557.98752999","3.36009216309","1561.34768987","2.63990783691","1564.02168798","1565.15478492","1565.23999691","1568.24298","1","1568.25609493","1573.90587687",""
"sujeto_d72d8a7c","1","2","5","37","1574.06092286","direct","2","1","3","¿Qué valor tiene el número pi?","3.14","4.18","left","0","0","1","competitive","left","1.67806696892","1575.7390368","3.32193303108","1579.21546292","2.40366888046","1581.61917496","3.59633111954","1585.26601195","1586.7202239","1586.80167699","1589.80463481","1","1589.81887102","1596.73985696",""
"sujeto_d72d8a7c","1","2","6","38","1596.87020779","inverse","2","1","2","¿Cuál es la esperanza de vida
 en Uruguay?","75","77","","1","1","0","competitive","right","2.30736207962","1599.17763495","2.69263792038","1602.0450778","3.21751999855","1605.26263785","2.78248000145","1608.09536982","1609.74775982","1609.8309319","1612.83386993","1","1612.84790301","1619.30779099",""
"sujeto_d72d8a7c","1","2","7","39","1619.44875288","direct","1","1","2","¿Cuantos pisos tiene la torre 
de las comunicaciones?","26","32","","1","1","0","competitive","right","2.53531289101","1621.98410988","2.46468710899","1624.60545301","3.99079108238","1628.59630394","2.00920891762","1630.65855289","1632.48736191","1632.55926585","1635.56223297","1","1635.57620096","1637.7223959",""
"sujeto_d72d8a7c","1","2","8","40","1637.84537792","inverse","2","1","4","¿En qué país sudamericano 
no hay McDonalds?","Bolivia","Venezuela","","0","0","1","competitive","left","1.40713191032","1639.25258183","3.59286808968","1642.99970484","3.15992999077","1646.15972996","2.84007000923","1649.03346491","1650.3427918","1650.41865301","1653.42162681","0","1653.43628979","1659.79601502",""
"sujeto_d72d8a7c","1","2","9","41","1659.92113686","direct","3","1","1","¿En qué año empieza
 la Edad Media?","476","512","","1","1","1","individual","right","1.34277892113","1661.26396799","3.65722107887","1665.07847285","3.54762506485","1668.62613702","2.45237493515","1671.11254096","1672.51628089","1672.56411099","1675.56702685","1","1675.58118796","1678.56974792",""
"sujeto_d72d8a7c","1","2","10","42","1678.71494389","inverse","3","1","4","¿Hace cuántos años surgió
 el ser humano?","200mil","300mil","","0","0","0","competitive","left","1.91840291023","1680.63339496","3.08159708977","1683.88655782","3.21997189522","1687.10659099","2.78002810478","1689.9394269","1691.82543302","1691.90706801","1694.91004896","0","1694.92530298","1698.23578286",""
"sujeto_d72d8a7c","1","2","11","43","1698.37817502","direct","3","1","4","¿Cuántas cuadras tiene
 actualmente 18 de julio? ","36","33","","0","0","1","competitive","left","2.81956410408","1701.19781089","2.18043589592","1703.563241","3.83365416527","1707.39693379","2.16634583473","1709.61507082","1711.3173089","1711.39941192","1714.40239596","0","1714.416677","1719.14293981",""
"sujeto_d72d8a7c","1","2","12","44","1719.28774881","inverse","1","1","4","¿Qué juego de equipo se 
considera mas rápido?","Lacrosse","Badminton","","0","0","0","competitive","right","1.67137789726","1720.95918798","3.32862210274","1724.4600718","3.18825602531","1727.64838696","2.81174397469","1730.51076889","1731.75387192","1731.82933879","1734.83231282","0","1734.84560084","1742.84075499",""
"sujeto_d72d8a7c","1","2","13","45","1742.9854548","direct","1","1","3","¿Qué promedio de edad 
vive una jirafa? ","25","20","","0","0","1","competitive","left","1.48616909981","1744.47169781","3.51383090019","1748.14036584","3.44143486023","1751.58186293","2.55856513977","1754.19004679","1755.95120192","1756.02476883","1759.02772284","0","1759.04199886","1764.99773002",""
"sujeto_d72d8a7c","1","2","14","46","1765.13084292","inverse","1","1","2","¿Cuántos grandes lagos hay?","7","5","","0","0","1","competitive","left","1.72517299652","1766.85608292","3.27482700348","1770.2846818","4.05745506287","1774.34218097","1.94254493713","1776.31897283","1777.61109185","1777.68692183","1780.689924","0","1780.70390987","1788.52378798",""
"sujeto_d72d8a7c","1","2","15","47","1788.655509","direct","3","1","2","¿Cuántos discos de estudio
 grabó Johhny Cash? ","54","43","","1","1","0","competitive","left","2.13894701004","1790.79450393","2.86105298996","1793.83048081","3.27108502388","1797.10162497","2.72891497612","1799.88087487","1801.15945387","1801.23319697","1804.23574686","1","1804.249686","1810.89972281",""
"sujeto_d72d8a7c","1","2","16","48","1811.05111194","inverse","4","1","1","¿Cuántos barrios tiene
 Montevideo? ","71","62","","0","0","1","individual","right","1.28977608681","1812.34095192","3.71022391319","1816.18917489","2.38673901558","1818.57595396","3.61326098442","1822.240556","1823.24763179","1823.29280186","1826.29580092","0","1826.30989385","1831.7719388",""
"sujeto_d72d8a7c","1","2","17","49","1831.93085194","direct","3","1","3","¿Qué edad tiene Homero Simpson?","36","42","","0","0","1","competitive","right","2.78640317917","1834.71731901","2.21359682083","1837.08337879","3.145829916","1840.2292459","2.854170084","1843.12055898","1844.49658489","1844.57266593","1847.575634","0","1847.5898838","1851.97863293",""
"sujeto_d72d8a7c","1","2","18","50","1852.10739183","inverse","4","1","2","¿Cuántos países con monarquía 
hay en europa actualmente? ","6","10","","1","1","1","individual","right","4.78719496727","1856.89465284","0.21280503273","1857.26234484","5.16936397552","1862.43177295","0.830636024475","1863.3155129","1864.75376987","1864.79957581","1867.80257988","1","1867.81661987","1873.97343683",""
"sujeto_d72d8a7c","1","2","19","51","1874.12140393","direct","2","1","3","¿Cuántos capítulos de
 Friends existen? ","236","228","","1","1","1","competitive","left","1.73944997787","1875.8609159","3.26055002213","1879.25911093","4.1108379364","1883.36998796","1.8891620636","1885.29359889","1886.59917092","1886.67800593","1889.68094182","1","1889.69484687","1892.07048082",""
"sujeto_d72d8a7c","1","2","20","52","1892.19735193","inverse","1","1","3","¿Cuántas óperas compuso Mozart? ","27","22","","1","1","1","competitive","right","2.51486206055","1894.7122798","2.48513793945","1897.38379788","3.63546085358","1901.01929784","2.36453914642","1903.42026281","1904.71174192","1904.78772187","1907.79067802","1","1907.80494189","1915.11574101",""
"sujeto_d72d8a7c","1","2","21","53","1915.25754595","direct","4","1","3","¿Cuántos mundiales de fútbol 
femenino ha realizado FIFA? ","9","7","","1","1","1","competitive","right","1.65797281265","1916.91556287","3.34202718735","1920.39772892","3.56687903404","1923.96464896","2.43312096596","1926.448632","1927.69231701","1927.76566291","1930.76861882","1","1930.78382897","1936.88628793",""
"sujeto_d72d8a7c","1","2","22","54","1937.02053189","inverse","3","1","2","¿Cuál es la temperatura 
media anual en Montevideo? ","17.5","16.3","","0","0","1","competitive","left","1.75534391403","1938.77591896","3.24465608597","1942.15923595","4.5667579174","1946.72605586","1.4332420826","1948.21048689","1950.14781284","1950.22774386","1953.23068094","0","1953.24560094","1959.81510997",""
"sujeto_d72d8a7c","1","2","23","55","1959.94701195","direct","2","1","2","¿En qué año se estrenó el
 videojuego The Sims? ","2000","2002","","0","0","0","competitive","right","2.75917601585","1962.70625496","2.24082398415","1965.13408399","3.43618702888","1968.57031202","2.56381297112","1971.17234302","1973.03432083","1973.10662889","1976.10776401","0","1976.12473798","1983.51835084",""
"sujeto_d72d8a7c","1","2","24","56","1983.65966487","inverse","2","1","1","¿Cuál es la canción con 
mas covers? ","Yesterday","Stand by me","","0","0","0","individual","right","1.5269010067","1985.18662882","3.4730989933","1988.80073595","3.08387207985","1991.88466883","2.91612792015","1994.84887099","1996.24745584","1996.28411579","1999.28708792","0","1999.30127192","2003.4721148",""
"sujeto_d72d8a7c","1","2","25","57","2003.60328293","direct","1","1","4","¿Cuánto duró la guerra
 de los 100 años?","116","123","","0","0","0","competitive","left","1.49253296852","2005.09588981","3.50746703148","2008.7615788","3.49030208588","2012.25194693","2.50969791412","2014.81112289","2016.29195881","2016.36285591","2019.36581683","0","2019.38005996","2021.69982481",""
"sujeto_d72d8a7c","1","2","26","58","2021.86673093","inverse","4","1","4","¿Qué color tiene la  bandera de Brasil?","Amarillo","Naranja","left","0","0","1","competitive","left","1.17225909233","2023.03905702","3.82774090767","2027.037287","3.87979602814","2030.91712093","2.12020397186","2033.07115579","2034.63768601","2034.72289085","2037.72378993","1","2037.73980093","2040.77181888",""
"sujeto_d72d8a7c","1","2","27","59","2040.92273092","direct","4","1","3","¿Qué carabela de 
Colon no volvió del viaje?","Santa María","La pinta","","0","0","1","competitive","right","1.5115737915","2042.43434787","3.4884262085","2046.08069491","3.97467780113","2050.05541587","2.02532219887","2052.11250496","2053.60353088","2053.68121791","2056.68377781","0","2056.69809794","2058.79756594",""
"sujeto_d72d8a7c","1","2","28","60","2058.93385983","inverse","4","1","4","¿Cuántos huesos tiene
 un adulto humano?","217","206","","0","0","1","competitive","right","1.26053404808","2060.19442892","3.73946595192","2064.08977294","2.23682308197","2066.32665396","3.76317691803","2070.14058399","2071.41160083","2071.49189687","2074.49488497","0","2074.50900483","2082.3437829",""
"sujeto_d72d8a7c","1","2","29","61","2082.49407887","direct","1","1","1","¿Qué país africano fue 
fundado por esclavos?","Liberia","Chad","","0","0","0","individual","left","1.7527320385","2084.24688101","3.2472679615","2087.63576794","3.26207613945","2090.89790702","2.73792386055","2093.67005992","2095.6617229","2095.7043879","2098.70735502","0","2098.721591","2106.71244502",""
"sujeto_d72d8a7c","1","2","30","62","2106.87400699","inverse","4","1","2","¿A cuánto asciende la cima
 del monte Everest?","7.990 mts","8.848 mts","","0","0","1","competitive","left","1.91316509247","2108.7872529","3.08683490753","2112.04859591","4.48057889938","2116.52921796","1.51942110062","2118.09976983","2119.28374982","2119.36724901","2122.36778498","0","2122.38486385","2129.56774998",""
"sujeto_d72d8a7c","1","2","31","63","2129.70317292","direct","4","1","1","¿Cuál es el país mas chico?","Sealand","Luxemburgo","","1","1","1","individual","left","1.74425792694","2131.44749379","3.25574207306","2134.87774682","2.98363995552","2137.8614428","3.01636004448","2140.92803693","2142.7915709","2142.82934189","2145.83230782","1","2145.84733391","2148.96961689",""
"sujeto_d72d8a7c","1","2","32","64","2149.11666393","inverse","2","1","4","¿Cuántas pirámides hay en Egipto?","10000","11000","","1","1","1","competitive","right","1.31996917725","2150.43669295","3.68003082275","2154.270751","2.72594714165","2156.99674201","3.27405285835","2160.32093382","2161.35450602","2161.43941498","2164.44239879","1","2164.45656586","2169.56565595",""
"sujeto_d72d8a7c","1","3","1","65","2293.84239793","direct","2","1","2","¿Cuál es el quinto país con 
mas extensión?","Canadá","Brasil","","1","1","0","competitive","right","1.28484392166","2295.12730384","3.71515607834","2298.99403095","2.80721282959","2301.80129886","3.19278717041","2305.04534388","2306.37863779","2306.46468091","2309.4677","1","2309.48178291","2317.20817494","2169.57705283"
"sujeto_d72d8a7c","1","3","2","66","2317.33266187","inverse","1","1","2","¿Qué rasgo facial no tiene
 la Mona Lisa?","Cejas","Pómulos","","0","0","1","competitive","left","1.15183401108","2318.4845438","3.84816598892","2322.49296188","4.03350090981","2326.52650094","1.96649909019","2328.54362988","2330.29404688","2330.37785983","2333.3798089","0","2333.39498997","2339.66633892",""
"sujeto_d72d8a7c","1","3","3","67","2339.79713392","direct","4","1","3","¿Cuál es el país con 
mayor población?","Esados Unidos","China","right","0","0","1","competitive","right","1.43250393867","2341.22970796","3.56749606133","2344.95470881","2.21699404716","2347.17174196","3.78300595284","2351.00383687","2352.64984488","2352.74043298","2355.74342489","1","2355.75753284","2359.12485695",""
"sujeto_d72d8a7c","1","3","4","68","2359.25845599","inverse","1","1","1","La palabra dinosaurio significa","Lagarto Terrible","Lagarto Dragón","","1","1","0","competitive","left","1.71343111992","2360.9719348","3.28656888008","2364.41474795","3.53018712997","2367.94497991","2.46981287003","2370.46527886","2371.63561082","2371.71675301","2374.71974087","1","2374.73366094","2377.59549093",""
"sujeto_d72d8a7c","1","3","5","69","2377.73724699","direct","2","1","3","¿Qué es el membrillero?","Arbol","Arbusto","","0","0","0","competitive","left","1.5107820034","2379.24809098","3.4892179966","2382.89141488","3.58961987495","2386.48109102","2.41038012505","2388.94169092","2390.89579201","2390.97593999","2393.97895789","0","2393.99423981","2400.4557488",""
"sujeto_d72d8a7c","1","3","6","70","2400.59819293","inverse","3","1","3","¿Alrededor de qué planeta orbita 
el satélite Europa?","Jupiter","Saturno","","1","1","1","competitive","right","1.31504797935","2401.91328287","3.68495202065","2405.75299001","5.05334305763","2410.80639291","0.946656942368","2411.80463696","2413.34940386","2413.42167997","2416.42466593","1","2416.43887782","2418.64379001",""
"sujeto_d72d8a7c","1","3","7","71","2418.790874","direct","3","1","1","¿Donde fue el mundial de 
fútbol de 1954?","Suiza","Suecia","","1","1","1","individual","right","1.47555708885","2420.26647282","3.52444291115","2423.945714","3.09975504875","2427.04552579","2.90024495125","2429.99686098","2431.24941802","2431.29804492","2434.29974699","1","2434.31555295","2438.22736192",""
"sujeto_d72d8a7c","1","3","8","72","2438.36645889","inverse","1","1","4","¿Cuál de los 7 enanitos
no tenía barba?","Bashful","Mudito","","1","1","0","competitive","left","1.04014492035","2439.40667081","3.95985507965","2443.50346088","3.01214194298","2446.5156889","2.98785805702","2449.53894687","2451.11906981","2451.19085193","2454.19383502","1","2454.207757","2459.13683987",""
"sujeto_d72d8a7c","1","3","9","73","2459.27909994","direct","3","1","2","¿Cual red social es
mas utilizada mundialmente?","Instagram","Facebook","","1","1","0","competitive","left","2.17773318291","2461.45687985","2.82226681709","2464.44791579","2.57197499275","2467.01993084","3.42802500725","2470.50087595","2472.41825294","2472.50278997","2475.50574589","1","2475.52085185","2478.45534587",""
"sujeto_d72d8a7c","1","3","10","74","2478.59040093","inverse","4","1","1","¿Cuándo se inició la copa
 América de fútbol?","1916","1923","","1","1","1","competitive","right","0.114567041397","2478.70502901","4.8854329586","2483.75977087","2.70822286606","2486.46805","3.29177713394","2489.81130981","2491.7087779","2491.79552293","2494.795789","1","2494.81298995","2497.46910787",""
"sujeto_d72d8a7c","1","3","11","75","2497.63139391","direct","3","1","4","¿Cuántos presidentes de EEUU
han muerto asesinados?","3","4","","0","0","1","competitive","right","2.16077589989","2499.79223299","2.83922410011","2502.80356693","3.19463706017","2505.99826789","2.80536293983","2508.83809185","2510.32201481","2510.40629387","2513.40927601","0","2513.42323685","2517.06734586",""
"sujeto_d72d8a7c","1","3","12","76","2517.2438159","inverse","2","1","4","¿Cuántas veces participó EEUU
 en la copa América?","4","5","","0","0","1","competitive","left","1.0185379982","2518.26240492","3.9814620018","2522.38027501","4.3290719986","2526.709409","1.6709280014","2528.41490197","2529.85897684","2529.93247294","2532.93541002","0","2532.9495008","2539.06664896",""
"sujeto_d72d8a7c","1","3","13","77","2539.20152783","direct","4","1","1","¿Cuál de estos países 
no formaba la URSS?","Azeribayán","Afganistán","","0","0","1","individual","right","1.35700893402","2540.55858493","3.64299106598","2544.35899091","1.95043802261","2546.30946779","4.04956197739","2550.40889597","2551.72197294","2551.76127386","2554.76424289","0","2554.77749181","2562.75961089",""
"sujeto_d72d8a7c","1","3","14","78","2562.89617491","inverse","1","1","1","¿En qué año se inauguró
 el teatro Solís?","1867","1856","","0","0","0","competitive","left","1.40851283073","2564.30474496","3.59148716927","2568.03809381","3.89860105515","2571.93673301","2.10139894485","2574.08928084","2575.14558983","2575.22327685","2578.223768","0","2578.24079084","2584.88860083",""
"sujeto_d72d8a7c","1","3","15","79","2585.027354","direct","1","1","4","¿A qué velocidad vuela 
el avión más rápido?","3529","3874","","0","0","0","competitive","right","1.35263204575","2586.38005185","3.64736795425","2590.18293786","3.86097788811","2594.04395485","2.13902211189","2596.21672082","2597.97179985","2598.0513618","2601.05434895","0","2601.06833887","2603.17862296",""
"sujeto_d72d8a7c","1","3","16","80","2603.32047582","inverse","3","1","4","¿De qué año es la primer 
película cinematográfica?","1897","1888","","0","0","0","competitive","left","0.957549095154","2604.27812886","4.04245090485","2608.47532892","3.39170098305","2611.86707091","2.60829901695","2614.52597499","2615.65896082","2615.74387193","2618.74687696","0","2618.76097584","2624.16778183",""
"sujeto_d72d8a7c","1","3","17","81","2624.31278682","direct","2","1","3","¿Cuántos países 
tiene nuestro planeta?","191","194","","1","1","1","competitive","right","1.16045689583","2625.47329283","3.83954310417","2629.45341182","3.77683997154","2633.23031998","2.22316002846","2635.48717999","2636.84378886","2636.92220902","2639.92517591","1","2639.9392848","2643.1775918",""
"sujeto_d72d8a7c","1","3","18","82","2643.30762601","inverse","2","1","2","¿Cuántos habitantes
 tiene Buenos Aires?","2.9000.000","3650000","","0","0","0","competitive","right","1.06971216202","2644.37738299","3.93028783798","2648.4640789","4.67033290863","2653.13445187","1.32966709137","2654.51452899","2655.91179299","2655.98217487","2658.98514986","0","2658.99916196","2664.82854486",""
"sujeto_d72d8a7c","1","3","19","83","2664.96752191","direct","2","1","1","¿Cuántos kilos forman una tonelada?","1000","1500","left","1","1","1","individual","left","1.20504903793","2666.17261386","3.79495096207","2670.12259388","3.792937994","2673.91558599","2.207062006","2676.15766501","2678.04501486","2678.09201479","2681.09496999","1","2681.10986185","2687.06727791",""
"sujeto_d72d8a7c","1","3","20","84","2687.22995281","inverse","4","1","4","¿Cuántos estados tiene la 
República del Perú? ","24","23","","0","0","1","competitive","right","0.993829965591","2688.22383189","4.00617003441","2692.38626885","3.38350892067","2695.76981783","2.61649107933","2698.4370048","2699.45916295","2699.53785682","2702.54083991","0","2702.55496693","2707.49975681",""
"sujeto_d72d8a7c","1","3","21","85","2707.64006782","direct","3","1","3","¿En qué año nació Cristóbal Colón? ","1451","1447","","0","0","1","competitive","right","1.1827070713","2708.82284188","3.8172929287","2712.79665685","4.21125888824","2717.00798202","1.78874111176","2718.83091998","2720.67678499","2720.74891591","2723.7518568","0","2723.76614189","2727.9941349",""
"sujeto_d72d8a7c","1","3","22","86","2728.15113902","inverse","4","1","4","¿Cuánto mide la 
Montaña Aconcagua? ","6234","6962","","0","0","1","competitive","right","0.967873096466","2729.11906195","4.03212690353","2733.32446694","3.5115249157","2736.83603501","2.4884750843","2739.35808086","2740.64742494","2740.72572279","2743.72870779","0","2743.74361181","2750.9272759",""
"sujeto_d72d8a7c","1","3","23","87","2751.06160879","direct","2","1","4","¿Cuánto mide el punto
 más profundo del océano? ","12508","11003","","0","0","1","competitive","left","1.44254803658","2752.50420284","3.55745196342","2756.22013402","3.64708900452","2759.86728597","2.35291099548","2762.26920891","2763.52072096","2763.6043489","2766.60729384","0","2766.62139392","2770.8276999",""
"sujeto_d72d8a7c","1","3","24","88","2770.95416379","inverse","1","1","3","¿Cuántos álbumes ha publicado 
el cantante Jaime Roos? ","41","34","","0","0","1","competitive","right","1.26814508438","2772.22235179","3.73185491562","2776.11390591","2.72837090492","2778.84231687","3.27162909508","2782.1465559","2783.63639998","2783.7152648","2786.71824884","0","2786.73244286","2792.92860079",""
"sujeto_d72d8a7c","1","3","25","89","2793.12097287","direct","4","1","3","¿En qué año nació el 
ex-presidente Jorge Battle? ","1921","1927","","1","1","1","competitive","left","1.10952496529","2794.23054099","3.89047503471","2798.27469301","5.04285907745","2803.31759501","0.957140922546","2804.30912185","2806.0397799","2806.109869","2809.11174083","1","2809.12698579","2812.61173797",""
"sujeto_d72d8a7c","1","3","26","90","2812.7453208","inverse","1","1","3","¿Cuántas presidencias 
constitucionales  hubo en Uruguay? ","41","42","","0","0","1","competitive","right","1.68532896042","2814.43067098","3.31467103958","2817.90179491","3.04294300079","2820.94477797","2.95705699921","2823.93534589","2825.13910985","2825.22078991","2828.22378898","0","2828.23778296","2834.02143598",""
"sujeto_d72d8a7c","1","3","27","91","2834.15543079","direct","1","1","2","¿Quién escribió mas sinfonías?","Mozart","Haydn","","1","1","0","competitive","left","4.16644001007","2838.32193494","0.833559989929","2839.29870391","3.16524386406","2842.46401095","2.83475613594","2845.34697199","2846.564399","2846.64819789","2849.65113282","1","2849.66605997","2853.41578102",""
"sujeto_d72d8a7c","1","3","28","92","2853.56909084","inverse","4","1","2","¿En qué año nació Michael Jackson?","1958","1953","","1","1","1","competitive","right","3.12486195564","2856.69401598","1.87513804436","2858.722718","5.41828012466","2864.14105701","0.581719875336","2864.77510095","2866.75334382","2866.84170389","2869.84380579","1","2869.85893393","2875.72126293",""
"sujeto_d72d8a7c","1","3","29","93","2875.86089802","direct","3","1","2","¿En qué año entró en vigencia 
la ley antitabaco en Uruguay?","2005","2006","","1","1","1","competitive","","1.65223693848","2877.51319981","3.34776306152","2881.0182488","6","2887.01836991","0","2887.03586292","2888.63062191","2888.70330787","2891.70629001","0","2891.72059393","2897.05460382",""
"sujeto_d72d8a7c","1","3","30","94","2897.1886909","inverse","3","1","1","¿Cuándo se subió el 
primer video a youtube?","2004","2005","","0","0","1","individual","right","1.36963605881","2898.55836892","3.63036394119","2902.34606886","2.06520104408","2904.4113338","3.93479895592","2908.39612794","2909.70179582","2909.74823284","2912.751194","0","2912.76518393","2920.52079487",""
"sujeto_d72d8a7c","1","3","31","95","2920.67105889","direct","2","1","1","¿Cuántos habitantes tiene India?","1200 millones","1300 millones","","0","0","0","individual","left","1.09437990189","2921.7654829","3.90562009811","2925.82265496","4.54685902596","2930.3695569","1.45314097404","2931.87590384","2933.84548688","2933.89252901","2936.89547992","0","2936.91046786","2942.95578289",""
"sujeto_d72d8a7c","1","3","32","96","2943.11235189","inverse","4","1","2","¿A qué edad murió Bob Marley?","36","37","","0","0","1","competitive","right","1.4572660923","2944.56967902","3.5427339077","2948.26938081","2.23226690292","2950.50169086","3.76773309708","2954.30231881","2956.20018387","2956.28789401","2959.29086995","0","2959.30604196","2962.4062748",""
"sujeto_d72d8a7c","1","4","1","97","3090.00774884","direct","2","1","1","¿Cuantos años dirigió la selección 
uruguaya Tabarez?","15 años","13 años","","0","0","0","competitive","right","3.19780707359","3093.20560288","1.80219292641","3095.16067386","3.75092291832","3098.91164899","2.24907708168","3101.21430802","3102.40546894","3102.48177195","3105.48475385","0","3105.49877381","3112.57080698","2962.41779089"
"sujeto_d72d8a7c","1","4","2","98","3112.71681786","inverse","4","1","1","¿Cuantas teclas tiene un teclado 
de computadora generalmente? ","Entre 99 y 108","Entre 109 y 113","","1","1","1","individual","right","1.39996600151","3114.11683393","3.60003399849","3117.87449384","4.74319887161","3122.61773181","1.25680112839","3123.92627883","3124.92904997","3124.97677493","3127.9797039","1","3127.9943068","3130.3657198",""
"sujeto_d72d8a7c","1","4","3","99","3130.51238298","direct","1","1","1","¿Cuál Departamento tiene
 mayor superficie?","Río Negro","Soriano","","0","0","0","competitive","left","1.76249217987","3132.27492285","3.23750782013","3135.667346","4.28244996071","3139.94983602","1.71755003929","3141.718503","3143.43172598","3143.50331998","3146.50627685","0","3146.52052498","3150.84660792",""
"sujeto_d72d8a7c","1","4","4","100","3150.98818898","inverse","3","1","2","¿Cuál es el apellido de las 
hermanastras  de  cenicienta?","Tremaine","Truman","","0","0","1","competitive","left","1.51178812981","3152.50004387","3.48821187019","3156.14446688","3.3535528183","3159.49808002","2.6464471817","3162.19500279","3164.06378889","3164.14627099","3167.14925098","0","3167.16420698","3169.85980701",""
"sujeto_d72d8a7c","1","4","5","101","3169.99921083","direct","4","1","4","¿Cuál película ganó un
 Oscar a mejor película?","Alto Impacto","Cache","","0","0","1","competitive","right","1.90200090408","3171.90131783","3.09799909592","3175.17168188","3.08842301369","3178.26014686","2.91157698631","3181.22220588","3182.34156489","3182.42343998","3185.42379284","0","3185.44017887","3187.70481682",""
"sujeto_d72d8a7c","1","4","6","102","3187.84268594","inverse","1","1","3","¿A cuántos centímetros
equivale la medida pié?","25","30","","0","0","1","competitive","left","1.27854418755","3189.12130094","3.72145581245","3192.99693799","3.39632201195","3196.39329886","2.60367798805","3199.03136301","3200.07136297","3200.14924979","3203.15219879","0","3203.16641283","3208.56379199",""
"sujeto_d72d8a7c","1","4","7","103","3208.70110893","direct","2","1","2","¿Qué departamento es mas grande?","Cerro Largo","Paysandú","","0","0","0","competitive","left","1.44729113579","3210.14844298","3.55270886421","3213.85845399","2.84998512268","3216.70848298","3.15001487732","3219.90813994","3221.50786281","3221.59334898","3224.5957768","0","3224.61069202","3228.71978784",""
"sujeto_d72d8a7c","1","4","8","104","3228.86200881","inverse","2","1","3","¿Quién pintó la Mona Lisa?","Picasso","Da Vinci","right","0","0","1","competitive","right","0.934557914734","3229.79661083","4.06544208527","3234.0162909","1.93325781822","3235.94959092","4.06674218178","3240.06652093","3241.67237282","3241.75264192","3244.7556479","1","3244.76987195","3246.93220782",""
"sujeto_d72d8a7c","1","4","9","105","3247.07133198","direct","4","1","3","¿Cuántos litros hay en un galon?","3.54","3.78","","1","1","1","competitive","right","1.63234305382","3248.7037499","3.36765694618","3252.22875881","2.96382498741","3255.19264197","3.03617501259","3258.26172996","3259.77958488","3259.86353493","3262.86651993","1","3262.88081598","3268.6731739",""
"sujeto_d72d8a7c","1","4","10","106","3268.81616688","inverse","4","1","1","¿Cuántas teclas tiene
 un piano moderno?","80","88","","0","0","1","individual","left","1.20454287529","3270.02077794","3.79545712471","3273.95544481","3.31730890274","3277.27282","2.68269109726","3280.00615191","3281.01460195","3281.05821896","3284.06117892","0","3284.07515287","3290.87290502",""
"sujeto_d72d8a7c","1","4","11","107","3291.00989985","direct","4","1","3","¿Cuántos países hay en África?","54","62","","0","0","1","competitive","right","1.69195890427","3292.70190692","3.30804109573","3296.16788387","3.02505087852","3299.19297385","2.97494912148","3302.21786785","3303.90780497","3303.98600698","3306.98898792","0","3307.00400591","3314.80875993",""
"sujeto_d72d8a7c","1","4","12","108","3314.93889093","inverse","1","1","3","¿En qué siglo se crearon
 las primeras pistolas?","XV","XIII","","1","1","1","competitive","right","0.979160070419","3315.9181509","4.02083992958","3320.11055279","3.22450113297","3323.33509588","2.77549886703","3326.163306","3328.11121893","3328.19750094","3331.20049095","1","3331.21478891","3334.44790483",""
"sujeto_d72d8a7c","1","4","13","109","3334.60046196","direct","3","1","4","¿En qué año se estrenó 
la serie friends?","1994","1995","","0","0","1","competitive","left","1.13466000557","3335.73519087","3.86533999443","3339.75696802","2.47622513771","3342.23325801","3.52377486229","3345.80662394","3347.68197584","3347.75833297","3350.76131582","0","3350.7767179","3355.779814",""
"sujeto_d72d8a7c","1","4","14","110","3355.92791581","inverse","3","1","4","¿En qué año nació Hitler?","1889","1887","","0","0","1","competitive","right","0.873409032822","3356.80139589","4.12659096718","3361.08451891","5.50687003136","3366.59144902","0.493129968643","3367.11922002","3368.23359895","3368.32034397","3371.32329488","0","3371.33741283","3376.363765",""
"sujeto_d72d8a7c","1","4","15","111","3376.50580096","direct","1","1","4","¿Cuánto pesa un elefante Africano?","6000 kilos","5400 kilos","","0","0","0","competitive","right","1.09965014458","3377.60551381","3.90034985542","3381.66208887","2.88837504387","3384.55050898","3.11162495613","3387.71288896","3389.06778693","3389.14728093","3392.15026379","0","3392.16527987","3398.87177682",""
"sujeto_d72d8a7c","1","4","16","112","3398.99971199","inverse","1","1","2","¿Qué porcentaje de 
la población es zurda?","10%","7%","","1","1","0","competitive","left","1.41683006287","3400.41661191","3.58316993713","3404.15405202","3.69950294495","3407.85359693","2.30049705505","3410.20590401","3411.44898891","3411.52412987","3414.52711701","1","3414.54078388","3420.52050591",""
"sujeto_d72d8a7c","1","4","17","113","3420.65914989","direct","1","1","2","¿En qué año se estrenó
Volver al futuro?","1984","1985","","0","0","1","competitive","right","1.08662390709","3421.74581885","3.91337609291","3425.8179369","3.71980381012","3429.53777981","2.28019618988","3431.86867189","3433.43049979","3433.5033288","3436.50631785","0","3436.52056694","3443.61202192",""
"sujeto_d72d8a7c","1","4","18","114","3443.75588083","inverse","3","1","2","¿Cuántos jugadores hay en un 
equipo de baseball?","9","8","","1","1","0","competitive","right","1.05102109909","3444.80694985","3.94897890091","3448.91369295","4.61720013618","3453.53095484","1.38279986382","3454.9650588","3456.57931781","3456.64855695","3459.65155983","1","3459.66686296","3464.64380884",""
"sujeto_d72d8a7c","1","4","19","115","3464.7680428","direct","2","1","1","¿Cuántos Oscar ganó
 la película titanic?","13","11","","1","1","1","individual","right","1.32396507263","3466.09205079","3.67603492737","3469.92479801","3.45120406151","3473.37606502","2.54879593849","3475.97512698","3477.27719498","3477.32750082","3480.33047295","1","3480.34414601","3484.94683385",""
"sujeto_d72d8a7c","1","4","20","116","3485.07848787","inverse","4","1","4","¿En qué año comenzó
la segunda guerra mundial?","1939","1976","left","0","0","1","competitive","left","0.951683044434","3486.03023791","4.04831695557","3490.26542282","2.57777810097","3492.84324193","3.42222189903","3496.30050302","3498.10036397","3498.1865859","3501.1895678","1","3501.20366287","3505.19078898",""
"sujeto_d72d8a7c","1","4","21","117","3505.32403898","direct","2","1","4","¿Cuántos biomas hay en Uruguay?","5","4","","0","0","1","competitive","right","1.13055610657","3506.454669","3.86944389343","3510.47885799","3.35187005997","3513.83078694","2.64812994003","3516.53038502","3518.32770586","3518.39814496","3521.40112591","0","3521.41548586","3527.66379189",""
"sujeto_d72d8a7c","1","4","22","118","3527.80105186","inverse","2","1","3","¿Cuándo murió Pablo Escobar?","1993","1997","","1","1","1","competitive","right","1.13503289223","3528.93613291","3.86496710777","3532.95860887","4.49856281281","3537.45723295","1.50143718719","3538.99241495","3540.7752459","3540.85989881","3543.86287689","1","3543.87697983","3549.58065081",""
"sujeto_d72d8a7c","1","4","23","119","3549.71209383","direct","1","1","4","¿Qué serie ha ganado mas premios?","Friends","Murphy Brown","","1","1","0","competitive","left","0.921463012695","3550.63366985","4.0785369873","3554.88692594","3.77476811409","3558.66175389","2.22523188591","3560.93794799","3562.290308","3562.37273288","3565.375705","1","3565.38924599","3570.95084",""
"sujeto_d72d8a7c","1","4","24","120","3571.10796785","inverse","4","1","2","¿Cuántas fichas tiene el dominó?","26","28","","1","1","1","competitive","right","2.13003897667","3573.23807096","2.86996102333","3576.27890301","2.21016693115","3578.48913693","3.78983306885","3582.33119297","3583.38649487","3583.46675491","3586.46779799","1","3586.48308587","3591.7261858",""
"sujeto_d72d8a7c","1","4","25","121","3591.85216188","direct","2","1","4","¿Cuántos son los dientes de leche?","20","25","","0","0","1","competitive","left","0.853203058243","3592.70540881","4.14679694176","3597.02511287","4.38348603249","3601.40866089","1.61651396751","3603.07733488","3604.78771496","3604.86122489","3607.86421299","0","3607.8784039","3610.02412295",""
"sujeto_d72d8a7c","1","4","26","122","3610.16367793","inverse","3","1","3","¿Cuántos gramos son una onza?","22","28","","0","0","1","competitive","right","3.4050989151","3613.56881881","1.5949010849","3615.31843495","2.57741212845","3617.89588594","3.42258787155","3621.35304189","3623.34784389","3623.42109895","3626.424088","0","3626.43906498","3632.72932291",""
"sujeto_d72d8a7c","1","4","27","123","3632.85766101","direct","3","1","1","¿Cuándo salió el primer album
 de los Beatles?","1963","1962","","1","1","1","individual","right","1.21256494522","3634.07029295","3.78743505478","3638.01483393","3.05449295044","3641.06938481","2.94550704956","3644.06490493","3645.2285459","3645.26712298","3648.26777983","1","3648.28370285","3652.05572486",""
"sujeto_d72d8a7c","1","4","28","124","3652.18477988","inverse","3","1","3","¿Quién fundó la empresa apple?","Carlos Slim","Steve Jobs","","1","1","1","competitive","right","1.66482591629","3653.84966993","3.33517408371","3657.34151983","2.78513789177","3660.12671995","3.21486210823","3663.39160085","3664.50625491","3664.57651496","3667.57948399","1","3667.59375787","3673.89165092",""
"sujeto_d72d8a7c","1","4","29","125","3674.04602098","direct","4","1","2","¿Cuántos municipios hay
 en Montevideo?","8","7","","1","1","1","competitive","right","2.04807090759","3676.094136","2.95192909241","3679.20154691","3.04457879066","3682.2461679","2.95542120934","3685.23702097","3687.15178084","3687.23871994","3690.24170089","1","3690.2559588","3692.33712196",""
"sujeto_d72d8a7c","1","4","30","126","3692.49132895","inverse","1","1","1","¿Cuántos kilómetros hay
 de Montevideo a Artigas?","632","599","","0","0","0","individual","right","0.903645038605","3693.39503098","4.0963549614","3697.66305184","2.79836893082","3700.46148682","3.20163106918","3703.71331382","3705.19642997","3705.24831581","3708.2512939","0","3708.26518202","3714.31723785",""
"sujeto_d72d8a7c","1","4","31","127","3714.46685481","direct","2","1","2","¿En qué año nació 
Leonardo Da Vinci?","1452","1511","","1","1","0","competitive","right","3.44289398193","3717.90979695","1.55710601807","3719.6248548","4.02298212051","3723.64789701","1.97701787949","3725.67659497","3727.53018379","3727.61062598","3730.61361194","1","3730.62754989","3733.7739439",""
"sujeto_d72d8a7c","1","4","32","128","3733.91329193","inverse","3","1","1","¿A qué continente
 pertenece el país Gabón?","Africa","Oceanía","","0","0","1","individual","left","1.54977083206","3735.46312594","3.45022916794","3739.06929302","5.25591492653","3744.3252759","0.744085073471","3745.10363698","3746.91530395","3746.95401096","3749.95578885","0","3749.97118282","3755.20909381",""
