"code","nro_aplicante","nro_bloque","nro_trial_bloque","nro_trial_global","show_game_type","choice_order","rival","pay_individual","pay_competitive","question","answer_left_text","answer_right_text","correct_answer","outcome_individual","outcome_competitive","outcome_rival","game_type","answer","social_time","rt_game_type","feedback_delay","show_question","answer_time","rt_answer_global","feedback_delay_2","show_jitter","jitter_time","show_outcome","outcome_time","outcome_participant_real","show_final_jitter","second_jitter_time","inicio_descanso"
"sujeto_0034539","1","1","1","1","720.131655931","direct","3","1","4","¿Cuántos centímetros corresponden
al talle 36 del calzado?","23","24","","0","0","1","competitive","right","2.25281786919","722.384536982","2.74718213081","725.302810907","3.28071093559","728.583568811","2.71928906441","731.337949991","732.366243839","732.43897295","735.440335035","0","735.456377029","737.618901014",""
"sujeto_0034539","1","1","2","2","737.774013042","inverse","3","1","2","¿Cuántas metros mide la Intendencia
Municipal de Montevideo? ","84","78","","0","0","1","competitive","left","2.44048500061","740.214542866","2.55951499939","742.94825983","3.36727905273","746.315603018","2.63272094727","748.996537924","750.874584913","750.947772026","753.950729847","0","753.965724945","756.058483839",""
"sujeto_0034539","1","1","3","3","756.20105195","direct","1","1","3","¿Cuántas La Pasiva
 hay en uruguay?","15","11","","1","1","1","individual","left","2.96441912651","759.1655159","2.03558087349","761.372041941","3.51248478889","764.884569883","2.48751521111","767.406319857","769.017994881","769.058074951","772.061059952","1","772.075186014","776.35352397",""
"sujeto_0034539","1","1","4","4","776.493130922","inverse","3","1","3","¿De que color es la camiseta de uruguay?","blanca","celeste","right","1","1","1","competitive","right","2.60436296463","779.097545862","2.39563703537","781.649016857","2.38549304008","784.034571886","3.61450695992","787.699956894","788.904742002","788.984778881","791.987743855","1","792.001734018","795.455646992",""
"sujeto_0034539","1","1","5","5","795.603130817","direct","2","1","1","¿Cuánto metros mide
la torre Eiffel?","333","324","","1","1","1","competitive","right","1.62935614586","797.232530832","3.37064385414","800.759052038","2.82940602303","803.588524818","3.17059397697","806.807106018","808.328487873","808.409220934","811.412194967","1","811.426326036","818.463017941",""
"sujeto_0034539","1","1","6","6","818.594314814","inverse","3","1","4","¿Cuantas ciudades existen
 en todo el uruguay?","63","72","","0","0","1","competitive","left","1.33519697189","819.929558039","3.66480302811","823.737550974","3.0299539566","826.767566919","2.9700460434","829.771417856","830.82623291","830.905798912","833.908324957","0","833.923482895","841.548316956",""
"sujeto_0034539","1","1","7","7","841.708669901","direct","1","1","1","¿Cuantos estados tiene África?","52","54","","1","1","0","individual","left","2.87885284424","844.587628841","2.12114715576","846.895787001","3.67168998718","850.567543983","2.32831001282","852.950637817","854.814630032","854.851717949","857.85469389","1","857.86894989","863.629978895",""
"sujeto_0034539","1","1","8","8","863.770360947","inverse","4","1","4","¿En qué año nació
 Stephen Hawking?","1952","1942","","0","0","1","individual","left","1.53716683388","865.307595015","3.46283316612","868.927958012","2.96150398254","871.889523029","3.03849601746","874.960925817","876.405243874","876.446686983","879.448335886","0","879.463376999","885.562731028",""
"sujeto_0034539","1","1","9","9","885.715430975","direct","2","1","3","¿Cuánto años tenía Artigas
 cuando se fue a Paraguay?","56","57","","1","1","1","competitive","right","1.42708802223","887.14256382","3.57291197777","890.87172389","3.16482496262","894.036609888","2.83517503738","896.922528982","898.472039938","898.557574034","901.560556889","1","901.574483871","907.621788025",""
"sujeto_0034539","1","1","10","10","907.759192944","inverse","1","1","2","¿Cuantos milímetros 
mide una hoja A2?","420x592","420x594","","0","0","1","competitive","right","2.05529999733","909.814568043","2.94470000267","912.899973869","3.56852889061","916.468565941","2.43147110939","918.949625969","920.518057823","920.601444006","923.604285955","0","923.618522882","930.688300848",""
"sujeto_0034539","1","1","11","11","930.820103884","direct","3","1","3","¿Cuál es la menor temperatura 
registrada en Uruguay?","-5.4","-7.4","","0","0","1","competitive","left","1.85440087318","932.674549818","3.14559912682","935.995806932","3.50365996361","939.499534845","2.49634003639","942.046090841","943.728111982","943.797286987","946.80019784","0","946.814384937","950.544349909",""
"sujeto_0034539","1","1","12","12","950.682814837","inverse","2","1","2","¿Cuantos años hace que 
se fundó facebook?","18","17","","0","0","0","competitive","right","2.2087469101","952.891606808","2.7912530899","955.838855982","3.26164412498","959.100562811","2.73835587502","961.872714043","963.245429039","963.32395792","966.326943874","0","966.34117794","969.115813017",""
"sujeto_0034539","1","1","13","13","969.243080854","direct","1","1","4","¿Cuál animal es más
 pesado en promedio?","Rinoceronte","Hipopotamo","","0","0","0","individual","left","2.19140410423","971.43453002","2.80859589577","974.466059923","3.56346082687","978.029568911","2.43653917313","980.515537977","981.594746828","981.633814812","984.636802912","0","984.65079093","988.491794825",""
"sujeto_0034539","1","1","14","14","988.618616819","inverse","1","1","2","¿Qué personaje de dragon ball 
murió más veces?","Chaoz","Krillin","","1","1","0","competitive","right","2.48488688469","991.103549004","2.51511311531","993.774757862","3.55472898483","997.329528809","2.44527101517","999.826118946","1001.28394198","1001.3606019","1004.36354494","1","1004.37774682","1012.14832592",""
"sujeto_0034539","1","1","15","15","1012.27963781","direct","3","1","2","La universidad de oxford. 
existe desde:","1096","1249","","1","1","0","competitive","left","1.60387992859","1013.88358283","3.39612007141","1017.43630004","3.83516907692","1021.27150893","2.16483092308","1023.48878384","1024.53754187","1024.606426","1027.60832","1","1027.62338781","1034.31420994",""
"sujeto_0034539","1","1","16","16","1034.44075799","inverse","3","1","1","¿Qué escritor latino ganó antes
 el premio nobel?"," García Marquez","Neruda","","0","0","1","competitive","right","1.84374499321","1036.28456903","3.15625500679","1039.59926081","4.18622207642","1043.78554583","1.81377792358","1045.64985585","1047.38828683","1047.46763992","1050.47061992","0","1050.48491883","1053.945436",""
"sujeto_0034539","1","1","17","17","1054.08664799","direct","4","1","3","¿Cuántos dientes tiene un
 tiburón blanco?","6000","3000","","0","0","1","competitive","left","2.44186615944","1056.5285809","2.55813384056","1059.24236584","3.09415793419","1062.33656502","2.90584206581","1065.27647281","1066.31545997","1066.39437699","1069.39734101","0","1069.41131282","1074.22033286",""
"sujeto_0034539","1","1","18","18","1074.38010693","inverse","4","1","1","¿Cuánto mide el paralelo Ecuador?","40.000km","70.000km","","0","0","1","competitive","right","2.32245182991","1076.70266199","2.67754817009","1079.55303693","3.49646997452","1083.04956985","2.50353002548","1085.60088801","1087.55632186","1087.63549495","1090.63845992","0","1090.65358591","1094.25616503",""
"sujeto_0034539","1","1","19","19","1094.38864589","direct","4","1","2","¿Cuál fue el primer libro 
de Stephen King?","Carrie","The Stand","","1","1","1","individual","right","1.14584302902","1095.53453684","3.85415697098","1099.56309485","3.5203909874","1103.08354688","2.4796090126","1105.61385393","1107.35797691","1107.39741492","1110.40036201","1","1110.41554904","1114.8899889",""
"sujeto_0034539","1","1","20","20","1115.03418589","inverse","2","1","3","¿Qué civilización practicaba
 la momificación?","Grecia","Egipto","right","0","0","1","competitive","right","1.10929584503","1116.14354682","3.89070415497","1120.18958402","2.51690196991","1122.70652699","3.48309803009","1126.24052286","1128.17983484","1128.25908589","1131.26206398","1","1131.27608895","1135.50434589",""
"sujeto_0034539","1","1","21","21","1135.64443183","direct","4","1","4","¿Cuántos millones de visitas
 recibe google por minuto?","3.0","4.5","","0","0","1","competitive","right","1.61809206009","1137.2625699","3.38190793991","1140.80053782","3.11395812035","1143.91455793","2.88604187965","1146.85091996","1148.36580396","1148.43571186","1151.43868995","0","1151.45260882","1158.57232404",""
"sujeto_0034539","1","1","22","22","1158.70450401","inverse","1","1","3","La máquina de fax. se inventó en:","1843","1960","","0","0","1","competitive","left","1.68202400208","1160.38659501","3.31797599792","1163.86263704","2.93087697029","1166.79355597","3.06912302971","1169.89587903","1171.13797903","1171.21519804","1174.21818495","0","1174.23144388","1177.46774697",""
"sujeto_0034539","1","1","23","23","1177.59984493","direct","2","1","4","En la verdadera historia de los
 300 espartanos. habían:","300 soldados","4300 soldados","","1","1","1","individual","right","1.03367400169","1178.63359189","3.96632599831","1182.75551987","4.17697286606","1186.93253684","1.82302713394","1188.80674982","1190.06797004","1190.10765481","1193.11063004","1","1193.12389994","1196.925668",""
"sujeto_0034539","1","1","24","24","1197.05998898","inverse","1","1","4","¿Cuántos milímetros crece
 el pelo por día?","0.4","0.04","","0","0","0","competitive","right","2.32152605057","1199.38158202","2.67847394943","1202.216851","3.47264790535","1205.68956304","2.52735209465","1208.26635385","1210.02707696","1210.10121393","1213.10420203","0","1213.11822486","1219.85331583",""
"sujeto_0034539","1","1","25","25","1219.98725295","direct","4","1","1","¿Cuánto mide la baldosa gris 
clásica de Montevideo?","22x22 cm.","20x20 cm.","","1","1","1","competitive","left","2.33028793335","1222.31760693","2.66971206665","1225.15912604","4.17439103127","1229.33355784","1.82560896873","1231.21211982","1233.20734596","1233.27981281","1236.28278804","1","1236.29673696","1241.83631802",""
"sujeto_0034539","1","1","26","26","1241.965482","inverse","2","1","2","¿Cuántas películas de rápidos
 y furiosos hay?","10","11","","1","1","0","competitive","left","1.49903917313","1243.46459103","3.50096082687","1247.12177682","2.85872507095","1249.980546","3.14127492905","1253.17232704","1254.53032899","1254.60697603","1257.60995102","1","1257.62409091","1259.65878987",""
"sujeto_0034539","1","1","27","27","1259.80958986","direct","3","1","1","¿Cuántos masters 1000
 ganó Del Potro?","1","2","","1","1","1","individual","left","1.89796590805","1261.70759892","3.10203409195","1264.98180294","3.82676792145","1268.80863881","2.17323207855","1271.01479101","1272.769346","1272.81701589","1275.81998181","1","1275.83402681","1283.23034286",""
"sujeto_0034539","1","1","28","28","1283.36940598","inverse","2","1","4","¿Cuántos meses dura el 
embarazo de una leona?","3 meses","4 meses","","0","0","1","competitive","right","1.41015601158","1284.77960587","3.58984398842","1288.52680087","3.15272498131","1291.67956686","2.84727501869","1294.57720184","1295.6883049","1295.76146388","1298.76438689","0","1298.77937198","1305.50036001",""
"sujeto_0034539","1","1","29","29","1305.64769292","direct","1","1","1","¿En qué año fue creado
 el sandwich?","1762","1653","","1","1","0","competitive","right","2.51891517639","1308.16665888","2.48108482361","1310.8029449","3.25055003166","1314.05353689","2.74944996834","1316.85538793","1318.4539609","1318.52319884","1321.5261879","1","1321.5411129","1325.01174903",""
"sujeto_0034539","1","1","30","30","1325.15897584","inverse","4","1","2","El nombre de la moneda de Vietnam es:","Dinar","Dong","","0","0","1","individual","right","2.42226910591","1327.58136487","2.57773089409","1330.34699392","2.8885178566","1333.23557281","3.1114821434","1336.39849091","1337.83046794","1337.86672282","1340.86970091","0","1340.88463283","1347.05306292",""
"sujeto_0034539","1","1","31","31","1347.20277596","direct","2","1","1","¿cuantos aleteos puede dar 
un colibrí por segundo?","120","50","","0","0","0","competitive","right","1.62275910378","1348.82559896","3.37724089622","1352.34297895","3.70152711868","1356.04456782","2.29847288132","1358.39415884","1360.12653089","1360.21194601","1363.21237683","0","1363.22955203","1367.44180083",""
"sujeto_0034539","1","1","32","32","1367.58047485","inverse","4","1","3","¿Qué altura promedio tienen
 los hombres uruguayos?","1.73 m","1.72 m","","1","1","1","competitive","left","3.01819992065","1370.59872699","1.98180007935","1372.75196791","3.0656068325","1375.81764388","2.9343931675","1378.78710389","1380.04953289","1380.12222886","1383.12521386","1","1383.13921189","1387.61515093",""
"sujeto_0034539","1","2","1","33","1523.76114893","direct","1","1","1","¿En qué año nació 
el actor Bradd Pitt?","1967","1963","","1","1","1","competitive","left","2.18238091469","1525.94359183","2.81761908531","1528.93229985","3.00224995613","1531.93459201","2.99775004387","1534.98472786","1536.08034301","1536.15273094","1539.15571594","1","1539.16971803","1545.09731603","1387.62653089"
"sujeto_0034539","1","2","2","34","1545.23800993","inverse","2","1","1","¿Cual es el segundo 
monte más alto?","Kanchenjunga","K2","","1","1","1","competitive","left","1.60555195808","1546.84360981","3.39444804192","1550.39548683","3.56906795502","1553.96459484","2.43093204498","1556.44544196","1557.89786196","1557.98062682","1560.98360491","1","1560.99766994","1564.42756391",""
"sujeto_0034539","1","2","3","35","1564.56576681","direct","3","1","1","¿Cuándo finalizó la construcción
 del Palacio Legislativo?","1925","1917","","0","0","1","competitive","left","2.12582492828","1566.69165802","2.87417507172","1569.73616004","3.49240803719","1573.22863603","2.50759196281","1575.77251601","1577.4142189","1577.4900589","1580.49236202","0","1580.50754595","1586.20510292",""
"sujeto_0034539","1","2","4","36","1586.34499192","inverse","3","1","3","¿Cuántos integrantes tenía
 en su inicio  el cuarteto de nos?","3","4","","1","1","1","competitive","left","1.3085808754","1587.65364099","3.6914191246","1591.49656892","3.40898394585","1594.90561295","2.59101605415","1597.53203487","1598.665097","1598.74930501","1601.75229788","1","1601.76650286","1607.41634893",""
"sujeto_0034539","1","2","5","37","1607.568367","direct","2","1","3","¿Qué valor tiene el número pi?","3.14","4.18","left","0","0","1","competitive","left","1.36923599243","1608.93764687","3.63076400757","1612.72640204","2.89417409897","1615.62061596","3.10582590103","1618.76057696","1620.21476603","1620.29521489","1623.29820991","1","1623.31241703","1630.23338103",""
"sujeto_0034539","1","2","6","38","1630.38057804","inverse","2","1","2","¿Cuál es la esperanza de vida
 en Uruguay?","75","77","","1","1","0","competitive","left","1.42100000381","1631.80162191","3.57899999619","1635.53880286","3.03971099854","1638.578578","2.96028900146","1641.58874893","1643.24251199","1643.32417798","1646.32436681","1","1646.34158683","1652.80461383",""
"sujeto_0034539","1","2","7","39","1652.94263387","direct","1","1","2","¿Cuantos pisos tiene la torre 
de las comunicaciones?","26","32","","1","1","0","competitive","left","2.15695285797","1655.09962988","2.84304714203","1658.100528","3.19803595543","1661.29860687","2.80196404457","1664.13452101","1665.96331596","1666.03572392","1669.03870988","1","1669.05365682","1671.19987392",""
"sujeto_0034539","1","2","8","40","1671.3390739","inverse","2","1","4","¿En qué país sudamericano 
no hay McDonalds?","Bolivia","Venezuela","","0","0","1","competitive","left","1.3655090332","1672.70462799","3.6344909668","1676.48955584","3.91401004791","1680.40360999","2.08598995209","1682.54232788","1683.85169792","1683.92655182","1686.92836404","0","1686.94369602","1693.30034494",""
"sujeto_0034539","1","2","9","41","1693.42891097","direct","3","1","1","¿En qué año empieza
 la Edad Media?","476","512","","1","1","1","competitive","left","1.72868108749","1695.15765786","3.27131891251","1698.58560681","3.2709479332","1701.85659885","2.7290520668","1704.63833404","1706.04210687","1706.12270689","1709.12569904","1","1709.139884","1712.12835693",""
"sujeto_0034539","1","2","10","42","1712.25876594","inverse","3","1","4","¿Hace cuántos años surgió
 el ser humano?","200mil","300mil","","0","0","0","competitive","right","1.29781103134","1713.55664587","3.70218896866","1717.4138329","3.70073986053","1721.11463499","2.29926013947","1723.46514702","1725.35119891","1725.433043","1728.43603301","0","1728.45001388","1731.76046896",""
"sujeto_0034539","1","2","11","43","1731.90246487","direct","3","1","4","¿Cuántas cuadras tiene
 actualmente 18 de julio? ","36","33","","0","0","1","competitive","left","1.06616306305","1732.96870399","3.93383693695","1737.05581999","3.30374002457","1740.35959983","2.69625997543","1743.10716486","1744.80941081","1744.89202785","1747.89500403","0","1747.90997386","1752.63233185",""
"sujeto_0034539","1","2","12","44","1752.77744102","inverse","1","1","4","¿Qué juego de equipo se 
considera mas rápido?","Lacrosse","Badminton","","0","0","0","competitive","left","1.46516299248","1754.24264789","3.53483700752","1757.93432903","3.45223212242","1761.38662004","2.54776787758","1763.98556781","1765.22867799","1765.30338001","1768.30634403","0","1768.32051682","1776.31567502",""
"sujeto_0034539","1","2","13","45","1776.45506501","direct","1","1","3","¿Qué promedio de edad 
vive una jirafa? ","25","20","","0","0","1","competitive","right","1.57353615761","1778.02864504","3.42646384239","1781.59797597","3.29962015152","1784.89765882","2.70037984848","1787.64804101","1789.40956903","1789.48280692","1792.48580289","0","1792.50011683","1798.45582891",""
"sujeto_0034539","1","2","14","46","1798.60176301","inverse","1","1","2","¿Cuántos grandes lagos hay?","7","5","","0","0","1","competitive","right","1.6318359375","1800.23364282","3.3681640625","1803.74112582","2.91343593597","1806.65462184","3.08656406403","1809.77528501","1811.06741595","1811.14339304","1814.14635587","0","1814.16136885","1821.982759",""
"sujeto_0034539","1","2","15","47","1822.12937284","direct","3","1","2","¿Cuántos discos de estudio
 grabó Johhny Cash? ","54","43","","1","1","0","competitive","right","1.2012090683","1823.33063102","3.7987909317","1827.2875309","3.33708286285","1830.6246779","2.66291713715","1833.33780193","1834.61638188","1834.68947291","1837.68994594","1","1837.70579004","1844.35670495",""
"sujeto_0034539","1","2","16","48","1844.49180102","inverse","4","1","1","¿Cuántos barrios tiene
 Montevideo? ","71","62","","0","0","1","individual","left","2.0748500824","1846.56669593","2.9251499176","1849.64698291","3.52661585808","1853.17364097","2.47338414192","1855.68266702","1856.68967891","1856.73441696","1859.73736191","0","1859.75124002","1865.21328688",""
"sujeto_0034539","1","2","17","49","1865.33586788","direct","3","1","3","¿Qué edad tiene Homero Simpson?","36","42","","0","0","1","competitive","right","1.71074104309","1867.04667783","3.28925895691","1870.49186993","2.47872614861","1872.97065687","3.52127385139","1876.52657104","1877.90261388","1877.97835684","1880.98134685","0","1880.99562001","1885.38436985",""
"sujeto_0034539","1","2","18","50","1885.51390696","inverse","4","1","2","¿Cuántos países con monarquía 
hay en europa actualmente? ","6","10","","1","1","1","individual","left","1.71666908264","1887.23061895","3.28333091736","1890.66900086","3.16763091087","1893.83669591","2.83236908913","1896.72012401","1898.15838885","1898.20504594","1901.20801902","1","1901.22214198","1907.37895894",""
"sujeto_0034539","1","2","19","51","1907.50741196","direct","2","1","3","¿Cuántos capítulos de
 Friends existen? ","236","228","","1","1","1","competitive","right","1.18935918808","1908.69683695","3.81064081192","1912.66449189","3.68205785751","1916.34660983","2.31794214249","1918.71480989","1920.02036381","1920.09947991","1923.10244489","1","1923.11650801","1925.49215388",""
"sujeto_0034539","1","2","20","52","1925.6357069","inverse","1","1","3","¿Cuántas óperas compuso Mozart? ","27","22","","1","1","1","competitive","left","1.68988800049","1927.32566094","3.31011199951","1930.77291989","3.38464403152","1934.15762687","2.61535596848","1936.82369494","1938.11585093","1938.19276404","1941.19574904","1","1941.20988894","1948.52136803",""
"sujeto_0034539","1","2","21","53","1948.67821002","direct","4","1","3","¿Cuántos mundiales de fútbol 
femenino ha realizado FIFA? ","9","7","","1","1","1","individual","right","2.04743909836","1950.72571683","2.95256090164","1953.8333509","3.46320986748","1957.29662299","2.53679013252","1959.87005091","1961.11375785","1961.15485287","1964.15784097","1","1964.17187786","1970.27435303",""
"sujeto_0034539","1","2","22","54","1970.40676284","inverse","3","1","2","¿Cuál es la temperatura 
media anual en Montevideo? ","17.5","16.3","","0","0","1","competitive","left","1.39583492279","1971.80267096","3.60416507721","1975.56370902","3.30386400223","1978.86761403","2.69613599777","1981.61366487","1983.55229402","1983.63177085","1986.63235688","0","1986.64954686","1993.21907902",""
"sujeto_0034539","1","2","23","55","1993.35042691","direct","2","1","2","¿En qué año se estrenó el
 videojuego The Sims? ","2000","2002","","0","0","0","competitive","right","1.68218398094","1995.03268695","3.31781601906","1998.50677991","3.18386387825","2001.69068599","2.81613612175","2004.55919003","2006.42122698","2006.49431682","2009.49634695","0","2009.51132584","2016.90436387",""
"sujeto_0034539","1","2","24","56","2017.02997804","inverse","2","1","1","¿Cuál es la canción con 
mas covers? ","Yesterday","Stand by me","","0","0","0","competitive","right","1.32959294319","2018.35963702","3.67040705681","2022.18737292","3.48828101158","2025.67569995","2.51171898842","2028.23768401","2029.63625097","2029.70634294","2032.70932794","0","2032.72327995","2036.89411402",""
"sujeto_0034539","1","2","25","57","2037.02496195","direct","1","1","4","¿Cuánto duró la guerra
 de los 100 años?","116","123","","0","0","0","competitive","right","2.02267193794","2039.04767895","2.97732806206","2042.1660049","3.22557497025","2045.39164495","2.77442502975","2048.19857192","2049.67936087","2049.74936199","2052.75234699","0","2052.76749396","2055.08730197",""
"sujeto_0034539","1","2","26","58","2055.23571301","inverse","4","1","4","¿Qué color tiene la  bandera de Brasil?","Amarillo","Naranja","left","0","0","1","competitive","left","1.97993612289","2057.21576595","3.02006387711","2060.40741682","2.51619696617","2062.92367387","3.48380303383","2066.45758986","2068.02411103","2068.10917687","2071.11216187","1","2071.12632799","2074.1591289",""
"sujeto_0034539","1","2","27","59","2074.31149101","direct","4","1","3","¿Qué carabela de 
Colon no volvió del viaje?","Santa María","La pinta","","0","0","1","competitive","left","1.52066898346","2075.83230686","3.47933101654","2079.46634293","4.03925991058","2083.50564289","1.96074008942","2085.51776695","2087.00883389","2087.08555603","2090.08838391","0","2090.10237288","2092.20185304",""
"sujeto_0034539","1","2","28","60","2092.33835888","inverse","4","1","4","¿Cuántos huesos tiene
 un adulto humano?","217","206","","0","0","1","competitive","left","2.01725888252","2094.35568404","2.98274111748","2097.50833082","3.30827999115","2100.81665683","2.69172000885","2103.56015182","2104.83116388","2104.91142392","2107.91439199","0","2107.92852092","2115.76621795",""
"sujeto_0034539","1","2","29","61","2115.89706397","direct","1","1","1","¿Qué país africano fue 
fundado por esclavos?","Liberia","Chad","","0","0","0","competitive","left","1.82457995415","2117.72169399","3.17542004585","2121.05462193","3.56596803665","2124.62063289","2.43403196335","2127.10624981","2129.09632182","2129.17418098","2132.17715502","0","2132.19120288","2140.18204689",""
"sujeto_0034539","1","2","30","62","2140.30919099","inverse","4","1","2","¿A cuánto asciende la cima
 del monte Everest?","7.990 mts","8.848 mts","","0","0","1","competitive","right","1.67443394661","2141.98369098","3.32556605339","2145.46819997","3.7724070549","2149.24066901","2.2275929451","2151.51910901","2152.70396781","2152.78653383","2155.78947997","0","2155.80354786","2162.98758793",""
"sujeto_0034539","1","2","31","63","2163.13881898","direct","4","1","1","¿Cuál es el país mas chico?","Sealand","Luxemburgo","","1","1","1","competitive","right","1.53479409218","2164.67366099","3.46520590782","2168.31238985","4.12524104118","2172.43769789","1.87475895882","2174.34622288","2176.20971894","2176.28162694","2179.28460789","1","2179.29854393","2182.42083097",""
"sujeto_0034539","1","2","32","64","2182.56759596","inverse","2","1","4","¿Cuántas pirámides hay en Egipto?","10000","11000","","1","1","1","competitive","left","1.59403300285","2184.16167402","3.40596699715","2187.71931481","3.55030202866","2191.2696569","2.44969797134","2193.77110386","2194.80433989","2194.87298894","2197.87595081","1","2197.88914299","2202.99822402",""
"sujeto_0034539","1","3","1","65","2326.60652399","direct","2","1","2","¿Cuál es el quinto país con 
mas extensión?","Canadá","Brasil","","1","1","0","competitive","right","2.05212402344","2328.65869784","2.94787597656","2331.77811885","4.36751794815","2336.1456809","1.63248205185","2337.82907987","2339.16240597","2339.23023081","2342.23321581","1","2342.24739599","2349.97379088","2203.00983787"
"sujeto_0034539","1","3","2","66","2350.11554289","inverse","1","1","2","¿Qué rasgo facial no tiene
 la Mona Lisa?","Cejas","Pómulos","","0","0","1","competitive","left","1.51316404343","2351.62877798","3.48683595657","2355.27154493","3.753054142","2359.02464294","2.246945858","2361.32376194","2363.07417703","2363.15868187","2366.16036582","0","2366.17558885","2372.44692087",""
"sujeto_0034539","1","3","3","67","2372.57786798","direct","4","1","3","¿Cuál es el país con 
mayor población?","Esados Unidos","China","right","0","0","1","competitive","right","2.3688120842","2374.94676399","2.6311879158","2377.75311184","2.6224899292","2380.37564301","3.3775100708","2383.80392885","2385.44994283","2385.52246189","2388.52541494","1","2388.53948283","2391.906811",""
"sujeto_0034539","1","3","4","68","2392.05894995","inverse","1","1","1","La palabra dinosaurio significa","Lagarto Terrible","Lagarto Dragón","","1","1","0","competitive","right","2.10372877121","2394.16272283","2.89627122879","2397.21383786","4.67280602455","2401.88668704","1.32719397545","2403.26574898","2404.43608904","2404.51627302","2407.51924396","1","2407.53324199","2410.39506602",""
"sujeto_0034539","1","3","5","69","2410.5358789","direct","2","1","3","¿Qué es el membrillero?","Arbol","Arbusto","","0","0","0","competitive","left","1.30777001381","2411.84371591","3.69222998619","2415.689677","3.93820500374","2419.62792087","2.06179499626","2421.73862791","2423.69272089","2423.772681","2426.77565789","0","2426.79089403","2433.25492191",""
"sujeto_0034539","1","3","6","70","2433.39162397","inverse","3","1","3","¿Alrededor de qué planeta orbita 
el satélite Europa?","Jupiter","Saturno","","1","1","1","competitive","left","1.42902493477","2434.820714","3.57097506523","2438.55215597","4.58349919319","2443.13571596","1.41650080681","2444.60291386","2446.14771891","2446.22022986","2449.22322798","1","2449.23729801","2451.44244289",""
"sujeto_0034539","1","3","7","71","2451.589221","direct","3","1","1","¿Donde fue el mundial de 
fútbol de 1954?","Suiza","Suecia","","1","1","1","competitive","left","1.32545113564","2452.91473985","3.67454886436","2456.72737193","3.56821393967","2460.29562688","2.43178606033","2462.77546883","2464.02808404","2464.10995698","2467.11294889","1","2467.12693501","2471.03870797",""
"sujeto_0034539","1","3","8","72","2471.21231389","inverse","1","1","4","¿Cuál de los 7 enanitos
no tenía barba?","Bashful","Mudito","","1","1","0","competitive","left","1.56533098221","2472.77771091","3.43466901779","2476.36951804","4.42808818817","2480.797647","1.57191181183","2482.40550494","2483.98565102","2484.05612302","2487.05909896","1","2487.07411885","2492.00321388",""
"sujeto_0034539","1","3","9","73","2492.12547898","direct","3","1","2","¿Cual red social es
mas utilizada mundialmente?","Instagram","Facebook","","1","1","0","competitive","left","1.76317095757","2493.88871503","3.23682904243","2497.29905486","3.12960195541","2500.42869902","2.87039804459","2503.347085","2505.26432991","2505.34896302","2508.35194182","1","2508.36622286","2511.30072594",""
"sujeto_0034539","1","3","10","74","2511.45097399","inverse","4","1","1","¿Cuándo se inició la copa
 América de fútbol?","1916","1923","","1","1","1","competitive","right","2.29070997238","2513.74175787","2.70929002762","2516.60852194","4.05911684036","2520.66768098","1.94088315964","2522.65953588","2524.55700183","2524.64442396","2527.64741492","1","2527.66148591","2530.31760502",""
"sujeto_0034539","1","3","11","75","2530.4636569","direct","3","1","4","¿Cuántos presidentes de EEUU
han muerto asesinados?","3","4","","0","0","1","competitive","left","2.00801706314","2532.47172499","2.99198293686","2535.61806583","3.41055488586","2539.02868795","2.58944511414","2541.64983988","2543.13375688","2543.21835089","2546.22134495","0","2546.23557401","2549.87968183",""
"sujeto_0034539","1","3","12","76","2550.02091599","inverse","2","1","4","¿Cuántas veces participó EEUU
 en la copa América?","4","5","","0","0","1","competitive","left","1.07429504395","2551.09528899","3.92570495605","2555.17767692","3.07394480705","2558.25168395","2.92605519295","2561.22903395","2562.67308688","2562.74661589","2565.74834585","0","2565.7644999","2571.88169694",""
"sujeto_0034539","1","3","13","77","2572.03270388","direct","4","1","1","¿Cuál de estos países 
no formaba la URSS?","Azeribayán","Afganistán","","0","0","1","competitive","right","2.05296301842","2574.08573389","2.94703698158","2577.18880081","4.13488197327","2581.32374287","1.86511802673","2583.24087381","2584.55395389","2584.62476683","2587.62776899","0","2587.64179492","2595.62037396",""
"sujeto_0034539","1","3","14","78","2595.74430299","inverse","1","1","1","¿En qué año se inauguró
 el teatro Solís?","1867","1856","","0","0","0","competitive","left","1.71135902405","2597.45572686","3.28864097595","2600.90003991","4.2625939846","2605.16269493","1.7374060154","2606.93491483","2607.99123502","2608.06925082","2611.07224584","0","2611.08625603","2617.73235989",""
"sujeto_0034539","1","3","15","79","2617.85487199","direct","1","1","4","¿A qué velocidad vuela 
el avión más rápido?","3529","3874","","0","0","0","competitive","left","2.11482310295","2619.96975994","2.88517689705","2623.01255298","3.48207306862","2626.49466586","2.51792693138","2629.06296587","2630.81846595","2630.89805484","2633.89927292","0","2633.9154129","2636.02436996",""
"sujeto_0034539","1","3","16","80","2636.16686702","inverse","3","1","4","¿De qué año es la primer 
película cinematográfica?","1897","1888","","0","0","0","competitive","left","1.43778896332","2637.60469985","3.56221103668","2641.32300091","4.09058213234","2645.41364384","1.90941786766","2647.35459399","2648.48757601","2648.5725019","2651.57544994","0","2651.58972287","2656.99947691",""
"sujeto_0034539","1","3","17","81","2657.14097691","direct","2","1","3","¿Cuántos países 
tiene nuestro planeta?","191","194","","1","1","1","competitive","left","2.02371001244","2659.16475296","2.97628998756","2662.28373003","4.07393288612","2666.35772586","1.92606711388","2668.34226894","2669.69941282","2669.76915884","2672.77215004","1","2672.78626704","2676.02453303",""
"sujeto_0034539","1","3","18","82","2676.15441704","inverse","2","1","2","¿Cuántos habitantes
 tiene Buenos Aires?","2.9000.000","3650000","","0","0","0","competitive","left","1.70224499702","2677.85672903","3.29775500298","2681.325665","3.74300599098","2685.06871295","2.25699400902","2687.36081886","2688.75807786","2688.84545302","2691.84838986","0","2691.86241388","2697.69176888",""
"sujeto_0034539","1","3","19","83","2697.864115","direct","2","1","1","¿Cuántos kilos forman una tonelada?","1000","1500","left","1","1","1","competitive","left","1.91558003426","2699.779773","3.08441996574","2703.03606486","3.86858296394","2706.90471482","2.13141703606","2709.08888102","2710.9762609","2711.05676198","2714.05974483","1","2714.07386804","2720.03130198",""
"sujeto_0034539","1","3","20","84","2720.17550302","inverse","4","1","4","¿Cuántos estados tiene la 
República del Perú? ","24","23","","0","0","1","individual","left","1.78214097023","2721.95768881","3.21785902977","2725.34974194","3.31388688087","2728.66367197","2.68611311913","2731.3829999","2732.40518785","2732.45167685","2735.45464897","0","2735.46807384","2740.41340089",""
"sujeto_0034539","1","3","21","85","2740.55370283","direct","3","1","3","¿En qué año nació Cristóbal Colón? ","1451","1447","","0","0","1","competitive","right","1.14434695244","2741.69816089","3.85565304756","2745.72621489","3.49847102165","2749.22473097","2.50152897835","2751.76054096","2753.60639381","2753.67847085","2756.68037486","0","2756.69605088","2760.92405891",""
"sujeto_0034539","1","3","22","86","2761.08010101","inverse","4","1","4","¿Cuánto mide la 
Montaña Aconcagua? ","6234","6962","","0","0","1","individual","left","2.51457595825","2763.59475303","2.48542404175","2766.25270486","3.01000094414","2769.26276994","2.98999905586","2772.30459285","2773.59392095","2773.63895893","2776.64192986","0","2776.65583086","2783.83636189",""
"sujeto_0034539","1","3","23","87","2783.99140596","direct","2","1","4","¿Cuánto mide el punto
 más profundo del océano? ","12508","11003","","0","0","1","competitive","right","1.3992729187","2785.39074302","3.6007270813","2789.14851093","4.57410883904","2793.72266293","1.42589116096","2795.18309402","2796.43459487","2796.51769185","2799.52067995","0","2799.53460789","2803.74087286",""
"sujeto_0034539","1","3","24","88","2803.88582993","inverse","1","1","3","¿Cuántos álbumes ha publicado 
el cantante Jaime Roos? ","41","34","","0","0","1","competitive","right","1.21683382988","2805.10270786","3.78316617012","2809.03680086","3.4068338871","2812.44369483","2.5931661129","2815.07038188","2816.56019783","2816.63724685","2819.64024401","0","2819.65435195","2825.85044289",""
"sujeto_0034539","1","3","25","89","2826.02274203","direct","4","1","3","¿En qué año nació el 
ex-presidente Jorge Battle? ","1921","1927","","1","1","1","competitive","left","2.307929039","2828.33073497","2.692070961","2831.18600798","3.47165703773","2834.65772986","2.52834296227","2837.23832393","2838.96902704","2839.039361","2842.04236388","1","2842.05636883","2845.54243684",""
"sujeto_0034539","1","3","26","90","2845.67484093","inverse","1","1","3","¿Cuántas presidencias 
constitucionales  hubo en Uruguay? ","41","42","","0","0","1","competitive","right","1.4838449955","2847.15875196","3.5161550045","2850.83069801","4.17492794991","2855.00566697","1.82507205009","2856.86456585","2858.06838393","2858.14938998","2861.15240788","0","2861.16637588","2866.95001197",""
"sujeto_0034539","1","3","27","91","2867.118186","direct","1","1","2","¿Quién escribió mas sinfonías?","Mozart","Haydn","","1","1","0","competitive","left","1.46850705147","2868.58673596","3.53149294853","2872.27468681","3.2259991169","2875.50072694","2.7740008831","2878.30875897","2879.52623391","2879.60985303","2882.61284995","1","2882.62693","2886.37836695",""
"sujeto_0034539","1","3","28","92","2886.51276684","inverse","4","1","2","¿En qué año nació Michael Jackson?","1958","1953","","1","1","1","competitive","left","1.81292200089","2888.32576489","3.18707799911","2891.68393993","2.68169498444","2894.36567402","3.31830501556","2897.71848392","2899.69671392","2899.7700119","2902.77298403","1","2902.78813291","2908.65044999",""
"sujeto_0034539","1","3","29","93","2908.78924298","direct","3","1","2","¿En qué año entró en vigencia 
la ley antitabaco en Uruguay?","2005","2006","","1","1","1","competitive","left","1.38242197037","2910.17171192","3.61757802963","2913.94589996","4.61773395538","2918.56367898","1.38226604462","2919.99675584","2921.59142685","2921.66416502","2924.66717196","1","2924.68228197","2930.01628685",""
"sujeto_0034539","1","3","30","94","2930.16706204","inverse","3","1","1","¿Cuándo se subió el 
primer video a youtube?","2004","2005","","0","0","1","competitive","left","1.23160099983","2931.39870691","3.76839900017","2935.34097886","3.48465585709","2938.82569504","2.51534414291","2941.39147902","2942.69712186","2942.77548289","2945.77844596","0","2945.79341888","2953.54904294",""
"sujeto_0034539","1","3","31","95","2953.72741699","direct","2","1","1","¿Cuántos habitantes tiene India?","1200 millones","1300 millones","","0","0","0","competitive","left","1.60923600197","2955.33672094","3.39076399803","2958.88362885","2.9479970932","2961.83166885","3.0520029068","2964.93568397","2966.90435386","2966.98762989","2969.99058795","0","2970.00476599","2976.05228281",""
"sujeto_0034539","1","3","32","96","2976.20617199","inverse","4","1","2","¿A qué edad murió Bob Marley?","36","37","","0","0","1","individual","right","2.51053214073","2978.71681094","2.48946785927","2981.3934319","3.15721392632","2984.55071497","2.84278607368","2987.44857383","2989.34644198","2989.38269591","2992.38566089","0","2992.40117598","2995.50361991",""
"sujeto_0034539","1","4","1","97","3119.11726999","direct","2","1","1","¿Cuantos años dirigió la selección 
uruguaya Tabarez?","15 años","13 años","","0","0","0","individual","left","2.11135697365","3121.22867203","2.88864302635","3124.27155089","2.48411488533","3126.75572896","3.51588511467","3130.3207469","3131.5119009","3131.5565989","3134.55954194","0","3134.5735569","3141.64556193","2995.51549482"
"sujeto_0034539","1","4","2","98","3141.791605","inverse","4","1","1","¿Cuantas teclas tiene un teclado 
de computadora generalmente? ","Entre 99 y 108","Entre 109 y 113","","1","1","1","individual","right","1.22814106941","3143.01979995","3.77185893059","3146.94941092","4.54723381996","3151.49671197","1.45276618004","3153.00103903","3154.00381589","3154.05064797","3157.05235887","1","3157.06878996","3159.44023585",""
"sujeto_0034539","1","4","3","99","3159.570086","direct","1","1","1","¿Cuál Departamento tiene
 mayor superficie?","Río Negro","Soriano","","0","0","0","competitive","right","1.03760695457","3160.60773492","3.96239304543","3164.74179196","3.79687213898","3168.53873086","2.20312786102","3170.7923429","3172.50436902","3172.59280396","3175.59577584","0","3175.61096883","3179.93705392",""
"sujeto_0034539","1","4","4","100","3180.07779288","inverse","3","1","2","¿Cuál es el apellido de las 
hermanastras  de  cenicienta?","Tremaine","Truman","","0","0","1","competitive","left","1.74186587334","3181.81970382","3.25813412666","3185.24923396","3.73646402359","3188.98573899","2.26353597641","3191.30108094","3193.17059588","3193.25195789","3196.25494504","0","3196.26944304","3198.96540689",""
"sujeto_0034539","1","4","5","101","3199.10602593","direct","4","1","4","¿Cuál película ganó un
 Oscar a mejor película?","Alto Impacto","Cache","","0","0","1","individual","left","1.44167494774","3200.54774785","3.55832505226","3204.26222301","4.72348618507","3208.98577189","1.27651381493","3210.2970469","3211.41640902","3211.46450782","3214.46746898","0","3214.48157883","3216.74620795",""
"sujeto_0034539","1","4","6","102","3216.88264799","inverse","1","1","3","¿A cuántos centímetros
equivale la medida pié?","25","30","","0","0","1","competitive","left","1.87708497047","3218.75977683","3.12291502953","3222.07126188","4.04845404625","3226.11977696","1.95154595375","3228.12239385","3229.16239691","3229.23990393","3232.24290299","0","3232.25705385","3237.65802598",""
"sujeto_0034539","1","4","7","103","3237.79205704","direct","2","1","2","¿Qué departamento es mas grande?","Cerro Largo","Paysandú","","0","0","0","competitive","left","1.89065599442","3239.68277884","3.10934400558","3242.96562982","2.52107596397","3245.48674893","3.47892403603","3249.01365185","3250.61244988","3250.69904184","3253.70202494","0","3253.71624184","3257.82622099",""
"sujeto_0034539","1","4","8","104","3257.96756697","inverse","2","1","3","¿Quién pintó la Mona Lisa?","Picasso","Da Vinci","right","0","0","1","competitive","left","1.15866708755","3259.12630582","3.84133291245","3263.13865495","2.44600605965","3265.58470488","3.55399394035","3269.173949","3270.77978802","3270.85975695","3273.86274791","0","3273.87603283","3276.03837204",""
"sujeto_0034539","1","4","9","105","3276.17842603","direct","4","1","3","¿Cuántos litros hay en un galon?","3.54","3.78","","1","1","1","competitive","left","1.8362569809","3278.01476002","3.1637430191","3281.35072494","3.14592981339","3284.49669981","2.85407018661","3287.38641095","3288.90430188","3288.98741198","3291.99035096","1","3292.00461483","3297.79636002",""
"sujeto_0034539","1","4","10","106","3297.94006181","inverse","4","1","1","¿Cuántas teclas tiene
 un piano moderno?","80","88","","0","0","1","competitive","right","1.63162899017","3299.57174087","3.36837100983","3303.09592581","3.66175103188","3306.757725","2.33824896812","3309.13062882","3310.13910198","3310.21538591","3313.21635389","0","3313.23256993","3320.03032804",""
"sujeto_0034539","1","4","11","107","3320.16772485","direct","4","1","3","¿Cuántos países hay en África?","54","62","","0","0","1","competitive","left","1.75705003738","3321.92481899","3.24294996262","3325.3249619","3.276720047","3328.60174298","2.723279953","3331.35695386","3333.04748797","3333.12516999","3336.12814593","0","3336.14232183","3343.947088",""
"sujeto_0034539","1","4","12","108","3344.07639694","inverse","1","1","3","¿En qué siglo se crearon
 las primeras pistolas?","XV","XIII","","1","1","1","competitive","left","1.00629687309","3345.08273792","3.99370312691","3349.21760082","3.97805595398","3353.19572496","2.02194404602","3355.25290489","3357.20085597","3357.28737688","3360.29036689","1","3360.30475998","3363.53637981",""
"sujeto_0034539","1","4","13","109","3363.67298794","direct","3","1","4","¿En qué año se estrenó 
la serie friends?","1994","1995","","0","0","1","competitive","right","1.2827038765","3364.95576882","3.7172961235","3368.8287549","2.86500096321","3371.69379687","3.13499903679","3374.86335588","3376.73868799","3376.81544089","3379.81839895","0","3379.83268094","3384.83872795",""
"sujeto_0034539","1","4","14","110","3384.9685359","inverse","3","1","4","¿En qué año nació Hitler?","1889","1887","","0","0","1","competitive","right","2.18318986893","3387.15180302","2.81681013107","3390.12315798","2.87861514091","3393.00181699","3.12138485909","3396.15811992","3397.27249193","3397.34395385","3400.34695292","0","3400.36127591","3405.38827395",""
"sujeto_0034539","1","4","15","111","3405.52897501","direct","1","1","4","¿Cuánto pesa un elefante Africano?","6000 kilos","5400 kilos","","0","0","0","competitive","right","1.80573511124","3407.3347559","3.19426488876","3410.69921088","2.59346985817","3413.29274797","3.40653014183","3416.73301291","3418.088907","3418.16876101","3421.17175198","0","3421.185987","3427.89305902",""
"sujeto_0034539","1","4","16","112","3428.03704","inverse","1","1","2","¿Qué porcentaje de 
la población es zurda?","10%","7%","","1","1","0","competitive","right","1.04469203949","3429.08178496","3.95530796051","3433.19323397","3.57944011688","3436.77273583","2.42055988312","3439.22947288","3440.47253895","3440.54735303","3443.55033588","1","3443.56449986","3449.54427004",""
"sujeto_0034539","1","4","17","113","3449.68271804","direct","1","1","2","¿En qué año se estrenó
Volver al futuro?","1984","1985","","0","0","1","competitive","left","1.77902197838","3451.46180487","3.22097802162","3454.83842182","3.93927001953","3458.77775598","2.06072998047","3460.89111781","3462.45294499","3462.525141","3465.52812099","0","3465.543329","3472.63477492",""
"sujeto_0034539","1","4","18","114","3472.77738881","inverse","3","1","2","¿Cuántos jugadores hay en un 
equipo de baseball?","9","8","","1","1","0","competitive","right","0.798280000687","3473.57571292","4.20171999931","3477.96974087","3.24695086479","3481.21673703","2.75304913521","3484.00340891","3485.61637783","3485.68869996","3488.69166994","1","3488.70589781","3493.68196392",""
"sujeto_0034539","1","4","19","115","3493.80730391","direct","2","1","1","¿Cuántos Oscar ganó
 la película titanic?","13","11","","1","1","1","competitive","right","1.42042398453","3495.22777295","3.57957601547","3498.94683099","3.33787107468","3502.28476381","2.66212892532","3504.99818182","3506.30026889","3506.38267398","3509.38565683","1","3509.40001702","3514.00267291",""
"sujeto_0034539","1","4","20","116","3514.13467598","inverse","4","1","4","¿En qué año comenzó
la segunda guerra mundial?","1939","1976","left","0","0","1","competitive","left","1.63905096054","3515.773772","3.36094903946","3519.3044529","2.50428390503","3521.80880404","3.49571609497","3525.35550904","3527.15532494","3527.22464395","3530.22757792","1","3530.24172282","3534.22888494",""
"sujeto_0034539","1","4","21","117","3534.3599999","direct","2","1","4","¿Cuántos biomas hay en Uruguay?","5","4","","0","0","1","competitive","left","0.904725790024","3535.26477003","4.09527420998","3539.51724601","4.21046495438","3543.72775602","1.78953504562","3545.551965","3547.34933496","3547.42007589","3550.42306185","0","3550.437325","3556.68672895",""
"sujeto_0034539","1","4","22","118","3556.82191992","inverse","2","1","3","¿Cuándo murió Pablo Escobar?","1993","1997","","1","1","1","individual","left","1.39778494835","3558.21978092","3.60221505165","3561.97966003","2.62006306648","3564.59976387","3.37993693352","3568.03007483","3569.81291699","3569.86461592","3572.86756301","1","3572.88280702","3578.58435798",""
"sujeto_0034539","1","4","23","119","3578.73352885","direct","1","1","4","¿Qué serie ha ganado mas premios?","Friends","Murphy Brown","","1","1","0","competitive","left","1.56021499634","3580.29380894","3.43978500366","3583.87489486","3.28982400894","3587.16476488","2.71017599106","3589.92525601","3591.27765894","3591.3599","3594.36288404","1","3594.37694383","3599.93634987",""
"sujeto_0034539","1","4","24","120","3600.0778029","inverse","4","1","2","¿Cuántas fichas tiene el dominó?","26","28","","1","1","1","competitive","right","1.82793784142","3601.90581703","3.17206215858","3605.24877191","3.51494002342","3608.76375604","2.48505997658","3611.28375697","3612.33907986","3612.41840291","3615.42138696","1","3615.43551993","3620.67860699",""
"sujeto_0034539","1","4","25","121","3620.80341887","direct","2","1","4","¿Cuántos son los dientes de leche?","20","25","","0","0","1","competitive","left","1.06436181068","3621.86786699","3.93563818932","3625.96235299","2.58345198631","3628.54585195","3.41654801369","3632.01235986","3633.72270989","3633.79734898","3636.80033684","0","3636.81552982","3638.96123886",""
"sujeto_0034539","1","4","26","122","3639.10015202","inverse","3","1","3","¿Cuántos gramos son una onza?","22","28","","0","0","1","competitive","left","1.49758911133","3640.59781384","3.50241088867","3644.25582504","3.4889550209","3647.74484396","2.5110449791","3650.30615687","3652.30036187","3652.37354493","3655.37636495","0","3655.39136004","3661.68160582",""
"sujeto_0034539","1","4","27","123","3661.81014991","direct","3","1","1","¿Cuándo salió el primer album
 de los Beatles?","1963","1962","","1","1","1","individual","left","1.73960185051","3663.54979682","3.26039814949","3666.9846549","2.79007697105","3669.77480197","3.20992302895","3673.03329992","3674.19693494","3674.23477292","3677.23775101","1","3677.25176001","3681.02379894",""
"sujeto_0034539","1","4","28","124","3681.17009592","inverse","3","1","3","¿Quién fundó la empresa apple?","Carlos Slim","Steve Jobs","","1","1","1","individual","right","1.97168779373","3683.14186597","3.02831220627","3686.34502792","3.46570491791","3689.81079888","2.53429508209","3692.39448285","3693.50917888","3693.54555488","3696.548347","1","3696.56249285","3702.86034489",""
"sujeto_0034539","1","4","29","125","3702.99780583","direct","4","1","2","¿Cuántos municipios hay
 en Montevideo?","8","7","","1","1","1","competitive","left","2.4339389801","3705.43181181","2.5660610199","3708.15467095","2.93705511093","3711.09178782","3.06294488907","3714.20599389","3716.12028384","3716.19060183","3719.193542","1","3719.20772386","3721.2888329",""
"sujeto_0034539","1","4","30","126","3721.42676902","inverse","1","1","1","¿Cuántos kilómetros hay
 de Montevideo a Artigas?","632","599","","0","0","0","competitive","left","1.64801812172","3723.0748539","3.35198187828","3726.58089399","4.05583715439","3730.63679695","1.94416284561","3732.63186002","3734.11498785","3734.18217897","3737.18516493","0","3737.20014691","3743.25226092",""
"sujeto_0034539","1","4","31","127","3743.38478994","direct","2","1","2","¿En qué año nació 
Leonardo Da Vinci?","1452","1511","","1","1","0","competitive","left","1.618942976","3745.00377989","3.381057024","3748.52556086","3.00514388084","3751.53076696","2.99485611916","3754.57541895","3756.42901683","3756.51028395","3759.51325393","1","3759.52729297","3762.67368484",""
"sujeto_0034539","1","4","32","128","3762.81314492","inverse","3","1","1","¿A qué continente
 pertenece el país Gabón?","Africa","Oceanía","","0","0","1","competitive","left","1.78961515427","3764.60282683","3.21038484573","3767.57793784","2.61124300957","3770.18924904","3.38875699043","3773.62841892","3775.44003391","3775.51326489","3778.51621604","0","3778.53134084","3783.76924801",""
