"code","nro_aplicante","nro_bloque","nro_trial_bloque","nro_trial_global","show_game_type","choice_order","rival","pay_individual","pay_competitive","question","answer_left_text","answer_right_text","correct_answer","outcome_individual","outcome_competitive","outcome_rival","game_type","answer","social_time","rt_game_type","feedback_delay","show_question","answer_time","rt_answer_global","feedback_delay_2","show_jitter","jitter_time","show_outcome","outcome_time","outcome_participant_real","show_final_jitter","second_jitter_time","inicio_descanso"
"sujeto_5061298e","1","1","1","1","52.6207039356","direct","3","1","4","¿Cuántos centímetros corresponden
al talle 36 del calzado?","23","24","","0","0","1","competitive","right","2.35014891624","54.9708919525","2.64985108376","57.7899570465","4.75810313225","62.548101902","1.24189686775","63.8443410397","64.8726439476","64.9611520767","67.9641430378","0","67.9786729813","70.1412119865",""
"sujeto_5061298e","1","1","2","2","70.2799351215","inverse","3","1","2","¿Cuántas metros mide la Intendencia
Municipal de Montevideo? ","84","78","","0","0","1","competitive","right","2.07720994949","72.3571901321","2.92279005051","75.4670860767","3.86205601692","79.3292119503","2.13794398308","81.5026779175","83.3807170391","83.4532980919","86.4562699795","0","86.4708089828","88.5635719299",""
"sujeto_5061298e","1","1","3","3","88.7053670883","direct","1","1","3","¿Cuántas La Pasiva
 hay en uruguay?","15","11","","1","1","1","competitive","right","1.96090579033","90.6663501263","3.03909420967","93.878549099","3.08570313454","96.9643130302","2.91429686546","99.9285190105","101.540182114","101.613035917","104.616032124","1","104.631225109","108.909562111",""
"sujeto_5061298e","1","1","4","4","109.03264308","inverse","3","1","3","¿De que color es la camiseta de uruguay?","blanca","celeste","right","1","1","1","competitive","right","1.50372505188","110.536411047","3.49627494812","114.188318014","4.45908093452","118.64744091","1.54091906548","120.222340107","121.427158117","121.506422043","124.509335995","1","124.523957014","127.977855921",""
"sujeto_5061298e","1","1","5","5","128.126250029","direct","2","1","1","¿Cuánto metros mide
la torre Eiffel?","333","324","","1","1","1","competitive","right","2.52184700966","130.648205042","2.47815299034","133.296819925","3.02071094513","136.317569017","2.97928905487","139.349540949","140.870917082","140.95085907","143.953848124","1","143.968146086","151.001374006",""
"sujeto_5061298e","1","1","6","6","151.136631012","inverse","3","1","4","¿Cuantas ciudades existen
 en todo el uruguay?","63","72","","0","0","1","competitive","right","3.31206083298","154.448755026","1.68793916702","156.293388128","3.87529397011","160.16873908","2.12470602989","162.344559908","163.399383068","163.479912043","166.482844114","0","166.497013092","174.123642921",""
"sujeto_5061298e","1","1","7","7","174.24729991","direct","1","1","1","¿Cuantos estados tiene África?","52","54","","1","1","0","competitive","left","1.73254609108","175.979908943","3.26745390892","179.389277935","4.12066793442","183.509987116","1.87933206558","185.438241005","187.302259922","187.373006105","190.375930071","1","190.390443087","196.151477098",""
"sujeto_5061298e","1","1","8","8","196.292149067","inverse","4","1","4","¿En qué año nació
 Stephen Hawking?","1952","1942","","0","0","1","individual","left","2.85088419914","199.143079042","2.14911580086","201.466975927","3.03407597542","204.501091003","2.96592402458","207.518264055","208.962579966","209.002681971","212.003011942","0","212.020630121","218.119931936",""
"sujeto_5061298e","1","1","9","9","218.272438049","direct","2","1","3","¿Cuánto años tenía Artigas
 cuando se fue a Paraguay?","56","57","","1","1","1","competitive","left","2.53776216507","220.810250998","2.46223783493","223.441128016","3.78711414337","227.228301048","2.21288585663","229.497105122","231.046607971","231.131124973","234.133898973","1","234.148541927","240.194921017",""
"sujeto_5061298e","1","1","10","10","240.333189011","inverse","1","1","2","¿Cuantos milímetros 
mide una hoja A2?","420x592","420x594","","0","0","1","competitive","left","1.91827082634","242.251511097","3.08172917366","245.505579948","5.21178507805","250.717406034","0.788214921951","251.542104959","253.110492945","253.192317009","256.195282936","0","256.209728003","263.283333063",""
"sujeto_5061298e","1","1","11","11","263.427910089","direct","3","1","3","¿Cuál es la menor temperatura 
registrada en Uruguay?","-5.4","-7.4","","0","0","1","competitive","left","1.29661798477","264.724573135","3.70338201523","268.585751057","4.03877210617","272.624562025","1.96122789383","274.637120962","276.319171906","276.404565096","279.407506943","0","279.421659946","283.154916048",""
"sujeto_5061298e","1","1","12","12","283.290655136","inverse","2","1","2","¿Cuantos años hace que 
se fundó facebook?","18","17","","0","0","0","competitive","left","1.267993927","284.558717012","3.732006073","288.459747076","4.33190917969","292.791695118","1.66809082031","294.511636972","295.883855104","295.963313103","298.966305017","0","298.980474949","301.755093098",""
"sujeto_5061298e","1","1","13","13","301.898962021","direct","1","1","4","¿Cuál animal es más
 pesado en promedio?","Rinoceronte","Hipopotamo","","0","0","0","competitive","right","3.69187378883","305.590879917","1.30812621117","307.106363058","4.1804921627","311.286912918","1.8195078373","313.157063007","314.235882044","314.308267117","317.311254025","0","317.324914932","321.165921926",""
"sujeto_5061298e","1","1","14","14","321.309828043","inverse","1","1","2","¿Qué personaje de dragon ball 
murió más veces?","Chaoz","Krillin","","1","1","0","competitive","right","1.27508091927","322.58495307","3.72491908073","326.46589303","4.31810998917","330.784039974","1.68189001083","332.516981125","333.974817991","334.050781965","337.05381608","1","337.06904912","344.841958046",""
"sujeto_5061298e","1","1","15","15","345.003993034","direct","3","1","2","La universidad de oxford. 
existe desde:","1096","1249","","1","1","0","competitive","left","2.75719881058","347.7612679","2.24280118942","350.161340952","3.99184203148","354.153244019","2.00815796852","356.213373899","357.262197018","357.347054958","360.350037098","1","360.364180088","367.055043936",""
"sujeto_5061298e","1","1","16","16","367.182200909","inverse","3","1","1","¿Qué escritor latino ganó antes
 el premio nobel?"," García Marquez","Neruda","","0","0","1","competitive","right","1.56703805923","368.749306917","3.43296194077","372.357082129","5.14917492867","377.506298065","0.850825071335","378.40771699","380.147726059","380.225116014","383.228106976","0","383.242742062","386.703258991",""
"sujeto_5061298e","1","1","17","17","386.84454298","direct","4","1","3","¿Cuántos dientes tiene un
 tiburón blanco?","6000","3000","","0","0","1","competitive","right","1.57683801651","388.421422005","3.42316198349","391.999704123","4.01776504517","396.017508984","1.98223495483","398.051479101","399.090485096","399.168884993","402.171864986","0","402.185357094","406.995034933",""
"sujeto_5061298e","1","1","18","18","407.137476921","inverse","4","1","1","¿Cuánto mide el paralelo Ecuador?","40.000km","70.000km","","0","0","1","competitive","right","1.59607601166","408.73359704","3.40392398834","412.293654919","5.42990803719","417.72362709","0.570091962814","418.345391989","420.301486969","420.378875971","423.381865978","0","423.397139072","426.999701977",""
"sujeto_5061298e","1","1","19","19","427.148324966","direct","4","1","2","¿Cuál fue el primer libro 
de Stephen King?","Carrie","The Stand","","1","1","1","","","","","","","","","","","","","","","432.167660952","436.642086029",""
"sujeto_5061298e","1","1","20","20","436.767980099","inverse","2","1","3","¿Qué civilización practicaba
 la momificación?","Grecia","Egipto","right","0","0","1","competitive","right","1.23577809334","438.003853083","3.76422190666","441.926064968","2.93579888344","444.861926079","3.06420111656","447.976191998","449.915520906","449.995090961","452.998048067","1","453.012408972","457.241204977",""
"sujeto_5061298e","1","1","21","21","457.380329132","direct","4","1","4","¿Cuántos millones de visitas
 recibe google por minuto?","3.0","4.5","","0","0","1","competitive","right","0.720564126968","458.100964069","4.27943587303","462.566782951","3.63915801048","466.20598197","2.36084198952","468.619420052","470.134244919","470.220569134","473.22356391","0","473.237985134","480.360683918",""
"sujeto_5061298e","1","1","22","22","480.505847931","inverse","1","1","3","La máquina de fax. se inventó en:","1843","1960","","0","0","1","competitive","right","2.7962679863","483.302191973","2.2037320137","485.665625095","3.50357604027","489.169245005","2.49642395973","491.715079069","492.957147121","493.0322299","496.035176992","0","496.049613953","499.285939932",""
"sujeto_5061298e","1","1","23","23","499.418035984","direct","2","1","4","En la verdadera historia de los
 300 espartanos. habían:","300 soldados","4300 soldados","","1","1","1","competitive","right","2.50119185448","501.919325113","2.49880814552","504.591929913","4.90534996986","509.497318983","1.09465003014","510.643821955","511.905064106","511.977967024","514.980957031","1","514.995461941","518.79720211",""
"sujeto_5061298e","1","1","24","24","518.929744005","inverse","1","1","4","¿Cuántos milímetros crece
 el pelo por día?","0.4","0.04","","0","0","0","competitive","right","2.51161599159","521.441425085","2.48838400841","524.08571291","3.44264507294","527.528415918","2.55735492706","530.13704896","531.896826029","531.971208096","534.974221945","0","534.989401102","541.724487066",""
"sujeto_5061298e","1","1","25","25","541.873234034","direct","4","1","1","¿Cuánto mide la baldosa gris 
clásica de Montevideo?","22x22 cm.","20x20 cm.","","1","1","1","competitive","right","3.00127696991","544.874553919","1.99872303009","547.047075987","4.83656096458","551.883677959","1.16343903542","553.099173069","555.094424009","555.183510065","558.184411049","1","558.200940132","563.743745089",""
"sujeto_5061298e","1","1","26","26","563.86877799","inverse","2","1","2","¿Cuántas películas de rápidos
 y furiosos hay?","10","11","","1","1","0","competitive","left","2.8299369812","566.698848963","2.1700630188","569.041810036","4.17791295052","573.219773054","1.82208704948","575.077199936","576.43523097","576.510890007","579.513880968","1","579.528439045","581.563144922",""
"sujeto_5061298e","1","1","27","27","581.697487116","direct","3","1","1","¿Cuántos masters 1000
 ganó Del Potro?","1","2","","1","1","1","competitive","right","2.20440101624","583.901931047","2.79559898376","586.852134943","4.05571103096","590.90791297","1.94428896904","592.902879","594.657483101","594.737806082","597.740804911","1","597.755135059","605.151499987",""
"sujeto_5061298e","1","1","28","28","605.289237022","inverse","2","1","4","¿Cuántos meses dura el 
embarazo de una leona?","3 meses","4 meses","","0","0","1","competitive","right","3.98976683617","609.279074907","1.01023316383","610.448221922","4.23484706879","614.683128119","1.76515293121","616.498268127","617.609309912","617.683131933","620.686065912","0","620.700417995","627.422920942",""
"sujeto_5061298e","1","1","29","29","627.568690062","direct","1","1","1","¿En qué año fue creado
 el sandwich?","1762","1653","","1","1","0","competitive","right","0.636431217194","628.205183983","4.36356878281","632.755927086","2.71924805641","635.475214958","3.28075194359","638.808097124","640.406661034","640.493397951","643.496380091","1","643.510504961","646.98111701",""
"sujeto_5061298e","1","1","30","30","647.128674984","inverse","4","1","2","El nombre de la moneda de Vietnam es:","Dinar","Dong","","0","0","1","competitive","","1.08927583694","648.218097925","3.91072416306","652.285581112","6","658.28571701","0","658.30181694","659.733793974","659.821675062","662.82467103","0","662.838917971","669.007313967",""
"sujeto_5061298e","1","1","31","31","669.156783104","direct","2","1","1","¿cuantos aleteos puede dar 
un colibrí por segundo?","120","50","","0","0","0","competitive","left","1.824696064","670.981539011","3.175303936","674.330625057","2.4829120636","676.813576937","3.5170879364","680.381381989","682.113811016","682.199491978","685.201234102","0","685.217411995","689.429654121",""
"sujeto_5061298e","1","1","32","32","689.585815907","inverse","4","1","3","¿Qué altura promedio tienen
 los hombres uruguayos?","1.73 m","1.72 m","","1","1","1","competitive","left","2.97480607033","692.560686111","2.02519392967","694.757544994","3.12307882309","697.880682945","2.87692117691","700.809221029","702.071604967","702.160587072","705.163557053","1","705.177830935","709.653739929",""
"sujeto_5061298e","1","2","1","33","836.206154108","direct","1","1","1","¿En qué año nació 
el actor Bradd Pitt?","1967","1963","","1","1","1","competitive","left","0.954298973083","837.160521984","4.04570102692","841.36746192","2.98926591873","844.356784105","3.01073408127","847.417746067","848.51363492","848.586303949","851.589303017","1","851.603543043","857.531137943","709.665740967"
"sujeto_5061298e","1","2","2","34","857.671483994","inverse","2","1","1","¿Cual es el segundo 
monte más alto?","Kanchenjunga","K2","","1","1","1","competitive","right","0.884479999542","858.556030035","4.11552000046","862.828655005","4.2963809967","867.125097036","1.7036190033","868.880579948","870.332999945","870.414461136","873.417459965","1","873.431800127","876.861709118",""
"sujeto_5061298e","1","2","3","35","876.999503136","direct","3","1","1","¿Cuándo finalizó la construcción
 del Palacio Legislativo?","1925","1917","","0","0","1","competitive","right","1.42056012154","878.420112133","3.57943987846","882.17346096","3.73962593079","885.913125992","2.26037406921","888.224035978","889.865739107","889.941334963","892.944317102","0","892.958964109","898.656538963",""
"sujeto_5061298e","1","2","4","36","898.79404211","inverse","3","1","3","¿Cuántos integrantes tenía
 en su inicio  el cuarteto de nos?","3","4","","1","1","1","competitive","right","0.873286008835","899.667397976","4.12671399117","903.949944973","3.48538184166","907.435385942","2.51461815834","910.000998974","911.134108067","911.219490051","914.222455978","1","914.237030029","919.886850119",""
"sujeto_5061298e","1","2","5","37","920.03769207","direct","2","1","3","¿Qué valor tiene el número pi?","3.14","4.18","left","0","0","1","competitive","left","1.12469315529","921.162447929","3.87530684471","925.195425034","2.45705914497","927.652543068","3.54294085503","931.245486975","932.698799133","932.780081987","935.783083916","1","935.797384977","942.717829943",""
"sujeto_5061298e","1","2","6","38","942.849235058","inverse","2","1","2","¿Cuál es la esperanza de vida
 en Uruguay?","75","77","","1","1","0","competitive","right","1.01931810379","943.868616104","3.98068189621","948.006330013","2.75030589104","950.756695032","3.24969410896","954.057282925","955.711076021","955.792483091","958.795464039","1","958.809817076","965.272846937",""
"sujeto_5061298e","1","2","7","39","965.411201954","direct","1","1","2","¿Cuantos pisos tiene la torre 
de las comunicaciones?","26","32","","1","1","0","competitive","right","0.833534955978","966.244837999","4.16646504402","970.568474054","3.94529294968","974.513839006","2.05470705032","976.602700949","978.431502104","978.520890951","981.523874998","1","981.538478136","983.684677124",""
"sujeto_5061298e","1","2","8","40","983.839802027","inverse","2","1","4","¿En qué país sudamericano 
no hay McDonalds?","Bolivia","Venezuela","","0","0","1","competitive","left","1.58909487724","985.428945065","3.41090512276","989.011868","3.77307891846","992.784990072","2.22692108154","995.062731028","996.372136116","996.44747901","999.450448036","0","999.464560986","1005.82428598",""
"sujeto_5061298e","1","2","9","41","1005.949301","direct","3","1","1","¿En qué año empieza
 la Edad Media?","476","512","","1","1","1","competitive","left","1.32474899292","1007.27411604","3.67525100708","1011.10662508","3.67248392105","1014.77917504","2.32751607895","1017.15754509","1018.56130791","1018.64221001","1021.64518809","1","1021.66006398","1024.64861798",""
"sujeto_5061298e","1","2","10","42","1024.79362893","inverse","3","1","4","¿Hace cuántos años surgió
 el ser humano?","200mil","300mil","","0","0","0","competitive","left","1.03860402107","1025.83230996","3.96139597893","1029.96364212","4.32759594917","1034.29130411","1.67240405083","1035.99943113","1037.88549304","1037.96729207","1040.97025394","0","1040.98443913","1044.29489303",""
"sujeto_5061298e","1","2","11","43","1044.43619609","direct","3","1","4","¿Cuántas cuadras tiene
 actualmente 18 de julio? ","36","33","","0","0","1","competitive","left","2.12416410446","1046.56040692","2.87583589554","1049.60915303","4.01016187668","1053.61935401","1.98983812332","1055.64423108","1057.34649992","1057.42875004","1060.43177009","0","1060.44626904","1065.17255592",""
"sujeto_5061298e","1","2","12","44","1065.31434011","inverse","1","1","4","¿Qué juego de equipo se 
considera mas rápido?","Lacrosse","Badminton","","0","0","0","competitive","left","1.15245914459","1066.46688294","3.84754085541","1070.48712206","5.11341619492","1075.60060501","0.886583805084","1076.53923202","1077.78235698","1077.85625601","1080.85924697","0","1080.87404394","1088.86920595",""
"sujeto_5061298e","1","2","13","45","1089.00777507","direct","1","1","3","¿Qué promedio de edad 
vive una jirafa? ","25","20","","0","0","1","competitive","right","1.40090894699","1090.40874791","3.59909105301","1094.1834321","4.16930508614","1098.35278797","1.83069491386","1100.23453903","1101.99606895","1102.06824112","1105.07122207","0","1105.08660603","1111.04232502",""
"sujeto_5061298e","1","2","14","46","1111.18756509","inverse","1","1","2","¿Cuántos grandes lagos hay?","7","5","","0","0","1","competitive","right","1.40626907349","1112.59388399","3.59373092651","1116.34562898","2.65522503853","1119.00089312","3.34477496147","1122.39565802","1123.68780112","1123.76359606","1126.76658106","0","1126.78089094","1134.60227394",""
"sujeto_5061298e","1","2","15","47","1134.74899912","direct","3","1","2","¿Cuántos discos de estudio
 grabó Johhny Cash? ","54","43","","1","1","0","competitive","right","0.89307808876","1135.64216208","4.10692191124","1139.90416503","4.59789896011","1144.5021081","1.40210103989","1145.94042301","1147.219064","1147.29033709","1150.29331708","1","1150.30901909","1156.959934",""
"sujeto_5061298e","1","2","16","48","1157.10934806","inverse","4","1","1","¿Cuántos barrios tiene
 Montevideo? ","71","62","","0","0","1","competitive","right","1.22189211845","1158.33128405","3.77810788155","1162.26798606","2.77329015732","1165.04133892","3.22670984268","1168.31915712","1169.32617497","1169.40351105","1172.40647507","0","1172.42107511","1177.88303995",""
"sujeto_5061298e","1","2","17","49","1178.02551007","direct","3","1","3","¿Qué edad tiene Homero Simpson?","36","42","","0","0","1","competitive","right","1.11087012291","1179.13644099","3.88912987709","1183.1795311","2.20887207985","1185.38846207","3.79112792015","1189.229321","1190.60535192","1190.68125892","1193.68424296","0","1193.69853592","1198.0872941",""
"sujeto_5061298e","1","2","18","50","1198.23341703","inverse","4","1","2","¿Cuántos países con monarquía 
hay en europa actualmente? ","6","10","","1","1","1","competitive","right","2.78609800339","1201.019593","2.21390199661","1203.40638304","4.0022008419","1207.40862393","1.9977991581","1209.45813012","1210.89641404","1210.97548604","1213.97844911","1","1213.99367094","1220.15047503",""
"sujeto_5061298e","1","2","19","51","1220.29524899","direct","2","1","3","¿Cuántos capítulos de
 Friends existen? ","236","228","","1","1","1","competitive","left","0.779422044754","1221.07473493","4.22057795525","1225.44881511","4.17990493774","1229.62876701","1.82009506226","1231.48445296","1232.79003406","1232.86967611","1235.87264895","1","1235.88626194","1238.26191092",""
"sujeto_5061298e","1","2","20","52","1238.40489101","inverse","1","1","3","¿Cuántas óperas compuso Mozart? ","27","22","","1","1","1","competitive","right","1.7199511528","1240.12490511","3.2800488472","1243.5607121","3.25914502144","1246.81992006","2.74085497856","1249.61175609","1250.90392494","1250.97941709","1253.98241806","1","1253.9970541","1261.30852795",""
"sujeto_5061298e","1","2","21","53","1261.44886613","direct","4","1","3","¿Cuántos mundiales de fútbol 
femenino ha realizado FIFA? ","9","7","","1","1","1","competitive","right","0.89622592926","1262.34513712","4.10377407074","1266.60680699","3.84922790527","1270.45607805","2.15077209473","1272.65706706","1273.90082312","1273.97546792","1276.97845602","1","1276.99281907","1283.09528494",""
"sujeto_5061298e","1","2","22","54","1283.22754812","inverse","3","1","2","¿Cuál es la temperatura 
media anual en Montevideo? ","17.5","16.3","","0","0","1","competitive","right","0.842604160309","1284.07019591","4.15739583969","1288.38467598","3.01448082924","1291.39921594","2.98551917076","1294.43479609","1296.37337208","1296.453161","1299.45612192","0","1299.47139001","1306.04088497",""
"sujeto_5061298e","1","2","23","55","1306.18882799","direct","2","1","2","¿En qué año se estrenó el
 videojuego The Sims? ","2000","2002","","0","0","0","competitive","right","0.924535989761","1307.1134131","4.07546401024","1311.35965395","3.13872504234","1314.49841905","2.86127495766","1317.4120121","1319.27402496","1319.34720397","1322.35022211","0","1322.36466599","1329.75835109",""
"sujeto_5061298e","1","2","24","56","1329.89966106","inverse","2","1","1","¿Cuál es la canción con 
mas covers? ","Yesterday","Stand by me","","0","0","0","competitive","left","1.01294779778","1330.91269207","3.98705220222","1335.05861092","4.7370018959","1339.79567504","1.2629981041","1341.11034703","1342.508919","1342.5945971","1345.59755611","0","1345.61226296","1349.78306913",""
"sujeto_5061298e","1","2","25","57","1349.92979598","direct","1","1","4","¿Cuánto duró la guerra
 de los 100 años?","116","123","","0","0","0","competitive","left","0.973919868469","1350.90381408","4.02608013153","1355.08587599","3.1329138279","1358.21883392","2.8670861721","1361.13641","1362.61726308","1362.70532107","1365.70829201","0","1365.722049","1368.04183698",""
"sujeto_5061298e","1","2","26","58","1368.19021797","inverse","4","1","4","¿Qué color tiene la  bandera de Brasil?","Amarillo","Naranja","left","0","0","1","competitive","left","1.33261394501","1369.52289796","3.66738605499","1373.378829","3.62405180931","1377.002918","2.37594819069","1379.42986012","1380.99637103","1381.08127213","1384.08425307","1","1384.098454","1387.13125706",""
"sujeto_5061298e","1","2","27","59","1387.28323603","direct","4","1","3","¿Qué carabela de 
Colon no volvió del viaje?","Santa María","La pinta","","0","0","1","competitive","right","1.91479301453","1389.19807696","3.08520698547","1392.47326112","4.44273495674","1396.91605997","1.55726504326","1398.506742","1399.99781394","1400.07474208","1403.07778001","0","1403.09245992","1405.1919291",""
"sujeto_5061298e","1","2","28","60","1405.32658291","inverse","4","1","4","¿Cuántos huesos tiene
 un adulto humano?","217","206","","0","0","1","competitive","left","1.27655601501","1406.60318494","3.72344398499","1410.49878502","2.95036220551","1413.44918895","3.04963779449","1416.54864907","1417.81966305","1417.90015101","1420.90310907","0","1420.91764402","1428.75534606",""
"sujeto_5061298e","1","2","29","61","1428.90281296","direct","1","1","1","¿Qué país africano fue 
fundado por esclavos?","Liberia","Chad","","0","0","0","competitive","left","0.963552951813","1429.86643505","4.03644704819","1434.06004","4.88627195358","1438.94635201","1.11372804642","1440.11168003","1442.10330892","1442.17966008","1445.18263912","0","1445.19707513","1453.18793702",""
"sujeto_5061298e","1","2","30","62","1453.33114791","inverse","4","1","2","¿A cuánto asciende la cima
 del monte Everest?","7.990 mts","8.848 mts","","0","0","1","competitive","left","1.73835492134","1455.06954813","3.26164507866","1458.50682211","4.57976198196","1463.0866251","1.42023801804","1464.55801392","1465.74285913","1465.82486391","1468.82785511","0","1468.84217811","1476.02623796",""
"sujeto_5061298e","1","2","31","63","1476.16033697","direct","4","1","1","¿Cuál es el país mas chico?","Sealand","Luxemburgo","","1","1","1","competitive","right","0.927347898483","1477.08773804","4.07265210152","1481.31925392","2.5523788929","1483.87168908","3.4476211071","1487.36951494","1489.23299313","1489.32069111","1492.32363296","1","1492.33823991","1495.46055698",""
"sujeto_5061298e","1","2","32","64","1495.60726309","inverse","2","1","4","¿Cuántas pirámides hay en Egipto?","10000","11000","","1","1","1","competitive","right","2.79465103149","1498.40198898","2.20534896851","1500.79027009","4.25567698479","1505.04600906","1.74432301521","1506.84702992","1507.88063502","1507.96438813","1510.96738005","1","1510.98189902","1516.09098101",""
"sujeto_5061298e","1","3","1","65","1607.24967098","direct","2","1","2","¿Cuál es el quinto país con 
mas extensión?","Canadá","Brasil","","1","1","0","competitive","left","0.873066902161","1608.12284398","4.12693309784","1612.403126","3.07961893082","1615.48282504","2.92038106918","1618.45403409","1619.78732705","1619.87260294","1622.87560105","1","1622.89019799","1630.61659193","1516.10289812"
"sujeto_5061298e","1","3","2","66","1630.75826311","inverse","1","1","2","¿Qué rasgo facial no tiene
 la Mona Lisa?","Cejas","Pómulos","","0","0","1","competitive","right","0.621631145477","1631.37994003","4.37836885452","1635.93206096","5.06182599068","1640.99395204","0.938174009323","1641.98372412","1643.73411298","1643.81786299","1646.82084394","0","1646.83526897","1653.106565",""
"sujeto_5061298e","1","3","3","67","1653.25589609","direct","4","1","3","¿Cuál es el país con 
mayor población?","Esados Unidos","China","right","0","0","1","competitive","right","2.36821508408","1655.62417293","2.63178491592","1658.42536902","3.54974102974","1661.97518492","2.45025897026","1664.4791131","1666.12511897","1666.19720101","1669.20016813","1","1669.21437812","1672.58087993",""
"sujeto_5061298e","1","3","4","68","1672.71623802","inverse","1","1","1","La palabra dinosaurio significa","Lagarto Terrible","Lagarto Dragón","","1","1","0","competitive","right","2.18696689606","1674.90327692","2.81303310394","1677.88772202","3.61353611946","1681.50129509","2.38646388054","1683.93691897","1685.10722399","1685.18827605","1688.19120193","1","1688.20586395","1691.06768298",""
"sujeto_5061298e","1","3","5","69","1691.20703506","direct","2","1","3","¿Qué es el membrillero?","Arbol","Arbusto","","0","0","0","competitive","left","2.62831616402","1693.83542299","2.37168383598","1696.38175511","4.82665610313","1701.20845008","1.17334389687","1702.41546798","1704.36958694","1704.45019603","1707.45318413","0","1707.46769905","1713.93174791",""
"sujeto_5061298e","1","3","6","70","1714.06917906","inverse","3","1","3","¿Alrededor de qué planeta orbita 
el satélite Europa?","Jupiter","Saturno","","1","1","1","competitive","left","0.757373094559","1714.82659602","4.24262690544","1719.22567201","5.38786387444","1724.61359096","0.612136125565","1725.27757502","1726.82239604","1726.8950119","1729.89799905","1","1729.91226101","1732.11741304",""
"sujeto_5061298e","1","3","7","71","1732.2465651","direct","3","1","1","¿Donde fue el mundial de 
fútbol de 1954?","Suiza","Suecia","","1","1","1","competitive","left","1.03720498085","1733.28385997","3.96279501915","1737.41575313","3.47197794914","1740.8878231","2.52802205086","1743.46881795","1744.72143197","1744.80364704","1747.80662704","1","1747.82087398","1751.73262811",""
"sujeto_5061298e","1","3","8","72","1751.87174392","inverse","1","1","4","¿Cuál de los 7 enanitos
no tenía barba?","Bashful","Mudito","","1","1","0","competitive","right","0.937104940414","1752.80889297","4.06289505959","1757.04584694","3.84304904938","1760.88893509","2.15695095062","1763.08028913","1764.65987992","1764.73155093","1767.73450804","1","1767.74900603","1772.67811799",""
"sujeto_5061298e","1","3","9","73","1772.81738305","direct","3","1","2","¿Cual red social es
mas utilizada mundialmente?","Instagram","Facebook","","1","1","0","competitive","right","0.749708175659","1773.56714606","4.25029182434","1777.98995113","3.3690738678","1781.35906792","2.6309261322","1784.04113102","1785.95851994","1786.04305696","1789.04600906","1","1789.05939603","1791.99388003",""
"sujeto_5061298e","1","3","10","74","1792.12772107","inverse","4","1","1","¿Cuándo se inició la copa
 América de fútbol?","1916","1923","","1","1","1","competitive","left","1.46242380142","1793.59021091","3.53757619858","1797.28363395","5.29851293564","1802.58218694","0.701487064362","1803.33462691","1805.23204708","1805.31786299","1808.32087111","1","1808.33614612","1810.99222302",""
"sujeto_5061298e","1","3","11","75","1811.13768506","direct","3","1","4","¿Cuántos presidentes de EEUU
han muerto asesinados?","3","4","","0","0","1","competitive","left","3.05358481407","1814.19133711","1.94641518593","1816.31008506","4.47322010994","1820.78334498","1.52677989006","1822.36170697","1823.84565806","1823.92955709","1826.93253994","0","1826.94719791","1830.59127808",""
"sujeto_5061298e","1","3","12","76","1830.73147511","inverse","2","1","4","¿Cuántas veces participó EEUU
 en la copa América?","4","5","","0","0","1","competitive","left","0.995012044907","1831.72655511","4.00498795509","1835.88696909","4.17546510696","1840.06247497","1.82453489304","1841.92130494","1843.36538696","1843.4390099","1846.44198203","0","1846.45694613","1852.57413697",""
"sujeto_5061298e","1","3","13","77","1852.72491598","direct","4","1","1","¿Cuál de estos países 
no formaba la URSS?","Azeribayán","Afganistán","","0","0","1","competitive","right","1.95376086235","1854.67874813","3.04623913765","1857.91522193","5.15940690041","1863.07468891","0.840593099594","1863.9508059","1865.26388812","1865.35111499","1868.35409904","0","1868.36851597","1876.35063195",""
"sujeto_5061298e","1","3","14","78","1876.48618007","inverse","1","1","1","¿En qué año se inauguró
 el teatro Solís?","1867","1856","","0","0","0","competitive","left","0.977617025375","1877.46384811","4.02238297462","1881.64273596","3.64509296417","1885.28787208","2.35490703583","1887.67793012","1888.734231","1888.81236005","1891.81518912","0","1891.83045101","1898.47825909",""
"sujeto_5061298e","1","3","15","79","1898.6150341","direct","1","1","4","¿A qué velocidad vuela 
el avión más rápido?","3529","3874","","0","0","0","competitive","left","1.09497499466","1899.71007991","3.90502500534","1903.77236509","4.58072400093","1908.35315394","1.41927599907","1909.82424998","1911.579813","1911.65802193","1914.66089606","0","1914.67547393","1916.78579402",""
"sujeto_5061298e","1","3","16","80","1916.92698503","inverse","3","1","4","¿De qué año es la primer 
película cinematográfica?","1897","1888","","0","0","0","competitive","right","2.42310190201","1919.35015202","2.57689809799","1922.081532","4.84767103195","1926.92924309","1.15232896805","1928.11773396","1929.25076199","1929.334162","1932.33713007","0","1932.35197711","1937.76174903",""
"sujeto_5061298e","1","3","17","81","1937.9029839","direct","2","1","3","¿Cuántos países 
tiene nuestro planeta?","191","194","","1","1","1","competitive","right","2.65831017494","1940.5613389","2.34168982506","1943.06009603","5.21722984314","1948.27738905","0.78277015686","1949.1118331","1950.46908593","1950.54536605","1953.54832792","1","1953.56242299","1956.80072498",""
"sujeto_5061298e","1","3","18","82","1956.94774008","inverse","2","1","2","¿Cuántos habitantes
 tiene Buenos Aires?","2.9000.000","3650000","","0","0","0","competitive","right","0.855676174164","1957.80348706","4.14432382584","1962.11679697","5.21268200874","1967.32951498","0.787317991257","1968.17002511","1969.56730509","1969.65433192","1972.65689301","0","1972.67161012","1978.50100708",""
"sujeto_5061298e","1","3","19","83","1978.63900805","direct","2","1","1","¿Cuántos kilos forman una tonelada?","1000","1500","left","1","1","1","competitive","left","1.68659210205","1980.32566404","3.31340789795","1983.78100801","4.23464393616","1988.01571202","1.76535606384","1989.83217096","1991.71886897","1991.79935193","1994.80234504","1","1994.81692696","2000.77435303",""
"sujeto_5061298e","1","3","20","84","2000.91904593","inverse","4","1","4","¿Cuántos estados tiene la 
República del Perú? ","24","23","","0","0","1","competitive","left","2.03573894501","2002.95485806","2.96426105499","2006.09246898","3.20738887787","2009.29990196","2.79261112213","2012.14379096","2013.16600704","2013.24466896","2016.24766707","0","2016.26206994","2021.20738292",""
"sujeto_5061298e","1","3","21","85","2021.36427999","direct","3","1","3","¿En qué año nació Cristóbal Colón? ","1451","1447","","0","0","1","competitive","right","2.76976490021","2024.13411307","2.23023509979","2026.53571796","3.90227103233","2030.43804598","2.09772896767","2032.58832598","2034.43421006","2034.52245903","2037.52544212","0","2037.539783","2041.76781702",""
"sujeto_5061298e","1","3","22","86","2041.90834594","inverse","4","1","4","¿Cuánto mide la 
Montaña Aconcagua? ","6234","6962","","0","0","1","competitive","left","1.05971884727","2042.96811295","3.94028115273","2047.07752013","3.80468511581","2050.88227391","2.19531488419","2053.12994504","2054.41929197","2054.51481605","2057.51780105","0","2057.53249311","2064.71611404",""
"sujeto_5061298e","1","3","23","87","2064.84994912","direct","2","1","4","¿Cuánto mide el punto
 más profundo del océano? ","12508","11003","","0","0","1","competitive","left","1.47136211395","2066.3213799","3.52863788605","2070.01024795","3.557076931","2073.56736898","2.442923069","2076.06011891","2077.31162906","2077.39535308","2080.39832091","0","2080.41279912","2084.61909008",""
"sujeto_5061298e","1","3","24","88","2084.76386905","inverse","1","1","3","¿Cuántos álbumes ha publicado 
el cantante Jaime Roos? ","41","34","","0","0","1","competitive","left","1.15957903862","2085.92349505","3.84042096138","2089.91946101","4.4870018959","2094.40650797","1.5129981041","2095.971138","2097.46100307","2097.53858495","2100.54156613","0","2100.555866","2106.75202608",""
"sujeto_5061298e","1","3","25","89","2106.89053011","direct","4","1","3","¿En qué año nació el 
ex-presidente Jorge Battle? ","1921","1927","","1","1","1","competitive","right","1.06605696678","2107.95665002","3.93394303322","2112.06523013","4.35245299339","2116.41774201","1.64754700661","2118.11587501","2119.84654307","2119.93340302","2122.93639112","1","2122.95072794","2126.43679905",""
"sujeto_5061298e","1","3","26","90","2126.56865406","inverse","1","1","3","¿Cuántas presidencias 
constitucionales  hubo en Uruguay? ","41","42","","0","0","1","competitive","right","1.0800921917","2127.64884591","3.9199078083","2131.7390871","4.25871610641","2135.99787211","1.74128389359","2137.77472496","2138.97852993","2139.05832505","2142.05890512","0","2142.07566214","2147.85932493",""
"sujeto_5061298e","1","3","27","91","2148.01056695","direct","1","1","2","¿Quién escribió mas sinfonías?","Mozart","Haydn","","1","1","0","competitive","right","1.23438501358","2149.24500299","3.76561498642","2153.16957712","4.31334996223","2157.4829669","1.68665003777","2159.22060895","2160.43806791","2160.52195096","2163.52292991","1","2163.53846312","2167.2888701",""
"sujeto_5061298e","1","3","28","92","2167.44066405","inverse","4","1","2","¿En qué año nació Michael Jackson?","1958","1953","","1","1","1","competitive","right","0.960468053818","2168.40117812","4.03953194618","2172.59607697","3.95500993729","2176.551126","2.04499006271","2178.64697599","2180.62522697","2180.69813108","2183.70107007","1","2183.71635604","2189.57868409",""
"sujeto_5061298e","1","3","29","93","2189.71772695","direct","3","1","2","¿En qué año entró en vigencia 
la ley antitabaco en Uruguay?","2005","2006","","1","1","1","competitive","right","1.84348797798","2191.56128192","3.15651202202","2194.90803003","4.74316596985","2199.65125203","1.25683403015","2200.94165492","2202.53636098","2202.60893703","2205.61193609","1","2205.62725091","2210.96121693",""
"sujeto_5061298e","1","3","30","94","2211.09524703","inverse","3","1","1","¿Cuándo se subió el 
primer video a youtube?","2004","2005","","0","0","1","competitive","left","2.6442091465","2213.73951912","2.3557908535","2216.26679301","3.52659082413","2219.79344893","2.47340917587","2222.30189204","2223.60756207","2223.68627405","2226.68927002","0","2226.703789","2234.45939612",""
"sujeto_5061298e","1","3","31","95","2234.60473895","direct","2","1","1","¿Cuántos habitantes tiene India?","1200 millones","1300 millones","","0","0","0","competitive","left","0.979819059372","2235.58466601","4.02018094063","2239.79819608","4.43745207787","2244.23570895","1.56254792213","2245.84915113","2247.81875205","2247.90029597","2250.90331697","0","2250.91789198","2256.96542311",""
"sujeto_5061298e","1","3","32","96","2257.10173202","inverse","4","1","2","¿A qué edad murió Bob Marley?","36","37","","0","0","1","competitive","right","0.981598854065","2258.08340812","4.01840114594","2262.27644801","2.98535084724","2265.26186609","3.01464915276","2268.32659197","2270.22445107","2270.31206799","2273.31503201","0","2273.32989907","2276.43236899",""
"sujeto_5061298e","1","4","1","97","2380.47047901","direct","2","1","1","¿Cuantos años dirigió la selección 
uruguaya Tabarez?","15 años","13 años","","0","0","0","competitive","left","0.986845016479","2381.45738792","4.01315498352","2385.6389451","4.65447306633","2390.2934761","1.34552693367","2391.69122696","2392.88232708","2392.9588511","2395.96181607","0","2395.97638798","2403.04788494","2276.44383597"
"sujeto_5061298e","1","4","2","98","2403.19405913","inverse","4","1","1","¿Cuantas teclas tiene un teclado 
de computadora generalmente? ","Entre 99 y 108","Entre 109 y 113","","1","1","1","competitive","left","2.64558196068","2405.83968401","2.35441803932","2408.35295105","5.28978705406","2413.64282799","0.710212945938","2414.40548611","2415.40826201","2415.48863292","2418.49164391","1","2418.50655794","2420.8779521",""
"sujeto_5061298e","1","4","3","99","2421.00844812","direct","1","1","1","¿Cuál Departamento tiene
 mayor superficie?","Río Negro","Soriano","","0","0","0","competitive","left","1.69848203659","2422.70697498","3.30151796341","2426.16335893","4.15850305557","2430.32189608","1.84149694443","2432.19737101","2433.91081309","2433.99826193","2437.00119305","0","2437.01554799","2441.34165406",""
"sujeto_5061298e","1","4","4","100","2441.46738195","inverse","3","1","2","¿Cuál es el apellido de las 
hermanastras  de  cenicienta?","Tremaine","Truman","","0","0","1","competitive","","1.32154488564","2442.78905797","3.67845511436","2446.63744402","6","2452.63757205","0","2452.6545279","2454.52407598","2454.60806203","2457.61106896","0","2457.62529492","2460.32124591",""
"sujeto_5061298e","1","4","5","101","2460.46097493","direct","4","1","4","¿Cuál película ganó un
 Oscar a mejor película?","Alto Impacto","Cache","","0","0","1","competitive","left","1.99351906776","2462.45453811","3.00648093224","2465.61748695","3.78803300858","2469.40556502","2.21196699142","2471.66878605","2472.78818607","2472.86967206","2475.87266302","0","2475.88630295","2478.15093398",""
"sujeto_5061298e","1","4","6","102","2478.28842592","inverse","1","1","3","¿A cuántos centímetros
equivale la medida pié?","25","30","","0","0","1","competitive","right","1.30621910095","2479.59469295","3.69378089905","2483.44245601","4.7302069664","2488.17270303","1.2697930336","2489.47772408","2490.51769114","2490.5951879","2493.59816694","0","2493.612499","2499.01347208",""
"sujeto_5061298e","1","4","7","103","2499.16363597","direct","2","1","2","¿Qué departamento es mas grande?","Cerro Largo","Paysandú","","0","0","0","competitive","left","3.3193089962","2502.48301005","1.6806910038","2504.33756709","2.98843693733","2507.32604313","3.01156306267","2510.38813591","2511.98787713","2512.07339096","2515.07491708","0","2515.09127092","2519.20119905",""
"sujeto_5061298e","1","4","8","104","2519.34185505","inverse","2","1","3","¿Quién pintó la Mona Lisa?","Picasso","Da Vinci","right","0","0","1","competitive","right","1.62733483315","2520.96925592","3.37266516685","2524.49897695","5.51726794243","2530.01630592","0.482732057571","2530.55021691","2532.15609312","2532.23404002","2535.23494601","1","2535.25154805","2537.41388392",""
"sujeto_5061298e","1","4","9","105","2537.552881","direct","4","1","3","¿Cuántos litros hay en un galon?","3.54","3.78","","1","1","1","competitive","left","2.69658589363","2540.24953413","2.30341410637","2542.72283697","2.87361001968","2545.59650493","3.12638998032","2548.77481413","2550.2926929","2550.37708592","2553.38004613","1","2553.39461303","2559.18696404",""
"sujeto_5061298e","1","4","10","106","2559.32918406","inverse","4","1","1","¿Cuántas teclas tiene
 un piano moderno?","80","88","","0","0","1","competitive","right","2.76951503754","2562.09878397","2.23048496246","2564.49997091","4.25977396965","2568.75981402","1.74022603035","2570.55415606","2571.56261492","2571.63801908","2574.64100504","0","2574.65524793","2581.45301008",""
"sujeto_5061298e","1","4","11","107","2581.60692406","direct","4","1","3","¿Cuántos países hay en África?","54","62","","0","0","1","competitive","right","2.35206604004","2583.95903492","2.64793395996","2586.76326799","3.46380782127","2590.22713709","2.53619217873","2592.79797101","2594.48853111","2594.56532907","2597.56827307","0","2597.58382511","2605.38856697",""
"sujeto_5061298e","1","4","12","108","2605.53457594","inverse","1","1","3","¿En qué siglo se crearon
 las primeras pistolas?","XV","XIII","","1","1","1","competitive","right","0.977720975876","2606.51237297","4.02227902412","2610.69320393","4.51411890984","2615.20736194","1.48588109016","2616.74461699","2618.69187093","2618.76168609","2621.76462293","1","2621.77926707","2625.01231194",""
"sujeto_5061298e","1","4","13","109","2625.14741111","direct","3","1","4","¿En qué año se estrenó 
la serie friends?","1994","1995","","0","0","1","competitive","right","2.18411397934","2627.33158994","2.81588602066","2630.30307412","4.36452198029","2634.66765594","1.63547801971","2636.33924198","2638.21454692","2638.2898159","2641.29276299","0","2641.30738306","2646.31348205",""
"sujeto_5061298e","1","4","14","110","2646.45823097","inverse","3","1","4","¿En qué año nació Hitler?","1889","1887","","0","0","1","competitive","right","1.78249788284","2648.24082804","3.21750211716","2651.63190198","2.31987786293","2653.95183897","3.68012213707","2657.68196297","2658.79584312","2658.88394094","2661.88689113","0","2661.90120292","2666.92817211",""
"sujeto_5061298e","1","4","15","111","2667.06936407","direct","1","1","4","¿Cuánto pesa un elefante Africano?","6000 kilos","5400 kilos","","0","0","0","competitive","right","1.24557209015","2668.31500196","3.75442790985","2672.23939013","3.44165110588","2675.681108","2.55834889412","2678.29210091","2679.64800501","2679.72722602","2682.73021007","0","2682.74372911","2689.45081997",""
"sujeto_5061298e","1","4","16","112","2689.59562397","inverse","1","1","2","¿Qué porcentaje de 
la población es zurda?","10%","7%","","1","1","0","competitive","right","2.57662391663","2692.17232203","2.42337608337","2694.76764202","2.87070417404","2697.63841105","3.12929582596","2700.82137895","2702.06448913","2702.13975692","2705.14088392","1","2705.15758204","2711.13731599",""
"sujeto_5061298e","1","4","17","113","2711.2754581","direct","1","1","2","¿En qué año se estrenó
Volver al futuro?","1984","1985","","0","0","1","competitive","left","2.11609005928","2713.39161396","2.88390994072","2716.43255711","2.73201394081","2719.1646111","3.26798605919","2722.48295307","2724.04481196","2724.11851001","2727.12087011","0","2727.13541508","2734.22435403",""
"sujeto_5061298e","1","4","18","114","2734.37082911","inverse","3","1","2","¿Cuántos jugadores hay en un 
equipo de baseball?","9","8","","1","1","0","competitive","right","0.836978912354","2735.20788503","4.16302108765","2739.54468203","4.5831618309","2744.12790513","1.4168381691","2745.59621","2747.21048808","2747.29699111","2750.29998398","1","2750.31435394","2755.291605",""
"sujeto_5061298e","1","4","19","115","2755.43217897","direct","2","1","1","¿Cuántos Oscar ganó
 la película titanic?","13","11","","1","1","1","competitive","left","0.787818908691","2756.220047","4.21218109131","2760.58792901","3.05510902405","2763.64310098","2.94489097595","2766.6394341","2767.94150305","2768.02457809","2771.02754712","1","2771.04201007","2775.64467406",""
"sujeto_5061298e","1","4","20","116","2775.77655697","inverse","4","1","4","¿En qué año comenzó
la segunda guerra mundial?","1939","1976","left","0","0","1","competitive","left","3.5097079277","2779.28639293","1.4902920723","2780.94981408","3.92650604248","2784.87636113","2.07349395752","2787.001055","2788.80092812","2788.88528109","2791.88820195","1","2791.90290999","2795.89007497",""
"sujeto_5061298e","1","4","21","117","2796.0375309","direct","2","1","4","¿Cuántos biomas hay en Uruguay?","5","4","","0","0","1","competitive","left","1.7779610157","2797.81555796","3.2220389843","2801.21098709","2.67253017426","2803.88355613","3.32746982574","2807.26102304","2809.05838299","2809.14641905","2812.1469059","0","2812.16336513","2818.41279602",""
"sujeto_5061298e","1","4","22","118","2818.54825997","inverse","2","1","3","¿Cuándo murió Pablo Escobar?","1993","1997","","1","1","1","competitive","right","0.735481023788","2819.28380394","4.26451897621","2823.72216702","2.67162895203","2826.39384794","3.32837104797","2829.77202201","2831.5548811","2831.64050913","2834.64349508","1","2834.65880108","2840.36248612",""
"sujeto_5061298e","1","4","23","119","2840.50974393","direct","1","1","4","¿Qué serie ha ganado mas premios?","Friends","Murphy Brown","","1","1","0","competitive","left","1.08828091621","2841.59810209","3.91171908379","2845.6973989","3.95461201668","2849.652071","2.04538798332","2851.7500031","2853.10183096","2853.18387103","2856.18689394","1","2856.20167899","2861.76294613",""
"sujeto_5061298e","1","4","24","120","2861.90291095","inverse","4","1","2","¿Cuántas fichas tiene el dominó?","26","28","","1","1","1","competitive","right","1.06826686859","2862.97124195","3.93173313141","2867.06166005","3.63352417946","2870.69522095","2.36647582054","2873.11212397","2874.16741014","2874.2468071","2877.24980092","1","2877.26446795","2882.5075531",""
"sujeto_5061298e","1","4","25","121","2882.64912009","direct","2","1","4","¿Cuántos son los dientes de leche?","20","25","","0","0","1","competitive","left","0.711292982101","2883.36047697","4.2887070179","2887.80587101","3.75657701492","2891.56250906","2.24342298508","2893.85635805","2895.56673408","2895.64117908","2898.64417005","0","2898.65867996","2900.80437994",""
"sujeto_5061298e","1","4","26","122","2900.94345498","inverse","3","1","3","¿Cuántos gramos son una onza?","22","28","","0","0","1","competitive","left","2.36614394188","2903.30964398","2.63385605812","2906.11539197","3.085242033","2909.2006731","2.914757967","2912.16674805","2914.16160297","2914.25155401","2917.25454807","0","2917.2688241","2923.5590589",""
"sujeto_5061298e","1","4","27","123","2923.7038269","direct","3","1","1","¿Cuándo salió el primer album
 de los Beatles?","1963","1962","","1","1","1","competitive","right","1.86699008942","2925.57091308","3.13300991058","2928.89501095","4.56789088249","2933.46296096","1.43210911751","2934.9431839","2936.10679507","2936.17756295","2939.1805501","1","2939.19471192","2942.96679091",""
"sujeto_5061298e","1","4","28","124","2943.09618211","inverse","3","1","3","¿Quién fundó la empresa apple?","Carlos Slim","Steve Jobs","","1","1","1","competitive","right","4.76179218292","2947.85804009","0.238207817078","2948.25194097","3.2211830616","2951.47318506","2.7788169384","2954.30573606","2955.42044306","2955.50617194","2958.50914407","1","2958.52403212","2964.82189894",""
"sujeto_5061298e","1","4","29","125","2964.975981","direct","4","1","2","¿Cuántos municipios hay
 en Montevideo?","8","7","","1","1","1","competitive","left","1.56327581406","2966.5393281","3.43672418594","2970.13238597","3.47692894936","2973.6093719","2.52307105064","2976.16571999","2978.08050108","2978.16740203","2981.17037106","1","2981.18607497","2983.26724005",""
"sujeto_5061298e","1","4","30","126","2983.40406513","inverse","1","1","1","¿Cuántos kilómetros hay
 de Montevideo a Artigas?","632","599","","0","0","0","competitive","left","3.18643903732","2986.59058213","1.81356096268","2988.57602906","3.60155820847","2992.17764807","2.39844179153","2994.62616897","2996.10933208","2996.19421101","2999.19720697","0","2999.21151495","3005.26361704",""
"sujeto_5061298e","1","4","31","127","3005.4138391","direct","2","1","2","¿En qué año nació 
Leonardo Da Vinci?","1452","1511","","1","1","0","competitive","left","1.71989512444","3007.13380909","3.28010487556","3010.586833","3.30093884468","3013.88782096","2.69906115532","3016.63735795","3018.49098492","3018.57283497","3021.57489109","1","3021.59029007","3024.7366879",""
"sujeto_5061298e","1","4","32","128","3024.87488914","inverse","3","1","1","¿A qué continente
 pertenece el país Gabón?","Africa","Oceanía","","0","0","1","competitive","right","1.90707993507","3026.7820251","3.09292006493","3030.04764295","4.20835399628","3034.25605607","1.79164600372","3036.08148694","3037.89317012","3037.9653089","3040.968292","0","3040.98391604","3046.2218461",""
