"code","nro_aplicante","nro_bloque","nro_trial_bloque","nro_trial_global","show_game_type","choice_order","rival","pay_individual","pay_competitive","question","answer_left_text","answer_right_text","correct_answer","outcome_individual","outcome_competitive","outcome_rival","game_type","answer","social_time","rt_game_type","feedback_delay","show_question","answer_time","rt_answer_global","feedback_delay_2","show_jitter","jitter_time","show_outcome","outcome_time","outcome_participant_real","show_final_jitter","second_jitter_time","inicio_descanso"
"sujeto_02de544a","1","1","1","1","763.402503967","direct","3","1","4","¿Cuántos centímetros corresponden
al talle 36 del calzado?","23","24","","0","0","1","competitive","right","2.03319311142","765.43573904","2.96680688858","768.579370022","3.18939399719","771.768843889","2.81060600281","774.631770849","775.660039902","775.732886076","778.735813856","0","778.7497859","780.912315845",""
"sujeto_02de544a","1","1","2","2","781.051944017","inverse","3","1","2","¿Cuántas metros mide la Intendencia
Municipal de Montevideo? ","84","78","","0","0","1","competitive","left","1.75688314438","782.808889866","3.24311685562","786.20697403","4.60681796074","790.813828945","1.39318203926","792.240954876","794.118994951","794.192224026","797.195199966","0","797.209414959","799.302166939",""
"sujeto_02de544a","1","1","3","3","799.4445889","direct","1","1","3","¿Cuántas La Pasiva
 hay en uruguay?","15","11","","1","1","1","competitive","left","2.33835887909","801.783012867","2.66164112091","804.633100986","3.72579503059","808.358933926","2.27420496941","810.684179068","812.295825958","812.36816287","815.371136904","1","815.386031866","819.664407969",""
"sujeto_02de544a","1","1","4","4","819.803812981","inverse","3","1","3","¿De que color es la camiseta de uruguay?","blanca","celeste","right","1","1","1","individual","right","3.94428300858","823.748157024","1.05571699142","824.94359684","3.93245697021","828.876085997","2.06754302979","830.9780159","832.182754993","832.228837967","835.231813908","1","835.246016026","838.699944973",""
"sujeto_02de544a","1","1","5","5","838.86410594","direct","2","1","1","¿Cuánto metros mide
la torre Eiffel?","333","324","","1","1","1","competitive","left","3.41708707809","842.281250954","1.58291292191","844.020056963","2.88415408134","846.904264927","3.11584591866","850.05430007","851.575680971","851.655535936","854.658475876","1","854.67375803","861.710432053",""
"sujeto_02de544a","1","1","6","6","861.858291864","inverse","3","1","4","¿Cuantas ciudades existen
 en todo el uruguay?","63","72","","0","0","1","competitive","left","2.28117394447","864.139528036","2.71882605553","867.048228979","3.08918380737","870.137475014","2.91081619263","873.09956193","874.154358864","874.23425293","877.236510992","0","877.251543045","884.87815094",""
"sujeto_02de544a","1","1","7","7","885.019480944","direct","1","1","1","¿Cuantos estados tiene África?","52","54","","1","1","0","individual","right","1.84997797012","886.869518042","3.15002202988","890.177471876","5.82702803612","896.004555941","0.172971963882","896.211633921","898.07565999","898.128798962","901.131772995","1","901.145627975","906.904485941",""
"sujeto_02de544a","1","1","8","8","907.04748702","inverse","4","1","4","¿En qué año nació
 Stephen Hawking?","1952","1942","","0","0","1","competitive","left","3.50414204597","910.55168891","1.49585795403","912.206219912","5.11351680756","917.319777966","0.886483192444","918.255056858","919.699395895","919.789597988","922.792543888","0","922.806592941","928.905910015",""
"sujeto_02de544a","1","1","9","9","929.057770967","direct","2","1","3","¿Cuánto años tenía Artigas
 cuando se fue a Paraguay?","56","57","","1","1","1","competitive","left","2.43999195099","931.49780488","2.56000804901","934.217712879","3.94508600235","938.162862062","2.05491399765","940.251937866","941.80143404","941.886682987","944.889673948","1","944.902899981","950.950176954",""
"sujeto_02de544a","1","1","10","10","951.088718891","inverse","1","1","2","¿Cuantos milímetros 
mide una hoja A2?","420x592","420x594","","0","0","1","competitive","left","1.88129591942","952.970087051","3.11870408058","956.262781858","5.05915188789","961.321996927","0.940848112106","962.296251059","963.864688873","963.947385073","966.950361967","0","966.965404034","974.039027929",""
"sujeto_02de544a","1","1","11","11","974.183156013","direct","3","1","3","¿Cuál es la menor temperatura 
registrada en Uruguay?","-5.4","-7.4","","0","0","1","competitive","right","2.42992997169","976.61312604","2.57007002831","979.355355024","3.64980506897","983.005217075","2.35019493103","985.407870054","987.089917898","987.176463842","990.179436922","0","990.19341898","993.92671895",""
"sujeto_02de544a","1","1","12","12","994.061343908","inverse","2","1","2","¿Cuantos años hace que 
se fundó facebook?","18","17","","0","0","0","competitive","left","2.40587806702","996.467267036","2.59412193298","999.249634981","5.16359210014","1004.41328287","0.836407899857","1005.28667998","1006.65937901","1006.73585296","1009.73648095","0","1009.7536869","1012.52826595",""
"sujeto_02de544a","1","1","13","13","1012.68877292","direct","1","1","4","¿Cuál animal es más
 pesado en promedio?","Rinoceronte","Hipopotamo","","0","0","0","competitive","right","1.75056791306","1014.43938088","3.24943208694","1017.91120505","3.3771481514","1021.28840685","2.6228518486","1023.94483805","1025.02407598","1025.0956409","1028.09862804","0","1028.11298394","1031.95398188",""
"sujeto_02de544a","1","1","14","14","1032.08186507","inverse","1","1","2","¿Qué personaje de dragon ball 
murió más veces?","Chaoz","Krillin","","1","1","0","competitive","right","1.27464008331","1033.35656404","3.72535991669","1037.23703885","3.62845492363","1040.86555386","2.37154507637","1043.27109885","1044.72893786","1044.80595493","1047.80893707","1","1047.82290006","1055.59583092",""
"sujeto_02de544a","1","1","15","15","1055.72552705","direct","3","1","2","La universidad de oxford. 
existe desde:","1096","1249","","1","1","0","individual","right","2.69116616249","1058.41675997","2.30883383751","1060.89653397","4.05016994476","1064.94676185","1.94983005524","1066.93392897","1067.98271704","1068.018049","1071.02100992","1","1071.03594089","1077.7267859",""
"sujeto_02de544a","1","1","16","16","1077.85338402","inverse","3","1","1","¿Qué escritor latino ganó antes
 el premio nobel?"," García Marquez","Neruda","","0","0","1","individual","right","1.91342806816","1079.76687288","3.08657193184","1083.02652502","4.28129005432","1087.30787301","1.71870994568","1089.07923794","1090.81922197","1090.86341691","1093.86639404","0","1093.88066506","1097.34046507",""
"sujeto_02de544a","1","1","17","17","1097.48185301","direct","4","1","3","¿Cuántos dientes tiene un
 tiburón blanco?","6000","3000","","0","0","1","individual","right","1.40811920166","1098.89001298","3.59188079834","1102.63833499","3.19468903542","1105.83307886","2.80531096458","1108.67203093","1109.71099591","1109.75696588","1112.75996685","0","1112.77335787","1117.58305597",""
"sujeto_02de544a","1","1","18","18","1117.70887685","inverse","4","1","1","¿Cuánto mide el paralelo Ecuador?","40.000km","70.000km","","0","0","1","individual","right","1.78839898109","1119.49733591","3.21160101891","1122.86690402","4.84946012497","1127.71644497","1.15053987503","1128.91544604","1130.87152004","1130.91582298","1133.91877389","0","1133.93384695","1137.53642297",""
"sujeto_02de544a","1","1","19","19","1137.68569994","direct","4","1","2","¿Cuál fue el primer libro 
de Stephen King?","Carrie","The Stand","","1","1","1","competitive","left","3.25185990334","1140.93762207","1.74814009666","1142.84268093","4.38192796707","1147.22466993","1.61807203293","1148.89380288","1150.63792086","1150.71160793","1153.712533","1","1153.728755","1158.20318699",""
"sujeto_02de544a","1","1","20","20","1158.36397505","inverse","2","1","3","¿Qué civilización practicaba
 la momificación?","Grecia","Egipto","right","0","0","1","competitive","right","1.29382801056","1159.65786386","3.70617198944","1163.51975703","2.84310507774","1166.36291695","3.15689492226","1169.55401087","1171.49328399","1171.57196498","1174.57491302","1","1174.59010696","1178.81889105",""
"sujeto_02de544a","1","1","21","21","1179.00893903","direct","4","1","4","¿Cuántos millones de visitas
 recibe google por minuto?","3.0","4.5","","0","0","1","competitive","right","1.49617815018","1180.505162","3.50382184982","1184.16473699","3.77244901657","1187.93722296","2.22755098343","1190.21543598","1191.73031187","1191.81709504","1194.82008004","0","1194.83419085","1201.95687985",""
"sujeto_02de544a","1","1","22","22","1202.10271287","inverse","1","1","3","La máquina de fax. se inventó en:","1843","1960","","0","0","1","competitive","left","1.1326649189","1203.23543787","3.8673350811","1207.26023984","4.88122797012","1212.14152288","1.11877202988","1213.31111288","1214.55323887","1214.62854791","1217.63146496","0","1217.64535189","1220.88050199",""
"sujeto_02de544a","1","1","23","23","1221.030864","direct","2","1","4","En la verdadera historia de los
 300 espartanos. habían:","300 soldados","4300 soldados","","1","1","1","competitive","right","1.16277503967","1222.19370389","3.83722496033","1226.1835289","4.93912291527","1231.12268901","1.06087708473","1232.22030902","1233.48155499","1233.55403185","1236.55700493","1","1236.57112384","1240.37288785",""
"sujeto_02de544a","1","1","24","24","1240.50603294","inverse","1","1","4","¿Cuántos milímetros crece
 el pelo por día?","0.4","0.04","","0","0","0","competitive","right","1.2298438549","1241.73593688","3.7701561451","1245.64721489","3.21267700195","1248.85992789","2.78732299805","1251.68065286","1253.44045687","1253.5158639","1256.51886106","0","1256.53305793","1263.26811385",""
"sujeto_02de544a","1","1","25","25","1263.41745901","direct","4","1","1","¿Cuánto mide la baldosa gris 
clásica de Montevideo?","22x22 cm.","20x20 cm.","","1","1","1","individual","right","1.6357831955","1265.05328703","3.3642168045","1268.59301591","4.80814695358","1273.40121603","1.19185304642","1274.62734103","1276.62257385","1276.66126704","1279.664186","1","1279.67920995","1285.222013",""
"sujeto_02de544a","1","1","26","26","1285.3972919","inverse","2","1","2","¿Cuántas películas de rápidos
 y furiosos hay?","10","11","","1","1","0","competitive","right","1.81514692307","1287.21248007","3.18485307693","1290.58802891","2.09445405006","1292.68252087","3.90554594994","1296.62112999","1297.97913504","1298.05597186","1301.05895185","1","1301.07382298","1303.108531",""
"sujeto_02de544a","1","1","27","27","1303.25854897","direct","3","1","1","¿Cuántos masters 1000
 ganó Del Potro?","1","2","","1","1","1","individual","right","1.27307796478","1304.53168607","3.72692203522","1308.396595","4.25711011887","1312.65374494","1.74288988113","1314.44827604","1316.20287085","1316.24821091","1319.25118184","1","1319.26584387","1326.66219807",""
"sujeto_02de544a","1","1","28","28","1326.83436704","inverse","2","1","4","¿Cuántos meses dura el 
embarazo de una leona?","3 meses","4 meses","","0","0","1","competitive","right","1.22253799438","1328.05696988","3.77746200562","1331.97632384","4.36965799332","1336.34601998","1.63034200668","1338.02690697","1339.13792896","1339.21120906","1342.21249485","0","1342.22867393","1348.94851804",""
"sujeto_02de544a","1","1","29","29","1349.09688497","direct","1","1","1","¿En qué año fue creado
 el sandwich?","1762","1653","","1","1","0","competitive","left","1.63915514946","1350.73606992","3.36084485054","1354.26911402","3.98503494263","1358.25418091","2.01496505737","1360.32254505","1361.92042303","1361.99012995","1364.99314094","1","1365.00715399","1368.47778797",""
"sujeto_02de544a","1","1","30","30","1368.62571788","inverse","4","1","2","El nombre de la moneda de Vietnam es:","Dinar","Dong","","0","0","1","individual","right","1.39471006393","1370.02049184","3.60528993607","1373.78065085","4.3738079071","1378.15449595","1.6261920929","1379.81553793","1381.24747896","1381.28286505","1384.28578186","0","1384.30072188","1390.46915793",""
"sujeto_02de544a","1","1","31","31","1390.60224104","direct","2","1","1","¿cuantos aleteos puede dar 
un colibrí por segundo?","120","50","","0","0","0","competitive","right","1.94843912125","1392.55072498","3.05156087875","1395.77127004","3.65141320229","1399.42274404","2.34858679771","1401.82316804","1403.55555987","1403.62416291","1406.62713695","0","1406.6421659","1410.85444093",""
"sujeto_02de544a","1","1","32","32","1410.99401903","inverse","4","1","3","¿Qué altura promedio tienen
 los hombres uruguayos?","1.73 m","1.72 m","","1","1","1","competitive","left","2.50088000298","1413.49499989","2.49911999702","1416.18504691","3.00086688995","1419.18597198","2.99913311005","1422.23693299","1423.4993639","1423.57260585","1426.57559204","1","1426.58979392","1431.06447196",""
"sujeto_02de544a","1","2","1","33","1572.89681005","direct","1","1","1","¿En qué año nació 
el actor Bradd Pitt?","1967","1963","","1","1","1","competitive","right","1.69573116302","1574.59258294","3.30426883698","1578.05474591","4.35588598251","1582.41068888","1.64411401749","1584.10637903","1585.2022419","1585.27380085","1588.27678394","1","1588.29056787","1594.21651292","1431.07924104"
"sujeto_02de544a","1","2","2","34","1594.35967493","inverse","2","1","1","¿Cual es el segundo 
monte más alto?","Kanchenjunga","K2","","1","1","1","competitive","left","1.56404590607","1595.92378902","3.43595409393","1599.51388788","3.87387394905","1603.38781691","2.12612605095","1605.56693888","1607.01932693","1607.1007359","1610.10369086","1","1610.11789489","1613.54779506",""
"sujeto_02de544a","1","2","3","35","1613.68745494","direct","3","1","1","¿Cuándo finalizó la construcción
 del Palacio Legislativo?","1925","1917","","0","0","1","individual","left","2.14748096466","1615.834975","2.85251903534","1618.84148884","3.828551054","1622.67009687","2.171448946","1624.87727284","1626.51889491","1626.56240201","1629.56532907","0","1629.57936597","1635.27695489",""
"sujeto_02de544a","1","2","4","36","1635.41461802","inverse","3","1","3","¿Cuántos integrantes tenía
 en su inicio  el cuarteto de nos?","3","4","","1","1","1","competitive","right","1.24658203125","1636.66126394","3.75341796875","1640.55423498","4.58798384666","1645.14227486","1.41201615334","1646.60572004","1647.73882294","1647.8228209","1650.82579684","1","1650.84003592","1656.48986292",""
"sujeto_02de544a","1","2","5","37","1656.62480903","direct","2","1","3","¿Qué valor tiene el número pi?","3.14","4.18","left","0","0","1","competitive","left","1.68554210663","1658.31039095","3.31445789337","1661.78285885","2.30856204033","1664.09145999","3.69143795967","1667.83293104","1669.28715301","1669.36758089","1672.37056589","1","1672.38453507","1679.30549097",""
"sujeto_02de544a","1","2","6","38","1679.47008991","inverse","2","1","2","¿Cuál es la esperanza de vida
 en Uruguay?","75","77","","1","1","0","competitive","right","1.02256798744","1680.49272704","3.97743201256","1684.62499094","3.43659687042","1688.06165004","2.56340312958","1690.67755604","1692.33137202","1692.41264391","1695.41560006","1","1695.42944884","1701.89251304",""
"sujeto_02de544a","1","2","7","39","1702.04767203","direct","1","1","2","¿Cuantos pisos tiene la torre 
de las comunicaciones?","26","32","","1","1","0","competitive","right","1.49709796906","1703.54480886","3.50290203094","1707.20558405","4.11429595947","1711.31991887","1.88570404053","1713.25627089","1715.08506584","1715.15796685","1718.16095805","1","1718.17495203","1720.32116294",""
"sujeto_02de544a","1","2","8","40","1720.46016288","inverse","2","1","4","¿En qué país sudamericano 
no hay McDonalds?","Bolivia","Venezuela","","0","0","1","competitive","right","0.946889877319","1721.40715504","4.05311012268","1725.63227391","3.90676903725","1729.5390799","2.09323096275","1731.68322897","1732.99247003","1733.06731796","1736.070297","0","1736.08498001","1742.44470191",""
"sujeto_02de544a","1","2","9","41","1742.58620501","direct","3","1","1","¿En qué año empieza
 la Edad Media?","476","512","","1","1","1","individual","left","2.08998918533","1744.67625594","2.91001081467","1747.7429359","5.02926588058","1752.77223802","0.970734119415","1753.77856708","1755.18233585","1755.22961497","1758.23258185","1","1758.24651694","1761.23508692",""
"sujeto_02de544a","1","2","10","42","1761.36452985","inverse","3","1","4","¿Hace cuántos años surgió
 el ser humano?","200mil","300mil","","0","0","0","competitive","left","1.40476989746","1762.76935291","3.59523010254","1766.51747108","5.36498999596","1771.88251996","0.635010004044","1772.57093906","1774.45647407","1774.53787303","1777.54083395","0","1777.55508184","1780.86555696",""
"sujeto_02de544a","1","2","11","43","1781.00712585","direct","3","1","4","¿Cuántas cuadras tiene
 actualmente 18 de julio? ","36","33","","0","0","1","competitive","right","1.25645089149","1782.26361895","3.74354910851","1786.14726901","3.17135310173","1789.31868005","2.82864689827","1792.19742894","1793.89970207","1793.98288798","1796.98587489","0","1797.00015497","1801.72644997",""
"sujeto_02de544a","1","2","12","44","1801.8688519","inverse","1","1","4","¿Qué juego de equipo se 
considera mas rápido?","Lacrosse","Badminton","","0","0","0","competitive","left","1.06386494637","1802.93277597","3.93613505363","1807.04124784","4.95952296257","1812.00080585","1.04047703743","1813.07616901","1814.31927991","1814.39331388","1817.39619207","0","1817.410074","1825.40522003",""
"sujeto_02de544a","1","2","13","45","1825.54617","direct","1","1","3","¿Qué promedio de edad 
vive una jirafa? ","25","20","","0","0","1","competitive","right","1.12782406807","1826.67405891","3.87217593193","1830.70336199","3.01963710785","1833.72305393","2.98036289215","1836.75491285","1838.5164609","1838.58918905","1841.59216404","0","1841.60706496","1847.56278491",""
"sujeto_02de544a","1","2","14","46","1847.72532988","inverse","1","1","2","¿Cuántos grandes lagos hay?","7","5","","0","0","1","competitive","right","1.19684505463","1848.92223406","3.80315494537","1852.88076687","5.09646391869","1857.97726798","0.903536081314","1858.91736794","1860.20950103","1860.28379297","1863.28677201","0","1863.30176687","1871.12053084",""
"sujeto_02de544a","1","2","15","47","1871.30278206","direct","3","1","2","¿Cuántos discos de estudio
 grabó Johhny Cash? ","54","43","","1","1","0","competitive","right","3.03158712387","1874.33443093","1.96841287613","1876.46082497","3.26858997345","1879.72947192","2.73141002655","1882.51056504","1883.78921604","1883.86108899","1886.86407304","1","1886.87828684","1893.52921796",""
"sujeto_02de544a","1","2","16","48","1893.7224679","inverse","4","1","1","¿Cuántos barrios tiene
 Montevideo? ","71","62","","0","0","1","individual","right","2.24609398842","1895.96862292","2.75390601158","1898.8700099","3.62759494781","1902.49766088","2.37240505219","1904.90749598","1905.914505","1905.95842099","1908.96052694","0","1908.97546887","1914.43654585",""
"sujeto_02de544a","1","2","17","49","1914.59372497","direct","3","1","3","¿Qué edad tiene Homero Simpson?","36","42","","0","0","1","competitive","right","1.90305805206","1916.49682689","3.09694194794","1919.75031304","2.86049294472","1922.61086988","3.13950705528","1925.78427792","1927.16031289","1927.23659396","1930.23960996","0","1930.25300789","1934.64175105",""
"sujeto_02de544a","1","2","18","50","1934.80534792","inverse","4","1","2","¿Cuántos países con monarquía 
hay en europa actualmente? ","6","10","","1","1","1","individual","left","1.52653598785","1936.33192301","3.47346401215","1939.96005988","3.65487098694","1943.61496902","2.34512901306","1946.012254","1947.45053005","1947.49633694","1950.49932003","1","1950.51427102","1956.67103195",""
"sujeto_02de544a","1","2","19","51","1956.81539607","direct","2","1","3","¿Cuántos capítulos de
 Friends existen? ","236","228","","1","1","1","competitive","left","1.4857070446","1958.30116296","3.5142929554","1961.95667696","4.09243083","1966.04916501","1.90756917","1967.99062085","1969.29617596","1969.37453389","1972.3775239","1","1972.39176989","1974.76741505",""
"sujeto_02de544a","1","2","20","52","1974.89377189","inverse","1","1","3","¿Cuántas óperas compuso Mozart? ","27","22","","1","1","1","competitive","left","1.5504860878","1976.44429708","3.4495139122","1980.04959393","2.46169781685","1982.51132703","3.53830218315","1986.08216405","1987.37426686","1987.45040202","1990.45246005","1","1990.46756005","1997.77648497",""
"sujeto_02de544a","1","2","21","53","1997.93630099","direct","4","1","3","¿Cuántos mundiales de fútbol 
femenino ha realizado FIFA? ","9","7","","1","1","1","competitive","right","2.26221203804","2000.19855595","2.73778796196","2003.09474206","3.82376503944","2006.91856289","2.17623496056","2009.14599586","2010.38966894","2010.46261001","2013.46445203","1","2013.48049808","2019.58294988",""
"sujeto_02de544a","1","2","22","54","2019.73213506","inverse","3","1","2","¿Cuál es la temperatura 
media anual en Montevideo? ","17.5","16.3","","0","0","1","competitive","right","1.97455406189","2021.70673704","3.02544593811","2024.88666701","4.70109605789","2029.58782387","1.29890394211","2030.93945789","2032.87651491","2032.95678186","2035.95975399","0","2035.97460103","2042.54413199",""
"sujeto_02de544a","1","2","23","55","2042.67631698","direct","2","1","2","¿En qué año se estrenó el
 videojuego The Sims? ","2000","2002","","0","0","0","competitive","right","1.53853178024","2044.21489096","3.46146821976","2047.83189201","3.81097316742","2051.64292502","2.18902683258","2053.86679697","2055.72850704","2055.81868696","2058.821702","0","2058.83592892","2066.227319",""
"sujeto_02de544a","1","2","24","56","2066.37096","inverse","2","1","1","¿Cuál es la canción con 
mas covers? ","Yesterday","Stand by me","","0","0","0","competitive","left","1.98906707764","2068.36006784","3.01093292236","2071.53036189","3.30976986885","2074.84016991","2.69023013115","2077.56419396","2078.96273088","2079.04923487","2082.05222797","0","2082.06628704","2086.23650885",""
"sujeto_02de544a","1","2","25","57","2086.36763501","direct","1","1","4","¿Cuánto duró la guerra
 de los 100 años?","116","123","","0","0","0","competitive","left","1.15562796593","2087.52332902","3.84437203407","2091.52360702","4.23860001564","2095.76224089","1.76139998436","2097.57540488","2099.05620289","2099.14302897","2102.14601803","0","2102.16023993","2104.4800179",""
"sujeto_02de544a","1","2","26","58","2104.66199684","inverse","4","1","4","¿Qué color tiene la  bandera de Brasil?","Amarillo","Naranja","left","0","0","1","competitive","left","1.08240795135","2105.74447703","3.91759204865","2109.83245301","3.2689640522","2113.10145402","2.7310359478","2115.88402605","2117.45053291","2117.53581595","2120.53880191","1","2120.55277491","2123.58557105",""
"sujeto_02de544a","1","2","27","59","2123.72096086","direct","4","1","3","¿Qué carabela de 
Colon no volvió del viaje?","Santa María","La pinta","","0","0","1","competitive","left","2.0526061058","2125.773628","2.9473938942","2128.89188385","4.91873002052","2133.81067705","1.08126997948","2134.94518995","2136.43622899","2136.51250696","2139.51547384","0","2139.52949595","2141.62896991",""
"sujeto_02de544a","1","2","28","60","2141.79830694","inverse","4","1","4","¿Cuántos huesos tiene
 un adulto humano?","217","206","","0","0","1","competitive","left","1.04839301109","2142.84677505","3.95160698891","2146.96945691","3.47724103928","2150.44675803","2.52275896072","2153.00328493","2154.274333","2154.35418892","2157.35719585","0","2157.37232494","2165.20850897",""
"sujeto_02de544a","1","2","29","61","2165.33952785","direct","1","1","1","¿Qué país africano fue 
fundado por esclavos?","Liberia","Chad","","0","0","0","competitive","left","1.84331607819","2167.18288898","3.15668392181","2170.5154779","5.34445285797","2175.85998797","0.655547142029","2176.56448793","2178.55609989","2178.6321249","2181.63506603","0","2181.64923191","2189.64005089",""
"sujeto_02de544a","1","2","30","62","2189.78434086","inverse","4","1","2","¿A cuánto asciende la cima
 del monte Everest?","7.990 mts","8.848 mts","","0","0","1","individual","left","1.49074697495","2191.27512884","3.50925302505","2194.94445992","4.16265797615","2199.10715985","1.83734202385","2200.99579287","2202.18062496","2202.23025703","2205.23316503","0","2205.24707198","2212.42796206",""
"sujeto_02de544a","1","2","31","63","2212.56517291","direct","4","1","1","¿Cuál es el país mas chico?","Sealand","Luxemburgo","","1","1","1","individual","left","1.16014790535","2213.72539496","3.83985209465","2217.71941495","2.98989892006","2220.70935607","3.01010107994","2223.77152896","2225.63505793","2225.67336702","2228.67632389","1","2228.69004893","2231.81232285",""
"sujeto_02de544a","1","2","32","64","2231.95873594","inverse","2","1","4","¿Cuántas pirámides hay en Egipto?","10000","11000","","1","1","1","competitive","left","1.46168494225","2233.42048192","3.53831505775","2237.11699796","2.28350710869","2239.40056086","3.71649289131","2243.16678286","2244.2003119","2244.28518605","2247.28815389","1","2247.30191803","2252.41093302",""
"sujeto_02de544a","1","3","1","65","2374.08633494","direct","2","1","2","¿Cuál es el quinto país con 
mas extensión?","Canadá","Brasil","","1","1","0","competitive","left","1.28321313858","2375.36961198","3.71678686142","2379.25738788","3.44128799438","2382.69871306","2.55871200562","2385.30790091","2386.64049602","2386.72560906","2389.72857404","1","2389.74361396","2397.46850896","2252.42578506"
"sujeto_02de544a","1","3","2","66","2397.64888597","inverse","1","1","2","¿Qué rasgo facial no tiene
 la Mona Lisa?","Cejas","Pómulos","","0","0","1","competitive","left","1.15691590309","2398.80586791","3.84308409691","2402.80254197","3.26133990288","2406.06394291","2.73866009712","2408.83650994","2410.58692098","2410.65466189","2413.65763092","0","2413.67170787","2419.94051695",""
"sujeto_02de544a","1","3","3","67","2420.07337499","direct","4","1","3","¿Cuál es el país con 
mayor población?","Esados Unidos","China","right","0","0","1","competitive","right","1.33866119385","2421.41210699","3.66133880615","2425.23185706","2.23410105705","2427.46599603","3.76589894295","2431.28141904","2432.92739391","2433.000494","2436.00347996","1","2436.01738691","2439.384727",""
"sujeto_02de544a","1","3","4","68","2439.5194459","inverse","1","1","1","La palabra dinosaurio significa","Lagarto Terrible","Lagarto Dragón","","1","1","0","competitive","left","2.23414993286","2441.75366998","2.76585006714","2444.67287302","3.93031191826","2448.6032269","2.06968808174","2450.72380185","2451.89411306","2451.97492194","2454.97791505","1","2454.99217391","2457.85251307",""
"sujeto_02de544a","1","3","5","69","2457.99444294","direct","2","1","3","¿Qué es el membrillero?","Arbol","Arbusto","","0","0","0","competitive","right","1.12477183342","2459.11925387","3.87522816658","2463.15135598","4.85996890068","2468.01136303","1.14003109932","2469.18645692","2471.1405549","2471.21980405","2474.22277188","0","2474.23704791","2480.70105791",""
"sujeto_02de544a","1","3","6","70","2480.83884001","inverse","3","1","3","¿Alrededor de qué planeta orbita 
el satélite Europa?","Jupiter","Saturno","","1","1","1","competitive","","1.19556713104","2482.03444695","3.80443286896","2485.99699593","6","2491.99710798","0","2492.01188803","2493.556669","2493.63183403","2496.63479996","0","2496.64888096","2498.8540659",""
"sujeto_02de544a","1","3","7","71","2499.00146103","direct","3","1","1","¿Donde fue el mundial de 
fútbol de 1954?","Suiza","Suecia","","1","1","1","individual","left","1.95524907112","2500.95678306","3.04475092888","2504.19050097","1.49921107292","2505.68977189","4.50078892708","2510.23803806","2511.49060988","2511.540874","2514.54380298","1","2514.55789399","2518.46852207",""
"sujeto_02de544a","1","3","8","72","2518.60989785","inverse","1","1","4","¿Cuál de los 7 enanitos
no tenía barba?","Bashful","Mudito","","1","1","0","competitive","right","1.39086699486","2520.00080395","3.60913300514","2523.76608992","3.2186589241","2526.98478985","2.7813410759","2529.81651092","2531.39665103","2531.46816897","2534.46851707","1","2534.48576307","2539.41483498",""
"sujeto_02de544a","1","3","9","73","2539.55335093","direct","3","1","2","¿Cual red social es
mas utilizada mundialmente?","Instagram","Facebook","","1","1","0","competitive","right","1.54656982422","2541.09996486","3.45343017578","2544.72653008","4.02942991257","2548.75601792","1.97057008743","2550.77783394","2552.69516587","2552.77975893","2555.78050804","1","2555.79666805","2558.728508",""
"sujeto_02de544a","1","3","10","74","2558.88217998","inverse","4","1","1","¿Cuándo se inició la copa
 América de fútbol?","1916","1923","","1","1","1","individual","left","1.48886394501","2560.37110591","3.51113605499","2564.03600287","3.31507492065","2567.35113907","2.68492507935","2570.08786988","2571.98451591","2572.02219105","2575.02445602","1","2575.04039001","2577.69649386",""
"sujeto_02de544a","1","3","11","75","2577.84170485","direct","3","1","4","¿Cuántos presidentes de EEUU
han muerto asesinados?","3","4","","0","0","1","competitive","right","1.45649695396","2579.29826093","3.54350304604","2582.996696","2.42157697678","2585.41831303","3.57842302322","2589.04727387","2590.53115892","2590.61588192","2593.61887598","0","2593.63307691","2597.27718902",""
"sujeto_02de544a","1","3","12","76","2597.41811895","inverse","2","1","4","¿Cuántas veces participó EEUU
 en la copa América?","4","5","","0","0","1","competitive","left","0.908280134201","2598.32645988","4.0917198658","2602.57333398","3.56311583519","2606.1365149","2.43688416481","2608.60818005","2610.05223894","2610.12539887","2613.12834406","0","2613.14348507","2619.2606709",""
"sujeto_02de544a","1","3","13","77","2619.39480305","direct","4","1","1","¿Cuál de estos países 
no formaba la URSS?","Azeribayán","Afganistán","","0","0","1","individual","right","1.57376098633","2620.96863198","3.42623901367","2624.55183887","5.23974990845","2629.79164696","0.760250091553","2630.58738089","2631.900491","2631.93770385","2634.94045806","0","2634.95433092","2642.93647504",""
"sujeto_02de544a","1","3","14","78","2643.07281995","inverse","1","1","1","¿En qué año se inauguró
 el teatro Solís?","1867","1856","","0","0","0","competitive","right","2.22504901886","2645.29792285","2.77495098114","2648.23071098","4.44013476372","2652.67098308","1.55986523628","2654.282444","2655.33874702","2655.41673684","2658.41968799","0","2658.43357587","2665.08138394",""
"sujeto_02de544a","1","3","15","79","2665.21936989","direct","1","1","4","¿A qué velocidad vuela 
el avión más rápido?","3529","3874","","0","0","0","competitive","right","1.55456113815","2666.77399397","3.44543886185","2670.38978887","3.86013889313","2674.24998307","2.13986110687","2676.42502403","2678.18052101","2678.25948501","2681.26248598","0","2681.27672887","2683.38699484",""
"sujeto_02de544a","1","3","16","80","2683.52905107","inverse","3","1","4","¿De qué año es la primer 
película cinematográfica?","1897","1888","","0","0","0","competitive","left","0.860996007919","2684.39010406","4.13900399208","2688.68587399","4.80928707123","2693.49522495","1.19071292877","2694.71960688","2695.85260987","2695.93721604","2698.94017386","0","2698.95432186","2704.36406684",""
"sujeto_02de544a","1","3","17","81","2704.50587606","direct","2","1","3","¿Cuántos países 
tiene nuestro planeta?","191","194","","1","1","1","competitive","right","1.32639908791","2705.83231592","3.67360091209","2709.66349792","3.98280191422","2713.64636087","2.01719808578","2715.714432","2717.07162404","2717.14922786","2720.15218401","1","2720.16613007","2723.40443587",""
"sujeto_02de544a","1","3","18","82","2723.56813097","inverse","2","1","2","¿Cuántos habitantes
 tiene Buenos Aires?","2.9000.000","3650000","","0","0","0","competitive","left","1.01820898056","2724.58638096","3.98179101944","2728.73640704","4.40905499458","2733.14545488","1.59094500542","2734.77246499","2736.16967106","2736.24083185","2739.24379206","0","2739.25812101","2745.08447099",""
"sujeto_02de544a","1","3","19","83","2745.22604203","direct","2","1","1","¿Cuántos kilos forman una tonelada?","1000","1500","left","1","1","1","individual","left","3.09048914909","2748.31658101","1.90951085091","2750.38436198","4.43623805046","2754.82065487","1.56376194954","2756.43576288","2758.32313585","2758.36959505","2761.37252092","1","2761.38782406","2767.34524894",""
"sujeto_02de544a","1","3","20","84","2767.48945403","inverse","4","1","4","¿Cuántos estados tiene la 
República del Perú? ","24","23","","0","0","1","competitive","left","1.20629000664","2768.69580698","3.79370999336","2772.64674902","3.48803806305","2776.13482285","2.51196193695","2778.69734502","2779.71957302","2779.79860187","2782.80158997","0","2782.81470895","2787.7599709",""
"sujeto_02de544a","1","3","21","85","2787.89997697","direct","3","1","3","¿En qué año nació Cristóbal Colón? ","1451","1447","","0","0","1","competitive","right","2.08093285561","2789.98096895","2.91906714439","2793.05594802","3.71497607231","2796.77098298","2.28502392769","2799.09074092","2800.93645096","2801.00900102","2804.01194501","0","2804.02608204","2808.25248504",""
"sujeto_02de544a","1","3","22","86","2808.39453197","inverse","4","1","4","¿Cuánto mide la 
Montaña Aconcagua? ","6234","6962","","0","0","1","competitive","left","1.21546888351","2809.61006498","3.78453111649","2813.54769707","4.5524160862","2818.10017085","1.4475839138","2819.59980989","2820.88850904","2820.96749687","2823.96845508","0","2823.98458195","2831.16819406",""
"sujeto_02de544a","1","3","23","87","2831.35311007","direct","2","1","4","¿Cuánto mide el punto
 más profundo del océano? ","12508","11003","","0","0","1","competitive","left","1.35409498215","2832.70724392","3.64590501785","2836.49684286","2.87235498428","2839.36923695","3.12764501572","2842.54621601","2843.79773593","2843.88133192","2846.88429499","0","2846.89830685","2851.10457397",""
"sujeto_02de544a","1","3","24","88","2851.25048995","inverse","1","1","3","¿Cuántos álbumes ha publicado 
el cantante Jaime Roos? ","41","34","","0","0","1","competitive","right","1.03584098816","2852.28637695","3.96415901184","2856.40587687","3.37149691582","2859.77741194","2.62850308418","2862.45682693","2863.94665384","2864.02486086","2867.02783394","0","2867.04190588","2873.23649788",""
"sujeto_02de544a","1","3","25","89","2873.37792802","direct","4","1","3","¿En qué año nació el 
ex-presidente Jorge Battle? ","1921","1927","","1","1","1","competitive","","3.03864192963","2876.41663384","1.96135807037","2878.56804299","6","2884.56817198","0","2884.58678985","2886.31746292","2886.40455699","2889.40750599","0","2889.42171502","2892.90775895",""
"sujeto_02de544a","1","3","26","90","2893.03991795","inverse","1","1","3","¿Cuántas presidencias 
constitucionales  hubo en Uruguay? ","41","42","","0","0","1","competitive","right","0.924743890762","2893.96470404","4.07525610924","2898.19238591","4.49933719635","2902.69178605","1.50066280365","2904.2449379","2905.44869399","2905.5285759","2908.53156185","0","2908.54564285","2914.32929587",""
"sujeto_02de544a","1","3","27","91","2914.46431804","direct","1","1","2","¿Quién escribió mas sinfonías?","Mozart","Haydn","","1","1","0","competitive","left","1.66559195518","2916.12997389","3.33440804482","2919.62222791","2.00665307045","2921.62893796","3.99334692955","2925.67272687","2926.89018488","2926.97523785","2929.97652698","1","2929.99276185","2933.74419594",""
"sujeto_02de544a","1","3","28","92","2933.89418292","inverse","4","1","2","¿En qué año nació Michael Jackson?","1958","1953","","1","1","1","individual","right","1.94988584518","2935.84418106","3.05011415482","2939.08172607","3.67329096794","2942.75507307","2.32670903206","2945.1341629","2947.11241293","2947.15233707","2950.155334","1","2950.16932607","2956.03165102",""
"sujeto_02de544a","1","3","29","93","2956.17105007","direct","3","1","2","¿En qué año entró en vigencia 
la ley antitabaco en Uruguay?","2005","2006","","1","1","1","competitive","right","2.07311201096","2958.244205","2.92688798904","2961.32968307","4.92156505585","2966.25130606","1.07843494415","2967.37744784","2968.97216296","2969.04489493","2972.04786897","1","2972.06198096","2977.39597988",""
"sujeto_02de544a","1","3","30","94","2977.54718304","inverse","3","1","1","¿Cuándo se subió el 
primer video a youtube?","2004","2005","","0","0","1","individual","right","1.99520802498","2979.54243588","3.00479197502","2982.70616698","3.13919687271","2985.84542108","2.86080312729","2988.75524402","2990.06046391","2990.10593605","2993.10847592","0","2993.123595","3000.87923193",""
"sujeto_02de544a","1","3","31","95","3001.025249","direct","2","1","1","¿Cuántos habitantes tiene India?","1200 millones","1300 millones","","0","0","0","competitive","right","1.98129200935","3003.00660992","3.01870799065","3006.18350887","2.80996108055","3008.99350595","3.19003891945","3012.21899295","3014.18848896","3014.26999593","3017.27298498","0","3017.28803992","3023.33552194",""
"sujeto_02de544a","1","3","32","96","3023.50639391","inverse","4","1","2","¿A qué edad murió Bob Marley?","36","37","","0","0","1","individual","left","1.83626794815","3025.34272194","3.16373205185","3028.69711804","2.01465201378","3030.71182895","3.98534798622","3034.74645686","3036.64431906","3036.68174791","3039.68467402","0","3039.69876099","3042.801229",""
"sujeto_02de544a","1","4","1","97","3189.38932395","direct","2","1","1","¿Cuantos años dirigió la selección 
uruguaya Tabarez?","15 años","13 años","","0","0","0","competitive","left","2.35078001022","3191.74016786","2.64921998978","3194.55052495","3.12460303307","3197.67516184","2.87539696693","3200.60063505","3201.79179907","3201.86931396","3204.8722949","0","3204.886204","3211.95649385","3042.8159039"
"sujeto_02de544a","1","4","2","98","3212.10430098","inverse","4","1","1","¿Cuantas teclas tiene un teclado 
de computadora generalmente? ","Entre 99 y 108","Entre 109 y 113","","1","1","1","individual","left","2.39401102066","3214.49835396","2.60598897934","3217.25983191","3.59664392471","3220.85650301","2.40335607529","3223.31308198","3224.31585097","3224.36386204","3227.36683893","1","3227.38093805","3229.75235486",""
"sujeto_02de544a","1","4","3","99","3229.88262796","direct","1","1","1","¿Cuál Departamento tiene
 mayor superficie?","Río Negro","Soriano","","0","0","0","competitive","left","2.55493783951","3232.43766284","2.44506216049","3235.0714159","3.58518600464","3238.65664005","2.41481399536","3241.12266898","3242.83614588","3242.90677786","3245.90850997","0","3245.924752","3250.25084305",""
"sujeto_02de544a","1","4","4","100","3250.40965605","inverse","3","1","2","¿Cuál es el apellido de las 
hermanastras  de  cenicienta?","Tremaine","Truman","","0","0","1","competitive","right","1.88120293617","3252.29090095","3.11879706383","3255.58210897","4.78068494797","3260.36285591","1.21931505203","3261.63394403","3263.50345802","3263.58375096","3266.58670688","0","3266.60201406","3269.29797101",""
"sujeto_02de544a","1","4","5","101","3269.43713307","direct","4","1","4","¿Cuál película ganó un
 Oscar a mejor película?","Alto Impacto","Cache","","0","0","1","competitive","left","3.20099186897","3272.63822484","1.79900813103","3274.62462592","4.09944200516","3278.72410488","1.90055799484","3280.67623997","3281.79561996","3281.87771487","3284.88054299","0","3284.89451599","3287.15914297",""
"sujeto_02de544a","1","4","6","102","3287.31284189","inverse","1","1","3","¿A cuántos centímetros
equivale la medida pié?","25","30","","0","0","1","competitive","right","1.49929594994","3288.81217885","3.50070405006","3292.48536396","4.02282190323","3296.50824404","1.97717809677","3298.535712","3299.57571507","3299.65385199","3302.65683985","0","3302.67000604","3308.07098603",""
"sujeto_02de544a","1","4","7","103","3308.20541692","direct","2","1","2","¿Qué departamento es mas grande?","Cerro Largo","Paysandú","","0","0","0","competitive","right","3.48691987991","3311.692415","1.51308012009","3313.37895703","3.54434609413","3316.92335296","2.45565390587","3319.43046188","3321.03020096","3321.11426306","3324.11724901","0","3324.13253188","3328.24248385",""
"sujeto_02de544a","1","4","8","104","3328.38351393","inverse","2","1","3","¿Quién pintó la Mona Lisa?","Picasso","Da Vinci","right","0","0","1","competitive","right","2.18907904625","3330.57265806","2.81092095375","3333.53855705","2.08003497124","3335.61865902","3.91996502876","3339.57321906","3341.17908788","3341.25853205","3344.26149607","1","3344.27600002","3346.43833184",""
"sujeto_02de544a","1","4","9","105","3346.61128497","direct","4","1","3","¿Cuántos litros hay en un galon?","3.54","3.78","","1","1","1","competitive","left","1.21144390106","3347.82276988","3.78855609894","3351.77919197","3.27158212662","3355.05080986","2.72841787338","3357.83178401","3359.34966087","3359.43296003","3362.43594289","1","3362.45032501","3368.24052095",""
"sujeto_02de544a","1","4","10","106","3368.38491988","inverse","4","1","1","¿Cuántas teclas tiene
 un piano moderno?","80","88","","0","0","1","individual","right","2.43302702904","3370.81800795","2.56697297096","3373.57662606","5.32635903358","3378.90304089","0.673640966415","3379.61275387","3380.62051105","3380.66273904","3383.66572905","0","3383.67999101","3390.47774506",""
"sujeto_02de544a","1","4","11","107","3390.61408901","direct","4","1","3","¿Cuántos países hay en África?","54","62","","0","0","1","competitive","left","1.64100193977","3392.25513291","3.35899806023","3395.78896093","4.26320290565","3400.05220485","1.73679709435","3401.82263088","3403.51314592","3403.59107804","3406.59406805","0","3406.60830593","3414.41307902",""
"sujeto_02de544a","1","4","12","108","3414.55949998","inverse","1","1","3","¿En qué siglo se crearon
 las primeras pistolas?","XV","XIII","","1","1","1","competitive","left","1.19885802269","3415.75840592","3.80114197731","3419.71747804","5.20193004608","3424.91944504","0.798069953918","3425.76941895","3427.71730804","3427.80344296","3430.80638003","1","3430.82042098","3434.05353284",""
"sujeto_02de544a","1","4","13","109","3434.20581198","direct","3","1","4","¿En qué año se estrenó 
la serie friends?","1994","1995","","0","0","1","competitive","left","1.10435199738","3435.31024504","3.89564800262","3439.37544799","4.07315611839","3443.44863987","1.92684388161","3445.42816091","3447.30349994","3447.37890887","3450.38189888","0","3450.39609694","3455.4021709",""
"sujeto_02de544a","1","4","14","110","3455.54753399","inverse","3","1","4","¿En qué año nació Hitler?","1889","1887","","0","0","1","competitive","right","0.972266197205","3456.51984406","4.0277338028","3460.68955803","3.93124508858","3464.62086201","2.06875491142","3466.74012589","3467.85452294","3467.92429686","3470.92726207","0","3470.94150496","3475.96852398",""
"sujeto_02de544a","1","4","15","111","3476.1598959","direct","1","1","4","¿Cuánto pesa un elefante Africano?","6000 kilos","5400 kilos","","0","0","0","competitive","right","0.981597900391","3477.14156389","4.01840209961","3481.35016894","2.73279500008","3484.08302784","3.26720499992","3487.40025687","3488.75617504","3488.83598495","3491.838943","0","3491.85312605","3498.55651188",""
"sujeto_02de544a","1","4","16","112","3498.70462489","inverse","1","1","2","¿Qué porcentaje de 
la población es zurda?","10%","7%","","1","1","0","individual","right","1.43650889397","3500.14119387","3.56349110603","3503.86280394","2.72944784164","3506.592309","3.27055215836","3509.89594007","3511.13905787","3511.18105197","3514.18405294","1","3514.19806886","3520.17782307",""
"sujeto_02de544a","1","4","17","113","3520.33323002","direct","1","1","2","¿En qué año se estrenó
Volver al futuro?","1984","1985","","0","0","1","competitive","left","1.50602912903","3521.839293","3.49397087097","3525.49015784","2.52721691132","3528.01741195","3.47278308868","3531.53786588","3533.09963393","3533.17291093","3536.17589998","0","3536.189991","3543.28045392",""
"sujeto_02de544a","1","4","18","114","3543.42572188","inverse","3","1","2","¿Cuántos jugadores hay en un 
equipo de baseball?","9","8","","1","1","0","competitive","right","2.98686790466","3546.41264892","2.01313209534","3548.58521485","3.57935190201","3552.16460586","2.42064809799","3554.61779189","3556.23207092","3556.30258703","3559.30554485","1","3559.31968307","3564.29692388",""
"sujeto_02de544a","1","4","19","115","3564.43860507","direct","2","1","1","¿Cuántos Oscar ganó
 la película titanic?","13","11","","1","1","1","competitive","right","2.76912403107","3567.20777106","2.23087596893","3569.62990093","2.55192494392","3572.1818819","3.44807505608","3575.68013501","3576.98217893","3577.0655899","3580.06859899","1","3580.08277702","3584.68544793",""
"sujeto_02de544a","1","4","20","116","3584.83382702","inverse","4","1","4","¿En qué año comenzó
la segunda guerra mundial?","1939","1976","left","0","0","1","competitive","left","1.89213109016","3586.72600102","3.10786890984","3590.02409101","3.85993909836","3593.88408494","2.14006090164","3596.0586319","3597.858495","3597.94298506","3600.94594693","1","3600.96005988","3604.94720387",""
"sujeto_02de544a","1","4","21","117","3605.07849503","direct","2","1","4","¿Cuántos biomas hay en Uruguay?","5","4","","0","0","1","competitive","left","1.81764411926","3606.89620304","3.18235588074","3610.25079393","3.11636090279","3613.36719394","2.88363909721","3616.28543997","3618.08281207","3618.17058992","3621.17356801","0","3621.18750501","3627.43649101",""
"sujeto_02de544a","1","4","22","118","3627.58927703","inverse","2","1","3","¿Cuándo murió Pablo Escobar?","1993","1997","","1","1","1","competitive","right","1.94207310677","3629.53141689","3.05792689323","3632.74658799","3.23379516602","3635.98044991","2.76620483398","3638.79717207","3640.57999301","3640.64867806","3643.65165901","1","3643.66587687","3649.36954403",""
"sujeto_02de544a","1","4","23","119","3649.51752901","direct","1","1","4","¿Qué serie ha ganado mas premios?","Friends","Murphy Brown","","1","1","0","competitive","left","1.27502608299","3650.79261899","3.72497391701","3654.67431307","2.87225389481","3657.54660201","3.12774610519","3660.72472501","3662.07715297","3662.15996695","3665.16294503","1","3665.17732692","3670.73653889",""
"sujeto_02de544a","1","4","24","120","3670.87885499","inverse","4","1","2","¿Cuántas fichas tiene el dominó?","26","28","","1","1","1","individual","right","2.40288805962","3673.28180003","2.59711194038","3676.06914186","2.96860599518","3679.03781199","3.03139400482","3682.11983085","3683.17514491","3683.22084093","3686.22379899","1","3686.23796892","3691.48107886",""
"sujeto_02de544a","1","4","25","121","3691.622931","direct","2","1","4","¿Cuántos son los dientes de leche?","20","25","","0","0","1","competitive","right","1.0980181694","3692.72099686","3.9019818306","3696.77789187","3.6130490303","3700.39100289","2.3869509697","3702.81298995","3704.52336693","3704.59753084","3707.60051799","0","3707.61519384","3709.76087904",""
"sujeto_02de544a","1","4","26","122","3709.90056086","inverse","3","1","3","¿Cuántos gramos son una onza?","22","28","","0","0","1","competitive","right","1.63449406624","3711.53512907","3.36550593376","3715.05592585","3.07114696503","3718.12711287","2.92885303497","3721.1064589","3723.10131788","3723.17473793","3726.17772007","0","3726.19187403","3732.48210597",""
"sujeto_02de544a","1","4","27","123","3732.62760091","direct","3","1","1","¿Cuándo salió el primer album
 de los Beatles?","1963","1962","","1","1","1","individual","left","1.1646668911","3733.79234195","3.8353331089","3737.78392386","3.09135293961","3740.87533307","2.90864706039","3743.83515096","3744.99873304","3745.03697991","3748.03992701","1","3748.054214","3751.82623386",""
"sujeto_02de544a","1","4","28","124","3751.97222686","inverse","3","1","3","¿Quién fundó la empresa apple?","Carlos Slim","Steve Jobs","","1","1","1","competitive","right","0.92027592659","3752.89258099","4.07972407341","3757.14442396","5.23404312134","3762.37850595","0.765956878662","3763.19590688","3764.31054187","3764.37996387","3767.38294601","1","3767.39692593","3773.69474697",""
"sujeto_02de544a","1","4","29","125","3773.832057","direct","4","1","2","¿Cuántos municipios hay
 en Montevideo?","8","7","","1","1","1","individual","left","1.25452399254","3775.086622","3.74547600746","3779.00327086","3.04331588745","3782.04662395","2.95668411255","3785.03765392","3786.95247102","3786.98919487","3789.99214387","1","3790.00727296","3792.08845401",""
"sujeto_02de544a","1","4","30","126","3792.22537589","inverse","1","1","1","¿Cuántos kilómetros hay
 de Montevideo a Artigas?","632","599","","0","0","0","competitive","left","2.00926303864","3794.23468995","2.99073696136","3797.38292003","3.55487513542","3800.93785191","2.44512486458","3803.43411589","3804.91711092","3805.0016129","3808.00461698","0","3808.01868486","3814.07078886",""
"sujeto_02de544a","1","4","31","127","3814.22035885","direct","2","1","2","¿En qué año nació 
Leonardo Da Vinci?","1452","1511","","1","1","0","competitive","right","1.50559186935","3815.72599101","3.49440813065","3819.37795401","4.52004408836","3823.89803696","1.47995591164","3825.42824006","3827.28186607","3827.36272407","3830.36570501","1","3830.38083601","3833.52724791",""
"sujeto_02de544a","1","4","32","128","3833.66484094","inverse","3","1","1","¿A qué continente
 pertenece el país Gabón?","Africa","Oceanía","","0","0","1","individual","left","2.27625703812","3835.94116497","2.72374296188","3838.83460999","4.05353522301","3842.88818407","1.94646477699","3844.88822389","3846.69990802","3846.73926687","3849.74046087","0","3849.75762296","3854.99248791",""
