"code","nro_aplicante","nro_bloque","nro_trial_bloque","nro_trial_global","show_game_type","choice_order","rival","pay_individual","pay_competitive","question","answer_left_text","answer_right_text","correct_answer","outcome_individual","outcome_competitive","outcome_rival","game_type","answer","social_time","rt_game_type","feedback_delay","show_question","answer_time","rt_answer_global","feedback_delay_2","show_jitter","jitter_time","show_outcome","outcome_time","outcome_participant_real","show_final_jitter","second_jitter_time","inicio_descanso"
"sujeto_0d6a2bd1","1","1","1","1","611.147567034","direct","3","1","4","¿Cuántos centímetros corresponden
al talle 36 del calzado?","23","24","","0","0","1","individual","right","1.5229549408","612.670563936","3.4770450592","616.307615995","3.81104207039","620.118705988","2.18895792961","622.341651917","623.369894028","623.410588026","626.413563967","0","626.426712036","628.589236975",""
"sujeto_0d6a2bd1","1","1","2","2","628.729368925","inverse","3","1","2","¿Cuántas metros mide la Intendencia
Municipal de Montevideo? ","84","78","","0","0","1","individual","left","1.98848605156","630.717921972","3.01151394844","633.881770849","4.05218291283","637.934013844","1.94781708717","639.934866905","641.812855959","641.851760864","644.854753017","0","644.870363951","646.963086843",""
"sujeto_0d6a2bd1","1","1","3","3","647.105695963","direct","1","1","3","¿Cuántas La Pasiva
 hay en uruguay?","15","11","","1","1","1","individual","left","2.13244581223","649.238185883","2.86755418777","652.2592659","4.20999002457","656.469315052","1.79000997543","658.294560909","659.906209946","659.945904016","662.94727993","1","662.962945938","667.241240025",""
"sujeto_0d6a2bd1","1","1","4","4","667.382019043","inverse","3","1","3","¿De que color es la camiseta de uruguay?","blanca","celeste","right","1","1","1","individual","right","1.22742295265","668.609503984","3.77257704735","672.538272858","2.58026790619","675.118579865","3.41973209381","678.587576866","679.792351007","679.839649916","682.842604876","1","682.856789827","686.310688019",""
"sujeto_0d6a2bd1","1","1","5","5","686.441542864","direct","2","1","1","¿Cuánto metros mide
la torre Eiffel?","333","324","","1","1","1","individual","right","1.70826387405","688.149852991","3.29173612595","691.581764936","3.03509521484","694.616917849","2.96490478516","697.62985301","699.151236057","699.198117018","702.201096058","1","702.215730906","709.252429008",""
"sujeto_0d6a2bd1","1","1","6","6","709.387251854","inverse","3","1","4","¿Cuantas ciudades existen
 en todo el uruguay?","63","72","","0","0","1","individual","right","1.5378510952","710.925149918","3.4621489048","714.524883986","5.44335198402","719.96831584","0.556648015976","720.560047865","721.614871979","721.660085917","724.663064957","0","724.678180933","732.3047719",""
"sujeto_0d6a2bd1","1","1","7","7","732.448676825","direct","1","1","1","¿Cuantos estados tiene África?","52","54","","1","1","0","competitive","left","1.46276903152","733.911506891","3.53723096848","737.588711023","3.70381617546","741.292584896","2.29618382454","743.639143944","745.503175974","745.59058404","748.593538046","1","748.608199835","754.369195938",""
"sujeto_0d6a2bd1","1","1","8","8","754.512944937","inverse","4","1","4","¿En qué año nació
 Stephen Hawking?","1952","1942","","0","0","1","individual","left","1.5897769928","756.102761984","3.4102230072","759.667135","4.69357919693","764.360760927","1.30642080307","765.701406956","767.145721912","767.18552494","770.188483953","0","770.202750921","776.302114964",""
"sujeto_0d6a2bd1","1","1","9","9","776.439337969","direct","2","1","3","¿Cuánto años tenía Artigas
 cuando se fue a Paraguay?","56","57","","1","1","1","individual","left","2.01223516464","778.451622963","2.98776483536","781.594763041","5.50469112396","787.099514008","0.495308876038","787.645920992","789.195400953","789.246587992","792.249502897","1","792.263887882","798.311146975",""
"sujeto_0d6a2bd1","1","1","10","10","798.449403048","inverse","1","1","2","¿Cuantos milímetros 
mide una hoja A2?","420x592","420x594","","0","0","1","individual","left","1.87088513374","800.320382833","3.12911486626","803.622509003","5.28765296936","808.910222054","0.71234703064","809.672181845","811.240603924","811.288661957","814.291636944","0","814.306288958","821.379933834",""
"sujeto_0d6a2bd1","1","1","11","11","821.509520054","direct","3","1","3","¿Cuál es la menor temperatura 
registrada en Uruguay?","-5.4","-7.4","","0","0","1","individual","left","1.5686070919","823.078193903","3.4313929081","826.667397976","5.09165000916","831.759114981","0.908349990845","832.702015877","834.384063005","834.43588686","837.43885088","0","837.453872919","841.187165976",""
"sujeto_0d6a2bd1","1","1","12","12","841.322067976","inverse","2","1","2","¿Cuantos años hace que 
se fundó facebook?","18","17","","0","0","0","individual","left","1.61693501472","842.93904686","3.38306498528","846.477530956","4.46634411812","850.94391799","1.53365588188","852.529503822","853.902240038","853.946251869","856.949208975","0","856.963826895","859.738467932",""
"sujeto_0d6a2bd1","1","1","13","13","859.882810831","direct","1","1","4","¿Cuál animal es más
 pesado en promedio?","Rinoceronte","Hipopotamo","","0","0","0","individual","left","1.8480489254","861.730929852","3.1519510746","865.053653002","5.06815218925","870.121848822","0.931847810745","871.104342937","872.183598995","872.22140789","875.224370956","0","875.239677906","879.080649853",""
"sujeto_0d6a2bd1","1","1","14","14","879.225632906","inverse","1","1","2","¿Qué personaje de dragon ball 
murió más veces?","Chaoz","Krillin","","1","1","0","individual","left","1.75200796127","880.977697849","3.24799203873","884.38020587","3.6774790287","888.057728052","2.3225209713","890.464546919","891.92236805","891.965724945","894.968442917","1","894.982866049","902.755761862",""
"sujeto_0d6a2bd1","1","1","15","15","902.904953003","direct","3","1","2","La universidad de oxford. 
existe desde:","1096","1249","","1","1","0","individual","right","1.29774618149","904.202740908","3.70225381851","908.058835983","4.79081106186","912.849707842","1.20918893814","914.093621969","915.142459869","915.194027901","918.197005987","1","918.211704969","924.902503014",""
"sujeto_0d6a2bd1","1","1","16","16","925.048061848","inverse","3","1","1","¿Qué escritor latino ganó antes
 el premio nobel?"," García Marquez","Neruda","","0","0","1","individual","left","1.48857092857","926.536674976","3.51142907143","930.20320797","5.13036894798","935.333643913","0.869631052017","936.25451088","937.994494915","938.03834796","941.04133296","0","941.055752993","944.516283989",""
"sujeto_0d6a2bd1","1","1","17","17","944.656538963","direct","4","1","3","¿Cuántos dientes tiene un
 tiburón blanco?","6000","3000","","0","0","1","individual","right","1.95513677597","946.611815929","3.04486322403","949.844663858","5.7199549675","955.564678907","0.280045032501","955.882580996","956.921569824","956.966224909","959.969194889","0","959.983527899","964.793196917",""
"sujeto_0d6a2bd1","1","1","18","18","964.932796001","inverse","4","1","1","¿Cuánto mide el paralelo Ecuador?","40.000km","70.000km","","0","0","1","individual","left","1.77082514763","966.703681946","3.22917485237","970.089261055","4.46130299568","974.55060792","1.53869700432","976.124250889","978.07942605","978.125190973","981.128175974","0","981.14269495","984.745262861",""
"sujeto_0d6a2bd1","1","1","19","19","984.894239902","direct","4","1","2","¿Cuál fue el primer libro 
de Stephen King?","Carrie","The Stand","","1","1","1","individual","right","1.88055992126","986.774864912","3.11944007874","990.068367958","4.80823397636","994.876663923","1.19176602364","996.102532864","997.846652985","997.885841846","1000.88880706","1","1000.90456486","1005.37900686",""
"sujeto_0d6a2bd1","1","1","20","20","1005.52298689","inverse","2","1","3","¿Qué civilización practicaba
 la momificación?","Grecia","Egipto","right","0","0","1","individual","right","1.81863284111","1007.34166288","3.18136715889","1010.69570088","4.34497499466","1015.04071689","1.65502500534","1016.72925091","1018.66853285","1018.71390986","1021.71688104","1","1021.73111892","1025.95991302",""
"sujeto_0d6a2bd1","1","1","21","21","1026.101861","direct","4","1","4","¿Cuántos millones de visitas
 recibe google por minuto?","3.0","4.5","","0","0","1","individual","right","1.29682707787","1027.39875293","3.70317292213","1031.25132394","4.85533094406","1036.10671496","1.14466905594","1037.30427194","1038.81915402","1038.85426283","1041.85549688","0","1041.87223005","1048.99486589",""
"sujeto_0d6a2bd1","1","1","22","22","1049.12347484","inverse","1","1","3","La máquina de fax. se inventó en:","1843","1960","","0","0","1","individual","right","1.2883181572","1050.41183805","3.7116818428","1054.2674849","4.94228982925","1059.20981598","1.05771017075","1060.30261397","1061.54466105","1061.58602095","1064.58775401","0","1064.6037879","1067.84007382",""
"sujeto_0d6a2bd1","1","1","23","23","1067.97308087","direct","2","1","4","En la verdadera historia de los
 300 espartanos. habían:","300 soldados","4300 soldados","","1","1","1","individual","right","1.62669086456","1069.5998199","3.37330913544","1073.12782598","5.75697922707","1078.88484597","0.243020772934","1079.16209483","1080.42333484","1080.46257806","1083.46543884","1","1083.47973585","1087.28151298",""
"sujeto_0d6a2bd1","1","1","24","24","1087.4138639","inverse","1","1","4","¿Cuántos milímetros crece
 el pelo por día?","0.4","0.04","","0","0","0","individual","right","1.40396904945","1088.81789589","3.59603095055","1092.55416203","4.83371710777","1097.38793898","1.16628289223","1098.60605288","1100.36676002","1100.40640497","1103.40937686","0","1103.42425394","1110.15932798",""
"sujeto_0d6a2bd1","1","1","25","25","1110.32634497","direct","4","1","1","¿Cuánto mide la baldosa gris 
clásica de Montevideo?","22x22 cm.","20x20 cm.","","1","1","1","individual","","1.50959801674","1111.83598685","3.49040198326","1115.48147297","6","1121.48161197","0","1121.49715185","1123.49239087","1123.53327894","1126.53622389","0","1126.5508709","1132.09368587",""
"sujeto_0d6a2bd1","1","1","26","26","1132.25316501","inverse","2","1","2","¿Cuántas películas de rápidos
 y furiosos hay?","10","11","","1","1","0","individual","left","1.31896901131","1133.57220602","3.68103098869","1137.41097999","3.66607713699","1141.07709289","2.33392286301","1143.46141696","1144.819417","1144.86271501","1147.86570382","1","1147.87808704","1149.91279292",""
"sujeto_0d6a2bd1","1","1","27","27","1150.06310391","direct","3","1","1","¿Cuántos masters 1000
 ganó Del Potro?","1","2","","1","1","1","individual","right","1.28807783127","1151.35124397","3.71192216873","1155.21913695","4.30207395554","1159.52127099","1.69792604446","1161.27113891","1163.02577996","1163.0720799","1166.07508183","1","1166.089571","1173.48593187",""
"sujeto_0d6a2bd1","1","1","28","28","1173.62520194","inverse","2","1","4","¿Cuántos meses dura el 
embarazo de una leona?","3 meses","4 meses","","0","0","1","individual","right","1.62120985985","1175.2464819","3.37879014015","1178.76538992","4.33396697044","1183.09942389","1.66603302956","1184.81707883","1185.92816687","1185.96806693","1188.97104001","0","1188.98476791","1195.70722985",""
"sujeto_0d6a2bd1","1","1","29","29","1195.83879805","direct","1","1","1","¿En qué año fue creado
 el sandwich?","1762","1653","","1","1","0","individual","right","1.20566105843","1197.04450393","3.79433894157","1200.99400592","4.00648784637","1205.00055194","1.99351215363","1207.04312086","1208.64168882","1208.69376898","1211.69673491","1","1211.71132302","1215.18196082",""
"sujeto_0d6a2bd1","1","1","30","30","1215.33097506","inverse","4","1","2","El nombre de la moneda de Vietnam es:","Dinar","Dong","","0","0","1","individual","left","1.08459401131","1216.41563201","3.91540598869","1220.48666501","4.02397012711","1224.51069689","1.97602987289","1226.53801799","1227.97001696","1228.02301884","1231.02600193","0","1231.03961897","1237.20804691",""
"sujeto_0d6a2bd1","1","1","31","31","1237.34491086","direct","2","1","1","¿cuantos aleteos puede dar 
un colibrí por segundo?","120","50","","0","0","0","individual","right","1.20772409439","1238.55269003","3.79227590561","1242.49817085","4.20559310913","1246.70380402","1.79440689087","1248.54966998","1250.282022","1250.33390594","1253.33683491","0","1253.35160685","1257.56384206",""
"sujeto_0d6a2bd1","1","1","32","32","1257.704633","inverse","4","1","3","¿Qué altura promedio tienen
 los hombres uruguayos?","1.73 m","1.72 m","","1","1","1","individual","left","1.60127401352","1259.30595088","3.39872598648","1262.85922384","3.68272089958","1266.54198599","2.31727910042","1268.91037202","1270.17279387","1270.21038103","1273.21333385","1","1273.22855687","1277.70439601",""
"sujeto_0d6a2bd1","1","2","1","33","1593.81559801","direct","1","1","1","¿En qué año nació 
el actor Bradd Pitt?","1967","1963","","1","1","1","individual","right","1.52926111221","1595.34490204","3.47073888779","1598.967237","4.86630797386","1603.83366299","1.13369202614","1605.00543404","1606.10124302","1606.15335488","1609.15543103","1","1609.17387795","1615.10137105","1277.71826386"
"sujeto_0d6a2bd1","1","2","2","34","1615.25986004","inverse","2","1","1","¿Cual es el segundo 
monte más alto?","Kanchenjunga","K2","","1","1","1","individual","right","1.25220012665","1616.51212382","3.74779987335","1620.429317","4.52383184433","1624.95318985","1.47616815567","1626.48105097","1627.93338585","1627.9840169","1630.98636889","1","1631.00219083","1634.43021488",""
"sujeto_0d6a2bd1","1","2","3","35","1634.57174587","direct","3","1","1","¿Cuándo finalizó la construcción
 del Palacio Legislativo?","1925","1917","","0","0","1","individual","right","1.12561297417","1635.69741488","3.87438702583","1639.73918605","4.66815710068","1644.40740991","1.33184289932","1645.79290795","1647.43443084","1647.47777605","1650.47811794","0","1650.49581695","1656.19141603",""
"sujeto_0d6a2bd1","1","2","4","36","1656.33196402","inverse","3","1","3","¿Cuántos integrantes tenía
 en su inicio  el cuarteto de nos?","3","4","","1","1","1","individual","right","1.26657009125","1657.59858084","3.73342990875","1661.4829309","4.09061479568","1665.57358694","1.90938520432","1667.52139401","1668.65412498","1668.70544505","1671.70843196","1","1671.72410583","1677.37385702",""
"sujeto_0d6a2bd1","1","2","5","37","1677.50999093","direct","2","1","3","¿Qué valor tiene el número pi?","3.14","4.18","left","0","0","1","individual","left","1.46897387505","1678.97901297","3.53102612495","1682.66138482","3.175344944","1685.83677197","2.824655056","1688.71352196","1690.16738105","1690.21683884","1693.21942687","1","1693.23496795","1700.15587783",""
"sujeto_0d6a2bd1","1","2","6","38","1700.32114196","inverse","2","1","2","¿Cuál es la esperanza de vida
 en Uruguay?","75","77","","1","1","0","individual","right","1.1797478199","1701.50095391","3.8202521801","1705.48959899","3.96437215805","1709.45403504","2.03562784195","1711.53137994","1713.18516684","1713.228585","1716.23154283","1","1716.24634504","1722.70792389",""
"sujeto_0d6a2bd1","1","2","7","39","1722.85096502","direct","1","1","2","¿Cuantos pisos tiene la torre 
de las comunicaciones?","26","32","","1","1","0","individual","right","2.16926002502","1725.02031398","2.83073997498","1728.01880503","5.391477108","1733.41036201","0.608522891998","1734.05651999","1735.88526797","1735.93885088","1738.94182587","1","1738.95904303","1741.10519004",""
"sujeto_0d6a2bd1","1","2","8","40","1741.24311399","inverse","2","1","4","¿En qué país sudamericano 
no hay McDonalds?","Bolivia","Venezuela","","0","0","1","individual","left","1.10328602791","1742.34644294","3.89671397209","1746.41194892","4.76847696304","1751.18048692","1.23152303696","1752.46305203","1753.77235484","1753.81583691","1756.81837201","0","1756.83528399","1763.19502902",""
"sujeto_0d6a2bd1","1","2","9","41","1763.35233402","direct","3","1","1","¿En qué año empieza
 la Edad Media?","476","512","","1","1","1","individual","right","1.06523013115","1764.41759801","3.93476986885","1768.50701594","4.20863890648","1772.71571898","1.79136109352","1774.54540801","1775.94842982","1775.99449992","1778.99740291","1","1779.01333404","1782.00144506",""
"sujeto_0d6a2bd1","1","2","10","42","1782.14743686","inverse","3","1","4","¿Hace cuántos años surgió
 el ser humano?","200mil","300mil","","0","0","0","individual","left","0.976320981979","1783.12380505","4.02367901802","1787.30106592","4.34966301918","1791.65079188","1.65033698082","1793.35476685","1795.24035501","1795.28689599","1798.2893889","0","1798.30611205","1801.61655498",""
"sujeto_0d6a2bd1","1","2","11","43","1801.75843191","direct","3","1","4","¿Cuántas cuadras tiene
 actualmente 18 de julio? ","36","33","","0","0","1","individual","left","2.45162296295","1804.21011901","2.54837703705","1806.92459297","4.0421230793","1810.96675897","1.9578769207","1812.96376705","1814.66537905","1814.71367502","1817.71575284","0","1817.73410583","1822.4603579",""
"sujeto_0d6a2bd1","1","2","12","44","1822.6172359","inverse","1","1","4","¿Qué juego de equipo se 
considera mas rápido?","Lacrosse","Badminton","","0","0","0","individual","right","1.35749697685","1823.97477603","3.64250302315","1827.77324986","5.13048291206","1832.9037869","0.869517087936","1833.82380199","1835.06686902","1835.10767603","1838.11036205","0","1838.12764001","1846.12240696",""
"sujeto_0d6a2bd1","1","2","13","45","1846.26294899","direct","1","1","3","¿Qué promedio de edad 
vive una jirafa? ","25","20","","0","0","1","individual","right","1.52577614784","1847.78876901","3.47422385216","1851.41684103","3.68289613724","1855.09977889","2.31710386276","1857.45332694","1859.21481991","1859.25484896","1862.25738382","0","1862.27227783","1868.22738886",""
"sujeto_0d6a2bd1","1","2","14","46","1868.3732059","inverse","1","1","2","¿Cuántos grandes lagos hay?","7","5","","0","0","1","individual","left","1.71251392365","1870.08576488","3.28748607635","1873.54381585","3.91890501976","1877.46276999","2.08109498024","1879.58152699","1880.87365603","1880.91515994","1883.91740799","0","1883.93338799","1891.75474405",""
"sujeto_0d6a2bd1","1","2","15","47","1891.92108393","direct","3","1","2","¿Cuántos discos de estudio
 grabó Johhny Cash? ","54","43","","1","1","0","individual","right","1.37171196938","1893.29284406","3.62828803062","1897.07413697","5.04762721062","1902.12182593","0.952372789383","1903.11092687","1904.38955188","1904.44133997","1907.44425583","1","1907.46159005","1914.11139488",""
"sujeto_0d6a2bd1","1","2","16","48","1914.26342988","inverse","4","1","1","¿Cuántos barrios tiene
 Montevideo? ","71","62","","0","0","1","individual","right","1.308385849","1915.57188582","3.691614151","1919.419101","3.52171301842","1922.94087505","2.47828698158","1925.47031593","1926.47736287","1926.52127695","1929.52422285","0","1929.54036498","1935.00239682",""
"sujeto_0d6a2bd1","1","2","17","49","1935.14290786","direct","3","1","3","¿Qué edad tiene Homero Simpson?","36","42","","0","0","1","individual","right","1.20193696022","1936.34488893","3.79806303978","1940.31265187","3.38217592239","1943.69488883","2.61782407761","1946.348768","1947.72435188","1947.76489186","1950.76741099","0","1950.7851069","1955.1733799",""
"sujeto_0d6a2bd1","1","2","18","50","1955.32069087","inverse","4","1","2","¿Cuántos países con monarquía 
hay en europa actualmente? ","6","10","","1","1","1","individual","left","2.01918101311","1957.33991504","2.98081898689","1960.48941994","4.74647402763","1965.23595786","1.25352597237","1966.5259459","1967.96342802","1968.01066804","1971.01368403","1","1971.02833986","1977.18511295",""
"sujeto_0d6a2bd1","1","2","19","51","1977.33031988","direct","2","1","3","¿Cuántos capítulos de
 Friends existen? ","236","228","","1","1","1","individual","left","1.03460597992","1978.36497092","3.96539402008","1982.50035191","4.08754897118","1986.58794498","1.91245102882","1988.55325484","1989.85842085","1989.90403986","1992.90640283","1","1992.923877","1995.29948401",""
"sujeto_0d6a2bd1","1","2","20","52","1995.44197297","inverse","1","1","3","¿Cuántas óperas compuso Mozart? ","27","22","","1","1","1","individual","left","1.58199501038","1997.02403283","3.41800498962","2000.59207296","3.8398900032","2004.43202496","2.1601099968","2006.64442801","2007.93643904","2007.97969484","2010.98262501","1","2010.99999499","2018.31147504",""
"sujeto_0d6a2bd1","1","2","21","53","2018.46774697","direct","4","1","3","¿Cuántos mundiales de fútbol 
femenino ha realizado FIFA? ","9","7","","1","1","1","individual","right","2.32229208946","2020.79010987","2.67770791054","2023.62585497","4.83615899086","2028.46207786","1.16384100914","2029.67337894","2030.91638589","2030.95855999","2033.96142197","1","2033.97818995","2040.08060193",""
"sujeto_0d6a2bd1","1","2","22","54","2040.21357489","inverse","3","1","2","¿Cuál es la temperatura 
media anual en Montevideo? ","17.5","16.3","","0","0","1","individual","right","1.1044690609","2041.31810784","3.8955309391","2045.38232183","4.37581992149","2049.75820398","1.62418007851","2051.43374705","2053.37139797","2053.42074299","2056.42336702","0","2056.44014788","2063.00964999",""
"sujeto_0d6a2bd1","1","2","23","55","2063.15856194","direct","2","1","2","¿En qué año se estrenó el
 videojuego The Sims? ","2000","2002","","0","0","0","competitive","right","1.68365192413","2064.84227705","3.31634807587","2068.32770801","4.44248008728","2072.77025199","1.55751991272","2074.36581898","2076.22736883","2076.31428194","2079.31735301","0","2079.33465791","2086.72739291",""
"sujeto_0d6a2bd1","1","2","24","56","2086.871171","inverse","2","1","1","¿Cuál es la canción con 
mas covers? ","Yesterday","Stand by me","","0","0","0","individual","right","1.36108803749","2088.23232293","3.63891196251","2092.0254159","3.72885084152","2095.75436091","2.27114915848","2098.06191087","2099.46039891","2099.51285887","2102.51537204","0","2102.53008199","2106.70037699",""
"sujeto_0d6a2bd1","1","2","25","57","2106.84611201","direct","1","1","4","¿Cuánto duró la guerra
 de los 100 años?","116","123","","0","0","0","individual","left","1.76922893524","2108.61539292","3.23077106476","2112.03354001","4.09984111786","2116.13344383","1.90015888214","2118.07201886","2119.5528419","2119.60608482","2122.60901785","0","2122.62406182","2124.94339705",""
"sujeto_0d6a2bd1","1","2","26","58","2125.12353301","inverse","4","1","4","¿Qué color tiene la  bandera de Brasil?","Amarillo","Naranja","left","0","0","1","individual","left","2.34689617157","2127.47049403","2.65310382843","2130.29349685","3.42191100121","2133.71545506","2.57808899879","2136.34653592","2137.91304493","2137.96536493","2140.96737504","1","2140.98350787","2144.01537895",""
"sujeto_0d6a2bd1","1","2","27","59","2144.19987488","direct","4","1","3","¿Qué carabela de 
Colon no volvió del viaje?","Santa María","La pinta","","0","0","1","individual","left","1.28866100311","2145.48857999","3.71133899689","2149.36994791","5.47155284882","2154.84154487","0.528447151184","2155.42255688","2156.913378","2156.95696497","2159.95938802","0","2159.977391","2162.07685995",""
"sujeto_0d6a2bd1","1","2","28","60","2162.22592902","inverse","4","1","4","¿Cuántos huesos tiene
 un adulto humano?","217","206","","0","0","1","individual","right","1.48360919952","2163.70958185","3.51639080048","2167.39485598","5.07975721359","2172.47467494","0.920242786407","2173.43391705","2174.70442796","2174.75050402","2177.75204301","0","2177.76918602","2185.60686684",""
"sujeto_0d6a2bd1","1","2","29","61","2185.77210188","direct","1","1","1","¿Qué país africano fue 
fundado por esclavos?","Liberia","Chad","","0","0","0","individual","right","1.97657895088","2187.74874687","3.02342104912","2190.92719102","4.52848601341","2195.45574784","1.47151398659","2196.96255684","2198.95418","2198.99678588","2201.99937892","0","2202.01526093","2210.00539303",""
"sujeto_0d6a2bd1","1","2","30","62","2210.15114284","inverse","4","1","2","¿A cuánto asciende la cima
 del monte Everest?","7.990 mts","8.848 mts","","0","0","1","individual","right","1.47061300278","2211.62179899","3.52938699722","2215.32153988","4.52325105667","2219.84485602","1.47674894333","2221.37435198","2222.55840802","2222.60902786","2225.61138988","0","2225.62718105","2232.810431",""
"sujeto_0d6a2bd1","1","2","31","63","2232.96134186","direct","4","1","1","¿Cuál es el país mas chico?","Sealand","Luxemburgo","","1","1","1","individual","left","1.12356591225","2234.08497095","3.87643408775","2238.11691499","3.61699318886","2241.73397183","2.38300681114","2244.17021489","2246.03375006","2246.08772993","2249.09038091","1","2249.10545683","2252.22777295",""
"sujeto_0d6a2bd1","1","2","32","64","2252.37574792","inverse","2","1","4","¿Cuántas pirámides hay en Egipto?","10000","11000","","1","1","1","individual","left","1.26434087753","2253.64015102","3.73565912247","2257.54417896","4.02282190323","2261.56704497","1.97717809677","2263.59540796","2264.62898088","2264.68056703","2267.68341303","1","2267.698874","2272.80744386",""
"sujeto_0d6a2bd1","1","3","1","65","2468.83591485","direct","2","1","2","¿Cuál es el quinto país con 
mas extensión?","Canadá","Brasil","","1","1","0","individual","right","1.15042805672","2469.98642492","3.84957194328","2473.98784399","4.44254302979","2478.43045282","1.55745697021","2480.02870584","2481.36140299","2481.40973997","2484.41238189","1","2484.42878795","2492.15515804","2272.81970596"
"sujeto_0d6a2bd1","1","3","2","66","2492.34893703","inverse","1","1","2","¿Qué rasgo facial no tiene
 la Mona Lisa?","Cejas","Pómulos","","0","0","1","individual","right","1.15764498711","2493.50662899","3.84235501289","2497.50270486","4.65281009674","2502.15556097","1.34718990326","2503.55293584","2505.30332804","2505.35462999","2508.35756683","0","2508.37487292","2514.64539289",""
"sujeto_0d6a2bd1","1","3","3","67","2514.79520702","direct","4","1","3","¿Cuál es el país con 
mayor población?","Esados Unidos","China","right","0","0","1","individual","right","1.02043604851","2515.81571388","3.97956395149","2519.96248484","3.70219302177","2523.66472483","2.29780697823","2526.01749587","2527.663517","2527.71694899","2530.71743298","1","2530.73490596","2534.10220695",""
"sujeto_0d6a2bd1","1","3","4","68","2534.23826003","inverse","1","1","1","La palabra dinosaurio significa","Lagarto Terrible","Lagarto Dragón","","1","1","0","individual","","2.1474981308","2536.38580799","2.8525018692","2539.39051986","6","2545.39064884","0","2545.40975094","2546.579391","2546.62760496","2549.62862396","0","2549.64701605","2552.50881791",""
"sujeto_0d6a2bd1","1","3","5","69","2552.64616799","direct","2","1","3","¿Qué es el membrillero?","Arbol","Arbusto","","0","0","0","individual","right","1.18371081352","2553.829952","3.81628918648","2557.79926586","3.49864506721","2561.29797101","2.50135493279","2563.8368659","2565.79038286","2565.83791184","2568.84082103","0","2568.85631394","2575.31945586",""
"sujeto_0d6a2bd1","1","3","6","70","2575.4755249","inverse","3","1","3","¿Alrededor de qué planeta orbita 
el satélite Europa?","Jupiter","Saturno","","1","1","1","individual","left","1.82757902145","2577.30316997","3.17242097855","2580.64339995","4.23070478439","2584.87416601","1.76929521561","2586.69769287","2588.24246883","2588.28173804","2591.28435683","1","2591.30037189","2593.50539804",""
"sujeto_0d6a2bd1","1","3","7","71","2593.65136099","direct","3","1","1","¿Donde fue el mundial de 
fútbol de 1954?","Suiza","Suecia","","1","1","1","individual","left","1.01385307312","2594.66527605","3.98614692688","2598.80535793","3.5069038868","2602.31232786","2.4930961132","2604.85698891","2606.10937095","2606.15899205","2609.1619339","1","2609.17801094","2613.08975005",""
"sujeto_0d6a2bd1","1","3","8","72","2613.22976089","inverse","1","1","4","¿Cuál de los 7 enanitos
no tenía barba?","Bashful","Mudito","","1","1","0","individual","right","1.12359690666","2614.35342288","3.87640309334","2618.38214302","4.04727602005","2622.42948294","1.95272397995","2624.41820002","2625.998348","2626.05137086","2629.05307293","1","2629.07129002","2633.99936295",""
"sujeto_0d6a2bd1","1","3","9","73","2634.15598202","direct","3","1","2","¿Cual red social es
mas utilizada mundialmente?","Instagram","Facebook","","1","1","0","individual","left","1.06459116936","2635.22061896","3.93540883064","2639.30913186","2.93744587898","2642.24662185","3.06255412102","2645.36222005","2647.2795639","2647.33073902","2650.33342004","1","2650.34879088","2653.28243589",""
"sujeto_0d6a2bd1","1","3","10","74","2653.4320159","inverse","4","1","1","¿Cuándo se inició la copa
 América de fútbol?","1916","1923","","1","1","1","individual","right","1.15163993835","2654.58373094","3.84836006165","2658.6020329","4.62063193321","2663.22270989","1.37936806679","2664.65316892","2666.55059385","2666.58968592","2669.59237599","1","2669.60917902","2672.26443386",""
"sujeto_0d6a2bd1","1","3","11","75","2672.42754984","direct","3","1","4","¿Cuántos presidentes de EEUU
han muerto asesinados?","3","4","","0","0","1","individual","left","2.19320702553","2674.62080193","2.80679297447","2677.57911491","3.35176086426","2680.93093491","2.64823913574","2683.63298202","2685.11640501","2685.16719794","2688.1678319","0","2688.18596792","2691.82939291",""
"sujeto_0d6a2bd1","1","3","12","76","2692.00141692","inverse","2","1","4","¿Cuántas veces participó EEUU
 en la copa América?","4","5","","0","0","1","individual","right","1.19461584091","2693.19610286","3.80538415909","2697.15640497","3.48573923111","2700.64220905","2.51426076889","2703.20933199","2704.65339994","2704.69532704","2707.69740701","0","2707.71158791","2713.82838988",""
"sujeto_0d6a2bd1","1","3","13","77","2713.9810679","direct","4","1","1","¿Cuál de estos países 
no formaba la URSS?","Azeribayán","Afganistán","","0","0","1","individual","right","1.06210803986","2715.04324698","3.93789196014","2719.13491392","4.35824203491","2723.49322104","1.64175796509","2725.17161298","2726.48464394","2726.53904891","2729.541435","0","2729.55511403","2737.53540182",""
"sujeto_0d6a2bd1","1","3","14","78","2737.67762303","inverse","1","1","1","¿En qué año se inauguró
 el teatro Solís?","1867","1856","","0","0","0","individual","right","1.58674192429","2739.26440787","3.41325807571","2742.84656692","4.53784799576","2747.38445997","1.46215200424","2748.89825106","2749.95437598","2749.99991393","2753.00239205","0","2753.01877999","2759.66653204",""
"sujeto_0d6a2bd1","1","3","15","79","2759.8042419","direct","1","1","4","¿A qué velocidad vuela 
el avión más rápido?","3529","3874","","0","0","0","individual","right","1.2792828083","2761.08356905","3.7207171917","2764.95904088","4.58947491646","2769.54857898","1.41052508354","2771.01073885","2772.76537585","2772.81368089","2775.81636405","0","2775.83109903","2777.94042301",""
"sujeto_0d6a2bd1","1","3","16","80","2778.08048797","inverse","3","1","4","¿De qué año es la primer 
película cinematográfica?","1897","1888","","0","0","0","individual","right","1.01610708237","2779.0966599","3.98389291763","2783.23372102","4.82498216629","2788.05874705","1.17501783371","2789.28305697","2790.41606092","2790.46796989","2793.468328","0","2793.47533083","2798.8844409",""
"sujeto_0d6a2bd1","1","3","17","81","2799.04214191","direct","2","1","3","¿Cuántos países 
tiene nuestro planeta?","191","194","","1","1","1","individual","right","1.20468592644","2800.24689484","3.79531407356","2804.19638896","4.0804169178","2808.27687001","1.9195830822","2810.231884","2811.5884099","2811.63197088","2814.63487291","1","2814.64948106","2817.887712",""
"sujeto_0d6a2bd1","1","3","18","82","2818.03360391","inverse","2","1","2","¿Cuántos habitantes
 tiene Buenos Aires?","2.9000.000","3650000","","0","0","0","individual","left","1.38540196419","2819.41907406","3.61459803581","2823.20425391","3.72671699524","2826.93103695","2.27328300476","2829.24233198","2830.63954401","2830.69131589","2833.69424987","0","2833.71166682","2839.54035497",""
"sujeto_0d6a2bd1","1","3","19","83","2839.68225503","direct","2","1","1","¿Cuántos kilos forman una tonelada?","1000","1500","left","1","1","1","individual","left","1.74386310577","2841.42618799","3.25613689423","2844.84994698","3.19423413277","2848.04422188","2.80576586723","2850.886204","2852.77335596","2852.82084799","2855.82378101","1","2855.839396","2861.79120898",""
"sujeto_0d6a2bd1","1","3","20","84","2861.94084501","inverse","4","1","4","¿Cuántos estados tiene la 
República del Perú? ","24","23","","0","0","1","individual","left","1.32754206657","2863.26845694","3.67245793343","2867.0953629","4.3279709816","2871.42339993","1.6720290184","2873.1300199","2874.15137005","2874.19693494","2877.19937587","0","2877.21715283","2882.161376",""
"sujeto_0d6a2bd1","1","3","21","85","2882.30122685","direct","3","1","3","¿En qué año nació Cristóbal Colón? ","1451","1447","","0","0","1","individual","left","1.84924197197","2884.15053296","3.15075802803","2887.47088885","4.06068205833","2891.53163385","1.93931794167","2893.50897694","2895.35488605","2895.40558696","2898.40854287","0","2898.42795396","2902.65543485",""
"sujeto_0d6a2bd1","1","3","22","86","2902.81285787","inverse","4","1","4","¿Cuánto mide la 
Montaña Aconcagua? ","6234","6962","","0","0","1","individual","left","1.05276298523","2903.86566401","3.94723701477","2907.96746993","4.30625987053","2912.27379298","1.69374012947","2914.01772499","2915.30644393","2915.35417199","2918.35711002","0","2918.37272096","2925.55639195",""
"sujeto_0d6a2bd1","1","3","23","87","2925.70804596","direct","2","1","4","¿Cuánto mide el punto
 más profundo del océano? ","12508","11003","","0","0","1","individual","left","1.0237660408","2926.7318759","3.9762339592","2930.86093497","3.72595405579","2934.58693099","2.27404594421","2936.91438293","2938.16538596","2938.21513486","2941.21738601","0","2941.23493099","2945.44116092",""
"sujeto_0d6a2bd1","1","3","24","88","2945.58505082","inverse","1","1","3","¿Cuántos álbumes ha publicado 
el cantante Jaime Roos? ","41","34","","0","0","1","individual","right","1.29394292831","2946.87904","3.70605707169","2950.73932505","5.35354113579","2956.09292984","0.646458864212","2956.79145288","2958.28043199","2958.32484794","2961.32744789","0","2961.34387088","2967.53937197",""
"sujeto_0d6a2bd1","1","3","25","89","2967.69674397","direct","4","1","3","¿En qué año nació el 
ex-presidente Jorge Battle? ","1921","1927","","1","1","1","individual","right","0.964500188828","2968.66134405","4.03549981117","2972.86520791","4.84504103661","2977.71031094","1.15495896339","2978.90335488","2980.63406706","2980.68635488","2983.68870592","1","2983.70694304","2987.19239497",""
"sujeto_0d6a2bd1","1","3","26","90","2987.33837891","inverse","1","1","3","¿Cuántas presidencias 
constitucionales  hubo en Uruguay? ","41","42","","0","0","1","individual","left","1.25405097008","2988.59249783","3.74594902992","2992.49610996","4.28031587601","2996.77646899","1.71968412399","2998.54783106","2999.75135803","2999.79783297","3002.80076504","0","3002.81633902","3008.5993669",""
"sujeto_0d6a2bd1","1","3","27","91","3008.75120592","direct","1","1","2","¿Quién escribió mas sinfonías?","Mozart","Haydn","","1","1","0","individual","left","1.34631490707","3010.09758592","3.65368509293","3013.90198183","3.47596096992","3017.37801385","2.52403903008","3019.94134498","3021.15852189","3021.20880699","3024.2117219","1","3024.22748494","3027.97884297",""
"sujeto_0d6a2bd1","1","3","28","92","3028.12961388","inverse","4","1","2","¿En qué año nació Michael Jackson?","1958","1953","","1","1","1","individual","right","1.35004687309","3029.47971201","3.64995312691","3033.297575","4.70119714737","3037.99881482","1.29880285263","3039.33541298","3041.31343389","3041.35249805","3044.35538292","1","3044.37019706","3050.23249292",""
"sujeto_0d6a2bd1","1","3","29","93","3050.37495685","direct","3","1","2","¿En qué año entró en vigencia 
la ley antitabaco en Uruguay?","2005","2006","","1","1","1","individual","left","1.0840139389","3051.45901585","3.9159860611","3055.54222798","5.67574119568","3061.21803093","0.324258804321","3061.5809989","3063.17576694","3063.21597099","3066.2183919","1","3066.23091197","3071.56487393",""
"sujeto_0d6a2bd1","1","3","30","94","3071.70146394","inverse","3","1","1","¿Cuándo se subió el 
primer video a youtube?","2004","2005","","0","0","1","individual","left","1.36063694954","3073.06215501","3.63936305046","3076.85515499","4.04396510124","3080.89916801","1.95603489876","3082.89098096","3084.19639683","3084.24219584","3087.24246097","0","3087.26075196","3095.01538897",""
"sujeto_0d6a2bd1","1","3","31","95","3095.1778419","direct","2","1","1","¿Cuántos habitantes tiene India?","1200 millones","1300 millones","","0","0","0","individual","right","1.2974729538","3096.47539592","3.7025270462","3100.34922004","3.60612416267","3103.95540786","2.39387583733","3106.40103793","3108.37038589","3108.42193484","3111.42445397","0","3111.43938589","3117.48636985",""
"sujeto_0d6a2bd1","1","3","32","96","3117.64148784","inverse","4","1","2","¿A qué edad murió Bob Marley?","36","37","","0","0","1","individual","left","1.12996292114","3118.77149296","3.87003707886","3122.79456782","3.55899906158","3126.35362697","2.44100093842","3128.84797192","3130.74538088","3130.79693294","3133.79987884","0","3133.81806183","3136.92042089",""
"sujeto_0d6a2bd1","1","4","1","97","3287.13017297","direct","2","1","1","¿Cuantos años dirigió la selección 
uruguaya Tabarez?","15 años","13 años","","0","0","0","individual","right","1.21274518967","3288.34298301","3.78725481033","3292.28196883","4.38601899147","3296.66803002","1.61398100853","3298.33485794","3299.52597499","3299.56974196","3302.57246399","0","3302.58977199","3309.66183686","3136.93290997"
"sujeto_0d6a2bd1","1","4","2","98","3309.82552791","inverse","4","1","1","¿Cuantas teclas tiene un teclado 
de computadora generalmente? ","Entre 99 y 108","Entre 109 y 113","","1","1","1","individual","left","1.41269397736","3311.2382679","3.58730602264","3314.97987795","4.74235081673","3319.72227001","1.25764918327","3321.016047","3322.01838589","3322.06463289","3325.06571603","1","3325.08427787","3327.45536685",""
"sujeto_0d6a2bd1","1","4","3","99","3327.58761287","direct","1","1","1","¿Cuál Departamento tiene
 mayor superficie?","Río Negro","Soriano","","0","0","0","individual","left","1.58874893188","3329.17643094","3.41125106812","3332.73887491","4.95255184174","3337.69148684","1.04744815826","3338.79116392","3340.50439","3340.55782294","3343.56076384","0","3343.57752204","3347.90338182",""
"sujeto_0d6a2bd1","1","4","4","100","3348.04554892","inverse","3","1","2","¿Cuál es el apellido de las 
hermanastras  de  cenicienta?","Tremaine","Truman","","0","0","1","individual","left","1.94298481941","3349.98860598","3.05701518059","3353.21578789","5.20480394363","3358.42063498","0.795196056366","3359.267663","3361.13641787","3361.186759","3364.18786287","0","3364.20541596","3366.90037394",""
"sujeto_0d6a2bd1","1","4","5","101","3367.03939199","direct","4","1","4","¿Cuál película ganó un
 Oscar a mejor película?","Alto Impacto","Cache","","0","0","1","individual","right","1.17624878883","3368.21574783","3.82375121117","3372.20958686","4.23822903633","3376.44788694","1.76177096367","3378.26308298","3379.38235593","3379.42994785","3382.43239093","0","3382.44849396","3384.71311188",""
"sujeto_0d6a2bd1","1","4","6","102","3384.86203599","inverse","1","1","3","¿A cuántos centímetros
equivale la medida pié?","25","30","","0","0","1","individual","right","1.67783808708","3386.53991699","3.32216191292","3390.01819491","4.2357339859","3394.25402284","1.7642660141","3396.06884694","3397.10837984","3397.1560719","3400.15843701","0","3400.17431498","3405.57523394",""
"sujeto_0d6a2bd1","1","4","7","103","3405.74277782","direct","2","1","2","¿Qué departamento es mas grande?","Cerro Largo","Paysandú","","0","0","0","individual","right","1.19928503036","3406.942137","3.80071496964","3410.91098285","5.03607702255","3415.94712496","0.963922977448","3416.96606803","3418.56540704","3418.61640191","3421.61840987","0","3421.6351099","3425.74439001",""
"sujeto_0d6a2bd1","1","4","8","104","3425.8846159","inverse","2","1","3","¿Quién pintó la Mona Lisa?","Picasso","Da Vinci","right","0","0","1","individual","right","1.7979388237","3427.68262696","3.2020611763","3431.05581188","4.26147389412","3435.31735992","1.73852610588","3437.09299588","3438.69840789","3438.74275804","3441.74538994","1","3441.76246691","3443.92479992",""
"sujeto_0d6a2bd1","1","4","9","105","3444.077636","direct","4","1","3","¿Cuántos litros hay en un galon?","3.54","3.78","","1","1","1","individual","right","0.868754148483","3444.94645786","4.13124585152","3449.23350501","3.807929039","3453.04149795","2.192070961","3455.28496099","3456.80279088","3456.85471487","3459.85739803","1","3459.87181902","3465.66417384",""
"sujeto_0d6a2bd1","1","4","10","106","3465.80904984","inverse","4","1","1","¿Cuántas teclas tiene
 un piano moderno?","80","88","","0","0","1","individual","right","1.00049591064","3466.80961585","3.99950408936","3470.96075106","3.40588998795","3474.36668396","2.59411001205","3477.01156282","3478.01943684","3478.06463695","3481.06737685","0","3481.08334088","3487.8811059",""
"sujeto_0d6a2bd1","1","4","11","107","3488.01922297","direct","4","1","3","¿Cuántos países hay en África?","54","62","","0","0","1","individual","left","1.22154712677","3489.24083996","3.77845287323","3493.17095089","2.47286200523","3495.6438539","3.52713799477","3499.22388482","3500.91438985","3500.96006298","3503.96239686","0","3503.97881198","3511.78355002",""
"sujeto_0d6a2bd1","1","4","12","108","3511.93011689","inverse","1","1","3","¿En qué siglo se crearon
 las primeras pistolas?","XV","XIII","","1","1","1","individual","right","1.02382993698","3512.95399189","3.97617006302","3517.085325","4.19470620155","3521.28007388","1.80529379845","3523.12184286","3525.06940985","3525.12093782","3528.12336802","1","3528.14053297","3531.37198997",""
"sujeto_0d6a2bd1","1","4","13","109","3531.52485585","direct","3","1","4","¿En qué año se estrenó 
la serie friends?","1994","1995","","0","0","1","individual","left","0.828314065933","3532.35323191","4.17168593407","3536.67912388","4.41210389137","3541.09127092","1.58789610863","3542.71529102","3544.59061384","3544.63171983","3547.63464689","0","3547.65165186","3552.65768695",""
"sujeto_0d6a2bd1","1","4","14","110","3552.85215902","inverse","3","1","4","¿En qué año nació Hitler?","1889","1887","","0","0","1","individual","right","1.06027293205","3553.91250205","3.93972706795","3558.00756001","3.56281208992","3561.57041597","2.43718791008","3564.04400086","3565.1583569","3565.20999193","3568.21239591","0","3568.22969484","3573.256392",""
"sujeto_0d6a2bd1","1","4","15","111","3573.41353297","direct","1","1","4","¿Cuánto pesa un elefante Africano?","6000 kilos","5400 kilos","","0","0","0","individual","right","1.12797403336","3574.54157186","3.87202596664","3578.56470585","3.97293591499","3582.53769302","2.02706408501","3584.60388088","3585.95979786","3586.00295591","3589.00547099","0","3589.02304792","3595.72519302",""
"sujeto_0d6a2bd1","1","4","16","112","3595.87471485","inverse","1","1","2","¿Qué porcentaje de 
la población es zurda?","10%","7%","","1","1","0","individual","right","2.47602295876","3598.35078502","2.52397704124","3601.04341197","4.17676711082","3605.22024989","1.82323288918","3607.08231592","3608.32541585","3608.36533904","3611.36738706","1","3611.383955","3617.36337686",""
"sujeto_0d6a2bd1","1","4","17","113","3617.50274992","direct","1","1","2","¿En qué año se estrenó
Volver al futuro?","1984","1985","","0","0","1","individual","right","1.61121082306","3619.11402893","3.38878917694","3622.65739393","4.40861392021","3627.06607389","1.59138607979","3628.70783687","3630.26943302","3630.30980897","3633.31274605","0","3633.32958794","3640.420434",""
"sujeto_0d6a2bd1","1","4","18","114","3640.58340287","inverse","3","1","2","¿Cuántos jugadores hay en un 
equipo de baseball?","9","8","","1","1","0","individual","left","1.36879086494","3641.95223904","3.63120913506","3645.7496779","4.71953105927","3650.46926999","1.28046894073","3651.78912401","3653.40240383","3653.45464396","3656.45756102","1","3656.47496796","3661.4513979",""
"sujeto_0d6a2bd1","1","4","19","115","3661.60999584","direct","2","1","1","¿Cuántos Oscar ganó
 la película titanic?","13","11","","1","1","1","individual","left","0.962345123291","3662.57238984","4.03765487671","3666.75967884","3.06070494652","3669.82042694","2.93929505348","3672.80016804","3674.10137987","3674.15085888","3677.15338087","1","3677.16956902","3681.77150488",""
"sujeto_0d6a2bd1","1","4","20","116","3681.91897082","inverse","4","1","4","¿En qué año comenzó
la segunda guerra mundial?","1939","1976","left","0","0","1","individual","left","3.55159902573","3685.47061396","1.44840097427","3687.08967686","4.25246095657","3691.34218788","1.74753904343","3693.13858795","3694.93842196","3694.977108","3697.9793849","1","3697.99608088","3701.9831779",""
"sujeto_0d6a2bd1","1","4","21","117","3702.14735794","direct","2","1","4","¿Cuántos biomas hay en Uruguay?","5","4","","0","0","1","individual","left","0.903410196304","3703.05083585","4.0965898037","3707.30186296","3.96195483208","3711.26387882","2.03804516792","3713.33819604","3715.13550687","3715.18793583","3718.19085598","0","3718.20704889","3724.45641804",""
"sujeto_0d6a2bd1","1","4","22","118","3724.59405899","inverse","2","1","3","¿Cuándo murió Pablo Escobar?","1993","1997","","1","1","1","individual","right","1.94753098488","3726.54165387","3.05246901512","3729.76223898","4.0467441082","3733.80904889","1.9532558918","3735.799438","3737.58228087","3737.63428402","3740.63639998","1","3740.65221786","3746.35540295",""
"sujeto_0d6a2bd1","1","4","23","119","3746.50383186","direct","1","1","4","¿Qué serie ha ganado mas premios?","Friends","Murphy Brown","","1","1","0","individual","left","1.13230395317","3747.63618398","3.86769604683","3751.65377188","2.99247407913","3754.64630294","3.00752592087","3757.70913196","3759.06139493","3759.11203599","3762.11435294","1","3762.12978888","3767.69041991",""
"sujeto_0d6a2bd1","1","4","24","120","3767.86565804","inverse","4","1","2","¿Cuántas fichas tiene el dominó?","26","28","","1","1","1","individual","right","1.06174588203","3768.92747283","3.93825411797","3773.01806998","2.81233406067","3775.83046699","3.18766593933","3779.05397797","3780.10925889","3780.15388703","3783.15641594","1","3783.17398596","3788.41539097",""
"sujeto_0d6a2bd1","1","4","25","121","3788.55962801","direct","2","1","4","¿Cuántos son los dientes de leche?","20","25","","0","0","1","individual","left","0.942873001099","3789.50257182","4.0571269989","3793.71381092","4.29678893089","3798.01066184","1.70321106911","3799.74986601","3801.46024704","3801.50071692","3804.50292897","0","3804.51762605","3806.66335392",""
"sujeto_0d6a2bd1","1","4","26","122","3806.81893897","inverse","3","1","3","¿Cuántos gramos son una onza?","22","28","","0","0","1","individual","left","1.555727005","3808.37471199","3.444272995","3811.97347093","3.11027002335","3815.08378506","2.88972997665","3818.00903797","3820.0033989","3820.04325104","3823.04467893","0","3823.06220794","3829.35239506",""
"sujeto_0d6a2bd1","1","4","27","123","3829.51491404","direct","3","1","1","¿Cuándo salió el primer album
 de los Beatles?","1963","1962","","1","1","1","individual","right","0.988960981369","3830.50394702","4.01103901863","3834.69993901","3.79313898087","3838.49312401","2.20686101913","3840.73844385","3841.90201688","3841.95398903","3844.95696092","1","3844.97346187","3848.74545002",""
"sujeto_0d6a2bd1","1","4","28","124","3848.92442393","inverse","3","1","3","¿Quién fundó la empresa apple?","Carlos Slim","Steve Jobs","","1","1","1","individual","right","1.42601799965","3850.35054398","3.57398200035","3854.07832384","3.19325900078","3857.271626","2.80674099922","3860.13084388","3861.24549294","3861.29713488","3864.30007887","1","3864.31701684","3870.61486483",""
"sujeto_0d6a2bd1","1","4","29","125","3870.76943302","direct","4","1","2","¿Cuántos municipios hay
 en Montevideo?","8","7","","1","1","1","individual","right","0.9695520401","3871.73905396","4.0304479599","3875.93867898","3.34443712234","3879.28315687","2.65556287766","3881.97756386","3883.89232397","3883.94231296","3886.94524503","1","3886.96298289","3889.0441339",""
"sujeto_0d6a2bd1","1","4","30","126","3889.17943883","inverse","1","1","1","¿Cuántos kilómetros hay
 de Montevideo a Artigas?","632","599","","0","0","0","individual","left","0.966952085495","3890.14643788","4.03304791451","3894.33427286","4.94632697105","3899.28064299","1.05367302895","3900.37101698","3901.85374594","3901.90503383","3904.90740991","0","3904.92276502","3910.97474885",""
"sujeto_0d6a2bd1","1","4","31","127","3911.13889289","direct","2","1","2","¿En qué año nació 
Leonardo Da Vinci?","1452","1511","","1","1","0","individual","right","1.02172994614","3912.16075206","3.97827005386","3916.2953999","3.62767791748","3919.92314196","2.37232208252","3922.33176494","3924.18437195","3924.233042","3927.23537397","1","3927.25170994","3930.398139",""
"sujeto_0d6a2bd1","1","4","32","128","3930.55090284","inverse","3","1","1","¿A qué continente
 pertenece el país Gabón?","Africa","Oceanía","","0","0","1","individual","right","1.15151500702","3931.70246601","3.84848499298","3935.70454097","3.80195808411","3939.50656605","2.19804191589","3941.74286795","3943.55443788","3943.59426689","3946.59637403","0","3946.6118269","3951.84970593",""
