"code","nro_aplicante","nro_bloque","nro_trial_bloque","nro_trial_global","show_game_type","choice_order","rival","pay_individual","pay_competitive","question","answer_left_text","answer_right_text","correct_answer","outcome_individual","outcome_competitive","outcome_rival","game_type","answer","social_time","rt_game_type","feedback_delay","show_question","answer_time","rt_answer_global","feedback_delay_2","show_jitter","jitter_time","show_outcome","outcome_time","outcome_participant_real","show_final_jitter","second_jitter_time","inicio_descanso"
"sujeto_0073050","1","1","1","1","889.417793989","direct","3","1","4","¿Cuántos centímetros corresponden
al talle 36 del calzado?","23","24",,"0","0","1","competitive","right","2.29622888565","891.714087009","2.70377111435","894.588937044","3.63714289665","898.226130009","2.36285710335","900.640901089","901.669188976","901.742645979","904.745625973","0","904.759746075","906.922256947",
"sujeto_0073050","1","1","2","2","907.061155081","inverse","3","1","2","¿Cuántas metros mide la Intendencia
Municipal de Montevideo? ","84","78",,"0","0","1","competitive","left","2.07593417168","909.137154102","2.92406582832","912.21696806","3.75812387466","915.975140095","2.24187612534","918.267123938","920.145133972","920.217756987","923.220714092","0","923.235725164","925.328474045",
"sujeto_0073050","1","1","3","3","925.487142086","direct","1","1","3","¿Cuántas La Pasiva
 hay en uruguay?","15","11",,"1","1","1","competitive","right","1.91296315193","927.400156021","3.08703684807","930.659696102","3.49740409851","934.157163143","2.50259590149","936.693031073","938.30471611","938.377627134","941.380597115","1","941.39475894","945.673098087",
"sujeto_0073050","1","1","4","4","945.813400984","inverse","3","1","3","¿De que color es la camiseta de uruguay?","blanca","celeste","right","1","1","1","competitive","right","1.82265496254","947.636130095","3.17734503746","950.986458063","2.8766310215","953.863153934","3.1233689785","957.019147158","958.223884106","958.304001093","961.306941032","1","961.322069168","964.775964022",
"sujeto_0073050","1","1","5","5","964.907058954","direct","2","1","1","¿Cuánto metros mide
la torre Eiffel?","333","324",,"1","1","1","competitive","right","1.3920378685","966.299162149","3.6079621315","970.06250596","2.87856793404","972.941142082","3.12143206596","976.096059084","977.617452145","977.697250128","980.698868036","1","980.714728117","987.751444101",
"sujeto_0073050","1","1","6","6","987.899167061","inverse","3","1","4","¿Cuantas ciudades existen
 en todo el uruguay?","63","72",,"0","0","1","competitive","right","1.38988685608","989.289101124","3.61011314392","993.054605961","4.22846889496","997.283117056","1.77153110504","999.090830088","1000.1456511","1000.22559309","1003.22684312","0","1003.2419951","1010.86686397",
"sujeto_0073050","1","1","7","7","1011.01447701","direct","1","1","1","¿Cuantos estados tiene África?","52","54",,"1","1","0","competitive","left","1.58661699295","1012.60114217","3.41338300705","1016.15296817","3.58909511566","1019.74210811","2.41090488434","1022.20335793","1024.06689906","1024.1373961","1027.14036798","1","1027.15560198","1032.91659403",
"sujeto_0073050","1","1","8","8","1033.0568831","inverse","4","1","4","¿En qué año nació
 Stephen Hawking?","1952","1942",,"0","0","1","competitive","right","1.90932607651","1034.96629214","3.09067392349","1038.23066807","3.63445091248","1041.86518097","2.36554908752","1044.28104615","1045.72534895","1045.799366","1048.80234313","0","1048.81654596","1054.91589117",
"sujeto_0073050","1","1","9","9","1055.05173016","direct","2","1","3","¿Cuánto años tenía Artigas
 cuando se fue a Paraguay?","56","57",,"1","1","1","competitive","left","2.08641314507","1057.13818598","2.91358685493","1060.19340897","3.81073307991","1064.00420213","2.18926692009","1066.22680306","1067.77626395","1067.86148596","1070.86290216","1","1070.87779307","1076.92290211",
"sujeto_0073050","1","1","10","10","1077.09704208","inverse","1","1","2","¿Cuantos milímetros 
mide una hoja A2?","420x592","420x594",,"0","0","1","competitive","left","1.16310214996","1078.26021004","3.83689785004","1082.25279117","5.79034805298","1088.04320097","0.209651947021","1088.28900599","1089.85739994","1089.93821907","1092.93890715","0","1092.955755","1100.0293591",
"sujeto_0073050","1","1","11","11","1100.17406511","direct","3","1","3","¿Cuál es la menor temperatura 
registrada en Uruguay?","-5.4","-7.4",,"0","0","1","competitive","left","1.21410012245","1101.38823295","3.78589987755","1105.32808709","3.72106194496","1109.0491941","2.27893805504","1111.38093495","1113.06292701","1113.13127303","1116.13419914","0","1116.14939499","1119.88271093",
"sujeto_0073050","1","1","12","12","1120.01825404","inverse","2","1","2","¿Cuantos años hace que 
se fundó facebook?","18","17",,"0","0","0","competitive","left","1.43791890144","1121.45621705","3.56208109856","1125.17543817","4.26370406151","1129.43920207","1.73629593849","1131.21000695","1132.58276606","1132.66080713","1135.66379309","0","1135.67798209","1138.45091105",
"sujeto_0073050","1","1","13","13","1138.59619403","direct","1","1","4","¿Cuál animal es más
 pesado en promedio?","Rinoceronte","Hipopotamo",,"0","0","0","competitive","left","1.09803581238","1139.69429517","3.90196418762","1143.78562212","3.67858099937","1147.46424603","2.32141900063","1149.83617401","1150.91482711","1150.98768306","1153.99066901","0","1154.00468802","1157.84570813",
"sujeto_0073050","1","1","14","14","1157.98887706","inverse","1","1","2","¿Qué personaje de dragon ball 
murió más veces?","Chaoz","Krillin",,"1","1","0","competitive","right","1.0643248558","1159.05326915","3.9356751442","1163.12617397","4.03200697899","1167.15824509","1.96799302101","1169.17810607","1170.63594103","1170.71300697","1173.71486402","1","1173.73018599","1181.50283909",
"sujeto_0073050","1","1","15","15","1181.64796996","direct","3","1","2","La universidad de oxford. 
existe desde:","1096","1249",,"1","1","0","competitive","right","1.11224007607","1182.76025605","3.88775992393","1186.79015899","3.59303307533","1190.38323212","2.40696692467","1192.82436204","1193.87317204","1193.94262195","1196.94560695","1","1196.959764","1203.65062499",
"sujeto_0073050","1","1","16","16","1203.77788806","inverse","3","1","1","¿Qué escritor latino ganó antes
 el premio nobel?"," García Marquez","Neruda",,"0","0","1","competitive","left","0.954343795776","1204.732301","4.04565620422","1208.95198798","3.91828083992","1212.87033105","2.08171916008","1215.00271416","1216.74274898","1216.82014012","1219.82291698","0","1219.83798409","1223.29850411",
"sujeto_0073050","1","1","17","17","1223.4397161","direct","4","1","3","¿Cuántos dientes tiene un
 tiburón blanco?","6000","3000",,"0","0","1","competitive","left","1.14751815796","1224.58727813","3.85248184204","1228.59593511","3.82126808167","1232.41726708","2.17873191833","1234.64639807","1235.68535495","1235.76461506","1238.76761198","0","1238.78159714","1243.59083295",
"sujeto_0073050","1","1","18","18","1243.71568298","inverse","4","1","1","¿Cuánto mide el paralelo Ecuador?","40.000km","70.000km",,"0","0","1","competitive","right","1.11452198029","1244.83025193","3.88547801971","1248.87093115","4.68225502968","1253.55324697","1.31774497032","1254.92332697","1256.87938905","1256.95772099","1259.96069813","0","1259.97459817","1263.57709813",
"sujeto_0073050","1","1","19","19","1263.72652316","direct","4","1","2","¿Cuál fue el primer libro 
de Stephen King?","Carrie","The Stand",,"1","1","1","competitive","left","1.21472096443","1264.94128704","3.78527903557","1268.88295412","2.68726396561","1271.57028008","3.31273603439","1274.93364","1276.67774105","1276.75185609","1279.75484514","1","1279.76894212","1284.24338794",
"sujeto_0073050","1","1","20","20","1284.37052417","inverse","2","1","3","¿Qué civilización practicaba
 la momificación?","Grecia","Egipto","right","0","0","1","competitive","right","1.15272808075","1285.52331901","3.84727191925","1289.52684712","3.54440307617","1293.07129002","2.45559692383","1295.56083512","1297.49882317","1297.57901907","1300.58203197","1","1300.59614706","1304.82494903",
"sujeto_0073050","1","1","21","21","1304.96464801","direct","4","1","4","¿Cuántos millones de visitas
 recibe google por minuto?","3.0","4.5",,"0","0","1","competitive","right","1.10758900642","1306.07230711","3.89241099358","1310.10397005","4.40518379211","1314.50921011","1.59481620789","1316.15571594","1317.67056894","1317.75587296","1320.75888205","0","1320.77371097","1327.89635205",
"sujeto_0073050","1","1","22","22","1328.04136205","inverse","1","1","3","La máquina de fax. se inventó en:","1843","1960",,"0","0","1","competitive","right","0.85390996933","1328.89534497","4.14609003067","1333.19637203","4.79786920547","1337.99429893","1.20213079453","1339.23205113","1340.47406602","1340.55023909","1343.55315709","0","1343.56705999","1346.80331016",
"sujeto_0073050","1","1","23","23","1346.95242214","direct","2","1","4","En la verdadera historia de los
 300 espartanos. habían:","300 soldados","4300 soldados",,"1","1","1","competitive","right","1.70285105705","1348.65531802","3.29714894295","1352.12668204","4.31456017494","1356.44130397","1.68543982506","1358.1769011","1359.43805599","1359.51170897","1362.51469803","1","1362.52792907","1366.32969809",
"sujeto_0073050","1","1","24","24","1366.46301198","inverse","1","1","4","¿Cuántos milímetros crece
 el pelo por día?","0.4","0.04",,"0","0","0","competitive","right","1.30627799034","1367.76933408","3.69372200966","1371.61876416","3.60343503952","1375.22223711","2.39656496048","1377.67037201","1379.43088007","1379.50473404","1382.50772405","0","1382.52162695","1389.25673604",
"sujeto_0073050","1","1","25","25","1389.39007306","direct","4","1","1","¿Cuánto mide la baldosa gris 
clásica de Montevideo?","22x22 cm.","20x20 cm.",,"1","1","1","competitive","right","1.10820603371","1390.49835396","3.89179396629","1394.54756904","4.15368580818","1398.70131397","1.84631419182","1400.59846902","1402.59373403","1402.66649699","1405.66942406","1","1405.68341017","1411.22350097",
"sujeto_0073050","1","1","26","26","1411.38488197","inverse","2","1","2","¿Cuántas películas de rápidos
 y furiosos hay?","10","11",,"1","1","0","competitive","left","0.893442869186","1412.27839994","4.10655713081","1416.53847098","2.79579305649","1419.33430505","3.20420694351","1422.57409596","1423.93208408","1424.00895715","1427.01085401","1","1427.02606106","1429.06075597",
"sujeto_0073050","1","1","27","27","1429.19520903","direct","3","1","1","¿Cuántos masters 1000
 ganó Del Potro?","1","2",,"1","1","1","competitive","right","1.04409193993","1430.23934603","3.95590806007","1434.35104108","4.8572511673","1439.20835614","1.1427488327","1440.38638496","1442.14102697","1442.21932316","1445.22226596","1","1445.23758602","1452.63089204",
"sujeto_0073050","1","1","28","28","1452.772192","inverse","2","1","4","¿Cuántos meses dura el 
embarazo de una leona?","3 meses","4 meses",,"0","0","1","competitive","left","1.16516804695","1453.93740511","3.83483195305","1457.93062997","3.69570589066","1461.62639713","2.30429410934","1463.98103595","1465.09212208","1465.18287301","1468.18585801","0","1468.19991016","1474.92235208",
"sujeto_0073050","1","1","29","29","1475.05078197","direct","1","1","1","¿En qué año fue creado
 el sandwich?","1762","1653",,"1","1","0","competitive","right","1.18555903435","1476.236408","3.81444096565","1480.19192004","3.58743691444","1483.77939701","2.41256308556","1486.242275","1487.84083414","1487.91060495","1490.91358995","1","1490.92753601","1494.39816499",
"sujeto_0073050","1","1","30","30","1494.54576707","inverse","4","1","2","El nombre de la moneda de Vietnam es:","Dinar","Dong",,"0","0","1","competitive","left","1.19261884689","1495.73843098","3.80738115311","1499.69833899","4.63986992836","1504.33826303","1.36013007164","1505.75132203","1507.18326616","1507.26815796","1510.27087998","0","1510.28604794","1516.45443797",
"sujeto_0073050","1","1","31","31","1516.604146","direct","2","1","1","¿cuantos aleteos puede dar 
un colibrí por segundo?","120","50",,"0","0","0","competitive","left","0.85719704628","1517.46140504","4.14280295372","1521.76207304","3.0912501812","1524.85337996","2.9087498188","1527.81350303","1529.54590297","1529.63216114","1532.63513494","0","1532.64907598","1536.86134815",
"sujeto_0073050","1","1","32","32","1537.00087595","inverse","4","1","3","¿Qué altura promedio tienen
 los hombres uruguayos?","1.73 m","1.72 m",,"1","1","1","competitive","left","1.2005109787","1538.20143795","3.7994890213","1542.17341113","2.98190498352","1545.15538096","3.01809501648","1548.22354603","1549.48594809","1549.55845404","1552.56144595","1","1552.57653403","1557.05088115",
"sujeto_0073050","1","2","1","33","1695.28399611","direct","1","1","1","¿En qué año nació 
el actor Bradd Pitt?","1967","1963",,"1","1","1","competitive","left","1.82441520691","1697.10845399","3.17558479309","1700.42201996","3.76141095161","1704.18349314","2.23858904839","1706.45605803","1707.5518961","1707.62371016","1710.62664104","1","1710.64050508","1716.56684613","1557.06578803"
"sujeto_0073050","1","2","2","34","1716.72543907","inverse","2","1","1","¿Cual es el segundo 
monte más alto?","Kanchenjunga","K2",,"1","1","1","competitive","left","0.955042123795","1717.68055797","4.04495787621","1721.88260198","5.03182005882","1726.91448212","0.968179941177","1727.93347716","1729.38584113","1729.46790409","1732.47089601","1","1732.48508406","1735.91500497",
"sujeto_0073050","1","2","3","35","1736.05350995","direct","3","1","1","¿Cuándo finalizó la construcción
 del Palacio Legislativo?","1925","1917",,"0","0","1","competitive","right","1.04296207428","1737.09653997","3.95703792572","1741.226197","3.18626093864","1744.412498","2.81373906136","1747.27677703","1748.91842103","1748.99429417","1751.994874","0","1752.01189804","1757.7094171",
"sujeto_0073050","1","2","4","36","1757.84742713","inverse","3","1","3","¿Cuántos integrantes tenía
 en su inicio  el cuarteto de nos?","3","4",,"1","1","1","competitive","right","0.972098112106","1758.81960011","4.02790188789","1763.00389504","3.89657902718","1766.90051293","2.10342097282","1769.03821111","1770.1712811","1770.25605106","1773.25904298","1","1773.27296209","1778.91884494",
"sujeto_0073050","1","2","5","37","1779.05787802","direct","2","1","3","¿Qué valor tiene el número pi?","3.14","4.18","left","0","0","1","competitive","left","1.18562698364","1780.24355006","3.81437301636","1784.21545601","1.97202897072","1786.18754506","4.02797102928","1790.26454902","1791.71875405","1791.80022216","1794.80285501","1","1794.81784511","1801.73485208",
"sujeto_0073050","1","2","6","38","1801.86890817","inverse","2","1","2","¿Cuál es la esperanza de vida
 en Uruguay?","75","77",,"1","1","0","competitive","left","0.780689954758","1802.64967108","4.21931004524","1807.04234815","3.40215015411","1810.44454098","2.59784984589","1813.09339309","1814.74686909","1814.82828403","1817.83130598","1","1817.84537911","1824.30834007",
"sujeto_0073050","1","2","7","39","1824.44720411","direct","1","1","2","¿Cuantos pisos tiene la torre 
de las comunicaciones?","26","32",,"1","1","0","competitive","right","1.05733704567","1825.50458598","3.94266295433","1829.60498405","4.30049800873","1833.90552211","1.69950199127","1835.65591002","1837.48467302","1837.55618","1840.55916309","1","1840.57442999","1842.72064304",
"sujeto_0073050","1","2","8","40","1842.85923815","inverse","2","1","4","¿En qué país sudamericano 
no hay McDonalds?","Bolivia","Venezuela",,"0","0","1","competitive","right","1.41830205917","1844.27758408","3.58169794083","1848.01424408","3.72328901291","1851.73759699","2.27671098709","1854.06540298","1855.37467694","1855.44918299","1858.45085096","0","1858.46674514","1864.82285404",
"sujeto_0073050","1","2","9","41","1864.98545814","direct","3","1","1","¿En qué año empieza
 la Edad Media?","476","512",,"1","1","1","competitive","right","1.35008192062","1866.33560801","3.64991807938","1870.14271808","3.75680088997","1873.89958215","2.24319911003","1876.19347596","1877.59724903","1877.67821503","1880.68121099","1","1880.69536901","1883.6839211",
"sujeto_0073050","1","2","10","42","1883.81358695","inverse","3","1","4","¿Hace cuántos años surgió
 el ser humano?","200mil","300mil",,"0","0","0","competitive","right","1.41096401215","1885.22462106","3.58903598785","1888.96858501","4.73094201088","1893.69958901","1.26905798912","1895.01980305","1896.90583706","1896.98731613","1899.99029303","0","1900.00454617","1903.31491208",
"sujeto_0073050","1","2","11","43","1903.45635796","direct","3","1","4","¿Cuántas cuadras tiene
 actualmente 18 de julio? ","36","33",,"0","0","1","competitive","left","1.00522494316","1904.46169496","3.99477505684","1908.62906599","3.72149991989","1912.35062695","2.27850008011","1914.67960811","1916.38183594","1916.46442914","1919.46738601","0","1919.48137712","1924.20766306",
"sujeto_0073050","1","2","12","44","1924.349581","inverse","1","1","4","¿Qué juego de equipo se 
considera mas rápido?","Lacrosse","Badminton",,"0","0","0","competitive","left","0.947991847992","1925.2976191","4.05200815201","1929.50438499","5.17118597031","1934.67563105","0.828814029694","1935.55772209","1936.80081415","1936.87469506","1939.87768817","0","1939.89157295","1947.8867321",
"sujeto_0073050","1","2","13","45","1948.02633595","direct","1","1","3","¿Qué promedio de edad 
vive una jirafa? ","25","20",,"0","0","1","competitive","right","0.868251085281","1948.8946321","4.13174891472","1953.18459511","3.94998908043","1957.13465714","2.05001091957","1959.23566008","1960.99718714","1961.0709641","1964.07395411","0","1964.088166","1970.04388309",
"sujeto_0073050","1","2","14","46","1970.17267108","inverse","1","1","2","¿Cuántos grandes lagos hay?","7","5",,"0","0","1","competitive","left","0.701961040497","1970.87476516","4.2980389595","1975.34619117","3.85139012337","1979.19762206","2.14860987663","1981.397295","1982.68940306","1982.7647841","1985.76773095","0","1985.78189802","1993.60329795",
"sujeto_0073050","1","2","15","47","1993.73394012","direct","3","1","2","¿Cuántos discos de estudio
 grabó Johhny Cash? ","54","43",,"1","1","0","competitive","right","0.916682004929","1994.65071416","4.08331799507","1998.89143109","4.19723200798","2003.08872604","1.80276799202","2004.92624998","2006.20490813","2006.27727199","2009.27888107","1","2009.29403996","2015.94495916",
"sujeto_0073050","1","2","16","48","2016.07943702","inverse","4","1","1","¿Cuántos barrios tiene
 Montevideo? ","71","62",,"0","0","1","competitive","left","1.00419187546","2017.08367896","3.99580812454","2021.23701501","4.41554903984","2025.65260911","1.58445096016","2027.287714","2028.29479003","2028.37196112","2031.37492013","0","2031.38885403","2036.85085106",
"sujeto_0073050","1","2","17","49","2036.99040103","direct","3","1","3","¿Qué edad tiene Homero Simpson?","36","42",,"0","0","1","competitive","right","0.860227823257","2037.850703","4.13977217674","2042.14454103","2.62707090378","2044.77165604","3.37292909622","2048.17894912","2049.55496311","2049.63155413","2052.63451195","0","2052.64850998","2057.03726697",
"sujeto_0073050","1","2","18","50","2057.18403912","inverse","4","1","2","¿Cuántos países con monarquía 
hay en europa actualmente? ","6","10",,"1","1","1","competitive","left","0.838579177856","2058.02266908","4.16142082214","2062.35752296","3.64608407021","2066.00367594","2.35391592979","2068.39225197","2069.83052897","2069.91020894","2072.91318011","1","2072.92746115","2079.08285093",
"sujeto_0073050","1","2","19","51","2079.22893715","direct","2","1","3","¿Cuántos capítulos de
 Friends existen? ","236","228",,"1","1","1","competitive","left","0.927757978439","2080.1567421","4.07224202156","2084.38625407","3.19537186623","2087.58169413","2.80462813377","2090.41958714","2091.72513199","2091.80414915","2094.80714011","1","2094.82148814","2097.19713116",
"sujeto_0073050","1","2","20","52","2097.33990216","inverse","1","1","3","¿Cuántas óperas compuso Mozart? ","27","22",,"1","1","1","competitive","left","0.860757112503","2098.20072913","4.1392428875","2102.49572897","2.88788795471","2105.38368297","3.11211204529","2108.54525495","2109.83737302","2109.91420007","2112.91718507","1","2112.93129206","2120.242769",
"sujeto_0073050","1","2","21","53","2120.38218594","direct","4","1","3","¿Cuántos mundiales de fútbol 
femenino ha realizado FIFA? ","9","7",,"1","1","1","competitive","right","0.964499950409","2121.34679794","4.03550004959","2125.53766704","3.39696598053","2128.93470216","2.60303401947","2131.57289505","2132.81657004","2132.89170313","2135.89468598","1","2135.90886998","2142.01133895",
"sujeto_0073050","1","2","22","54","2142.14332199","inverse","3","1","2","¿Cuál es la temperatura 
media anual en Montevideo? ","17.5","16.3",,"0","0","1","competitive","right","0.694585084915","2142.83797598","4.30541491508","2147.33453202","4.44210195541","2151.77670002","1.55789804459","2153.36930299","2155.30685401","2155.38741994","2158.39040303","0","2158.404562","2164.97409606",
"sujeto_0073050","1","2","23","55","2165.12253308","direct","2","1","2","¿En qué año se estrenó el
 videojuego The Sims? ","2000","2002",,"0","0","0","competitive","left","0.871183156967","2165.99382615","4.12881684303","2170.27967501","3.13097286224","2173.4107151","2.86902713776","2176.33062196","2178.19263005","2178.26595807","2181.26839805","0","2181.28265715","2188.67631412",
"sujeto_0073050","1","2","24","56","2188.83462596","inverse","2","1","1","¿Cuál es la canción con 
mas covers? ","Yesterday","Stand by me",,"0","0","0","competitive","right","1.78909111023","2190.62378407","3.21090888977","2194.0078001","4.10191321373","2198.10977411","1.89808678627","2200.06076312","2201.45929694","2201.54520917","2204.54818797","0","2204.56223702","2208.73307395",
"sujeto_0073050","1","2","25","57","2208.91413498","direct","1","1","4","¿Cuánto duró la guerra
 de los 100 años?","116","123",,"0","0","0","individual","left","0.665608882904","2209.57978797","4.3343911171","2214.10083795","3.39186310768","2217.49274397","2.60813689232","2220.13668799","2221.61753798","2221.65403104","2224.65699816","0","2224.67190695","2226.99166894",
"sujeto_0073050","1","2","26","58","2227.13988495","inverse","4","1","4","¿Qué color tiene la  bandera de Brasil?","Amarillo","Naranja","left","0","0","1","competitive","left","1.05682301521","2228.19677711","3.94317698479","2232.29493713","2.57381010056","2234.86880708","3.42618989944","2238.34574795","2239.912287","2239.99790812","2243.00089717","1","2243.01512408","2246.04685307",
"sujeto_0073050","1","2","27","59","2246.19994497","direct","4","1","3","¿Qué carabela de 
Colon no volvió del viaje?","Santa María","La pinta",,"0","0","1","competitive","left","0.956774950027","2247.15678906","4.04322504997","2251.37198806","4.00176095963","2255.37381506","1.99823904037","2257.42322516","2258.91425395","2258.99035501","2261.99335408","0","2262.00747013","2264.10693812",
"sujeto_0073050","1","2","28","60","2264.24271894","inverse","4","1","4","¿Cuántos huesos tiene
 un adulto humano?","217","206",,"0","0","1","competitive","left","1.48699498177","2265.72975898","3.51300501823","2269.37994099","2.97780585289","2272.35781097","3.02219414711","2275.41419101","2276.68522906","2276.76612115","2279.76910114","0","2279.78311515","2287.62081909",
"sujeto_0073050","1","2","29","61","2287.75165606","direct","1","1","1","¿Qué país africano fue 
fundado por esclavos?","Liberia","Chad",,"0","0","0","competitive","left","0.935131788254","2288.68685794","4.06486821175","2292.90664101","3.87813901901","2296.78484011","2.12186098099","2298.94260716","2300.93427014","2301.01065803","2304.01362205","0","2304.02778506","2312.0186131",
"sujeto_0073050","1","2","30","62","2312.17990613","inverse","4","1","2","¿A cuánto asciende la cima
 del monte Everest?","7.990 mts","8.848 mts",,"0","0","1","competitive","right","0.855839967728","2313.03579116","4.14416003227","2317.33954811","4.35118913651","2321.69080615","1.64881086349","2323.39028907","2324.57514","2324.65752411","2327.66052914","0","2327.67470813","2334.85821509",
"sujeto_0073050","1","2","31","63","2334.99344015","direct","4","1","1","¿Cuál es el país mas chico?","Sealand","Luxemburgo",,"1","1","1","competitive","right","0.980320930481","2335.97384095","4.01967906952","2340.15067506","4.9600789547","2345.11080599","1.0399210453","2346.18653607","2348.0500381","2348.13599896","2351.13895702","1","2351.15422297","2354.27486014",
"sujeto_0073050","1","2","32","64","2354.40552115","inverse","2","1","4","¿Cuántas pirámides hay en Egipto?","10000","11000",,"1","1","1","competitive","right","0.97425699234","2355.37982512","4.02574300766","2359.57740808","3.17536187172","2362.75283313","2.82463812828","2365.61115003","2366.64472699","2366.72932506","2369.73230696","1","2369.74633408","2374.85481906",
"sujeto_0073050","1","3","1","65","2491.40849805","direct","2","1","2","¿Cuál es el quinto país con 
mas extensión?","Canadá","Brasil",,"1","1","0","competitive","left","1.00337290764","2492.41193414","3.99662709236","2496.56224012","3.98267102242","2500.54497409","2.01732897758","2502.61435008","2503.94763994","2504.03164601","2507.03464413","1","2507.04911709","2514.77551794","2374.86969399"
"sujeto_0073050","1","3","2","66","2514.91747308","inverse","1","1","2","¿Qué rasgo facial no tiene
 la Mona Lisa?","Cejas","Pómulos",,"0","0","1","competitive","left","0.749404907227","2515.66692209","4.25059509277","2520.09098315","3.656924963","2523.74794912","2.343075037","2526.14364195","2527.89403605","2527.97808909","2530.98107004","0","2530.99524593","2537.26285601",
"sujeto_0073050","1","3","3","67","2537.39663315","direct","4","1","3","¿Cuál es el país con 
mayor población?","Esados Unidos","China","right","0","0","1","competitive","right","0.949315071106","2538.34601498","4.05068492889","2542.58774996","2.64813494682","2545.23592615","3.35186505318","2548.63931298","2550.28532004","2550.35757995","2553.36057901","1","2553.37476516","2556.7421",
"sujeto_0073050","1","3","4","68","2556.87647295","inverse","1","1","1","La palabra dinosaurio significa","Lagarto Terrible","Lagarto Dragón",,"1","1","0","competitive","right","0.876395940781","2557.75291514","4.12360405922","2562.03122401","4.42866683006","2566.45996094","1.57133316994","2568.08320498","2569.25355506","2569.33356714","2572.33488107","1","2572.35087705","2575.21269608",
"sujeto_0073050","1","3","5","69","2575.35217094","direct","2","1","3","¿Qué es el membrillero?","Arbol","Arbusto",,"0","0","0","competitive","left","1.11574912071","2576.46799397","3.88425087929","2580.50617814","3.44167995453","2583.94792509","2.55832004547","2586.54136395","2588.49548817","2588.57559896","2591.57860804","0","2591.59377193","2598.05777907",
"sujeto_0073050","1","3","6","70","2598.19464707","inverse","3","1","3","¿Alrededor de qué planeta orbita 
el satélite Europa?","Jupiter","Saturno",,"1","1","1","competitive",,"1.04127192497","2599.23598814","3.95872807503","2603.37001109","6","2609.37012696","0","2609.38517308","2610.92996716","2611.00571394","2614.00869298","0","2614.02189803","2616.22707605",
"sujeto_0073050","1","3","7","71","2616.37454104","direct","3","1","1","¿Donde fue el mundial de 
fútbol de 1954?","Suiza","Suecia",,"1","1","1","competitive","right","0.846328020096","2617.22099304","4.1536719799","2621.54546905","2.38049793243","2623.92600703","3.61950206757","2627.59547496","2628.84808302","2628.93146801","2631.93445706","1","2631.94863605","2635.86041594",
"sujeto_0073050","1","3","8","72","2636.00046206","inverse","1","1","4","¿Cuál de los 7 enanitos
no tenía barba?","Bashful","Mudito",,"1","1","0","competitive","right","0.773481845856","2636.77400994","4.22651815414","2641.17217612","3.18777418137","2644.36001015","2.81222581863","2647.22367096","2648.80380201","2648.87450814","2651.87749004","1","2651.89254212","2656.81884599",
"sujeto_0073050","1","3","9","73","2656.96023607","direct","3","1","2","¿Cual red social es
mas utilizada mundialmente?","Instagram","Facebook",,"1","1","0","competitive","right","0.809722900391","2657.77001214","4.19027709961","2662.11377311","3.84115600586","2665.95499706","2.15884399414","2668.14953399","2670.06688309","2670.15007496","2673.153054","1","2673.168401","2676.10289407",
"sujeto_0073050","1","3","10","74","2676.25394511","inverse","4","1","1","¿Cuándo se inició la copa
 América de fútbol?","1916","1923",,"1","1","1","competitive","right","0.750017166138","2677.00403905","4.24998283386","2681.42680001","3.39516997337","2684.82204103","2.60483002663","2687.47723699","2689.37470508","2689.46179104","2692.46284604","1","2692.48004913","2695.13617396",
"sujeto_0073050","1","3","11","75","2695.28168011","direct","3","1","4","¿Cuántos presidentes de EEUU
han muerto asesinados?","3","4",,"0","0","1","competitive","right","0.671285152435","2695.95302796","4.32871484756","2700.41956902","2.85341095924","2703.27302194","3.14658904076","2706.46967196","2707.95359802","2708.03794503","2711.04091215","0","2711.05589914","2714.70000601",
"sujeto_0073050","1","3","12","76","2714.84056401","inverse","2","1","4","¿Cuántas veces participó EEUU
 en la copa América?","4","5",,"0","0","1","competitive","left","1.44144582748","2716.28206205","3.55855417252","2719.99389696","3.01013207436","2723.00410104","2.98986792564","2726.02938914","2727.47228909","2727.54762506","2730.55061412","0","2730.56496501","2736.68214297",
"sujeto_0073050","1","3","13","77","2736.81655312","direct","4","1","1","¿Cuál de estos países 
no formaba la URSS?","Azeribayán","Afganistán",,"0","0","1","competitive","left","0.73442697525","2737.55104995","4.26557302475","2741.9914341","5.01256108284","2747.00406599","0.98743891716","2748.04223394","2749.35486102","2749.42670417","2752.4297111","0","2752.4438591","2760.42599607",
"sujeto_0073050","1","3","14","78","2760.56144714","inverse","1","1","1","¿En qué año se inauguró
 el teatro Solís?","1867","1856",,"0","0","0","competitive","left","2.47454214096","2763.036062","2.52545785904","2765.71941614","3.23056602478","2768.95002794","2.76943397522","2771.75476193","2772.81108308","2772.88964796","2775.89085913","0","2775.90608001","2782.55385709",
"sujeto_0073050","1","3","15","79","2782.70789504","direct","1","1","4","¿A qué velocidad vuela 
el avión más rápido?","3529","3874",,"0","0","0","competitive","left","0.715091943741","2783.42306304","4.28490805626","2787.86461902","3.51036787033","2791.37502694","2.48963212967","2793.89888406","2795.65440702","2795.73357105","2798.73656511","0","2798.75063109","2800.86088204",
"sujeto_0073050","1","3","16","80","2801.00213814","inverse","3","1","4","¿De qué año es la primer 
película cinematográfica?","1897","1888",,"0","0","0","competitive","left","0.845875024796","2801.84808207","4.1541249752","2806.17107415","3.99091506004","2810.16202903","2.00908493996","2812.22401905","2813.35701799","2813.44193912","2816.44488311","0","2816.45903516","2821.86881113",
"sujeto_0073050","1","3","17","81","2822.01003909","direct","2","1","3","¿Cuántos países 
tiene nuestro planeta?","191","194",,"1","1","1","competitive","left","1.21195816994","2823.22204614","3.78804183006","2827.1683681","3.20967698097","2830.37810397","2.79032301903","2833.2024281","2834.55961895","2834.63693404","2837.63988996","1","2837.65383315","2840.8921361",
"sujeto_0073050","1","3","18","82","2841.05631614","inverse","2","1","2","¿Cuántos habitantes
 tiene Buenos Aires?","2.9000.000","3650000",,"0","0","0","competitive","left","0.648087978363","2841.70448112","4.35191202164","2846.22779894","4.27620887756","2850.50406909","1.72379112244","2852.2627151","2853.65886402","2853.73078203","2856.73379016","0","2856.74780703","2862.57483816",
"sujeto_0073050","1","3","19","83","2862.71596909","direct","2","1","1","¿Cuántos kilos forman una tonelada?","1000","1500","left","1","1","1","competitive","left","0.949110984802","2863.66514611","4.0508890152","2867.87314796","2.42591404915","2870.29912305","3.57408595085","2873.92217302","2875.8095181","2875.89160204","2878.89458394","1","2878.90859914","2884.86600208",
"sujeto_0073050","1","3","20","84","2885.01041102","inverse","4","1","4","¿Cuántos estados tiene la 
República del Perú? ","24","23",,"0","0","1","competitive","left","0.681679964066","2885.69213605","4.31832003593","2890.16716099","3.05292201042","2893.22014403","2.94707798958","2896.21826911","2897.24047995","2897.31955194","2900.32255197","0","2900.33668113","2905.28195906",
"sujeto_0073050","1","3","21","85","2905.42131209","direct","3","1","3","¿En qué año nació Cristóbal Colón? ","1451","1447",,"0","0","1","competitive","right","0.654760837555","2906.07615209","4.34523916245","2910.59487009","3.95618915558","2914.55112505","2.04381084442","2916.64579606","2918.49168706","2918.56356001","2921.56652308","0","2921.58069706","2925.80689406",
"sujeto_0073050","1","3","22","86","2925.94925213","inverse","4","1","4","¿Cuánto mide la 
Montaña Aconcagua? ","6234","6962",,"0","0","1","competitive","left","0.463834047318","2926.41316104","4.53616595268","2931.122226","3.73088788986","2934.85317302","2.26911211014","2937.17262197","2938.46192908","2938.54105306","2941.54402208","0","2941.55811906","2948.74176717",
"sujeto_0073050","1","3","23","87","2948.89237714","direct","2","1","4","¿Cuánto mide el punto
 más profundo del océano? ","12508","11003",,"0","0","1","competitive","left","0.926745176315","2949.81916904","4.07325482368","2954.06666398","5.11344504356","2959.18015003","0.886554956436","2960.11855412","2961.37003303","2961.45315504","2964.45490313","0","2964.46991014","2968.67491007",
"sujeto_0073050","1","3","24","88","2968.82130003","inverse","1","1","3","¿Cuántos álbumes ha publicado 
el cantante Jaime Roos? ","41","34",,"0","0","1","competitive","left","0.417214870453","2969.23858404","4.58278512955","2973.99380994","3.99932909012","2977.99320698","2.00067090988","2980.04488111","2981.53476214","2981.61287403","2984.61586213","0","2984.62983799","2990.82288408",
"sujeto_0073050","1","3","25","89","2990.96519995","direct","4","1","3","¿En qué año nació el 
ex-presidente Jorge Battle? ","1921","1927",,"1","1","1","competitive","right","0.936909914017","2991.90215516","4.06309008598","2996.13926697","4.02385687828","3000.16318512","1.97614312172","3002.19021606","3003.92087007","3004.007833","3007.01082206","1","3007.02504897","3010.51110697",
"sujeto_0073050","1","3","26","90","3010.66027713","inverse","1","1","3","¿Cuántas presidencias 
constitucionales  hubo en Uruguay? ","41","42",,"0","0","1","competitive","left","0.743864059448","3011.40420604","4.25613594055","3015.84836102","3.23276901245","3019.08119011","2.76723098755","3021.89956903","3023.103333","3023.18481517","3026.18780112","0","3026.20173597","3031.98188615",
"sujeto_0073050","1","3","27","91","3032.16945696","direct","1","1","2","¿Quién escribió mas sinfonías?","Mozart","Haydn",,"1","1","0","competitive","right","0.774693012238","3032.94419909","4.22530698776","3037.32635403","4.79878091812","3042.12517905","1.20121908188","3043.37828994","3044.59489894","3044.67884111","3047.681844","1","3047.69583607","3051.44721293",
"sujeto_0073050","1","3","28","92","3051.59775114","inverse","4","1","2","¿En qué año nació Michael Jackson?","1958","1953",,"1","1","1","competitive","left","0.738408088684","3052.33622503","4.26159191132","3056.77034903","3.14577198029","3059.91616201","2.85422801971","3062.80412006","3064.78231215","3064.85534596","3067.85829616","1","3067.87245607","3073.73478699",
"sujeto_0073050","1","3","29","93","3073.90802097","direct","3","1","2","¿En qué año entró en vigencia 
la ley antitabaco en Uruguay?","2005","2006",,"1","1","1","competitive","left","0.93314909935","3074.84124017","4.06685090065","3079.08118916","5.04698109627","3084.12823105","0.953018903732","3085.13281798","3086.72758102","3086.80031514","3089.80324912","1","3089.81738496","3095.15134096",
"sujeto_0073050","1","3","30","94","3095.28523016","inverse","3","1","1","¿Cuándo se subió el 
primer video a youtube?","2004","2005",,"0","0","1","competitive","left","0.725938081741","3096.01123405","4.27406191826","3100.44268394","3.1894659996","3103.63219213","2.8105340004","3106.49363995","3107.79886794","3107.87778807","3110.880795","0","3110.89478707","3118.65038896",
"sujeto_0073050","1","3","31","95","3118.79728913","direct","2","1","1","¿Cuántos habitantes tiene India?","1200 millones","1300 millones",,"0","0","0","competitive","left","1.95605492592","3120.75339508","3.04394507408","3123.97004914","2.93414998055","3126.90426517","3.06585001945","3130.02065611","3131.99029016","3132.07268715","3135.07567501","0","3135.08998895","3141.13750005",
"sujeto_0073050","1","3","32","96","3141.27539515","inverse","4","1","2","¿A qué edad murió Bob Marley?","36","37",,"0","0","1","individual","left","0.838808059692","3142.11425495","4.16119194031","3146.48040199","2.95679402351","3149.43726301","3.04320597649","3152.53235507","3154.43022394","3154.46670914","3157.46971297","0","3157.48428202","3160.5867641",
"sujeto_0073050","1","4","1","97","3283.53726912","direct","2","1","1","¿Cuantos años dirigió la selección 
uruguaya Tabarez?","15 años","13 años",,"0","0","0","competitive","left","0.675997972488","3284.21332812","4.32400202751","3288.68664408","2.15460777283","3290.84131312","3.84539222717","3294.73805904","3295.92919517","3296.00655413","3299.00950813","0","3299.02373004","3306.09576201","3160.60169506"
"sujeto_0073050","1","4","2","98","3306.22503805","inverse","4","1","1","¿Cuantas teclas tiene un teclado 
de computadora generalmente? ","Entre 99 y 108","Entre 109 y 113",,"1","1","1","competitive","left","1.36427998543","3307.58938813","3.63572001457","3311.38460207","4.68367791176","3316.06832314","1.31632208824","3317.43570995","3318.43845105","3318.51973009","3321.52270794","1","3321.53689814","3323.90833807",
"sujeto_0073050","1","4","3","99","3324.03895998","direct","1","1","1","¿Cuál Departamento tiene
 mayor superficie?","Río Negro","Soriano",,"0","0","0","individual","left","2.13733005524","3326.1763351","2.86266994476","3329.19577408","3.34854006767","3332.54435515","2.65145993233","3335.24201298","3336.95546603","3337.01009512","3340.01306701","0","3340.02809715","3344.35087109",
"sujeto_0073050","1","4","4","100","3344.49629211","inverse","3","1","2","¿Cuál es el apellido de las 
hermanastras  de  cenicienta?","Tremaine","Truman",,"0","0","1","competitive","left","1.16203904152","3345.65840006","3.83796095848","3349.67017317","4.20712709427","3353.87735796","1.79287290573","3355.70559502","3357.57484102","3357.65675116","3360.65974402","0","3360.67361903","3363.36953402",
"sujeto_0073050","1","4","5","101","3363.52530694","direct","4","1","4","¿Cuál película ganó un
 Oscar a mejor película?","Alto Impacto","Cache",,"0","0","1","competitive","left","1.32595705986","3364.85131001","3.67404294014","3368.6806941","3.92762899399","3372.60838604","2.07237100601","3374.71506715","3375.83445501","3375.91615009","3378.91910195","0","3378.93324494","3381.19787002",
"sujeto_0073050","1","4","6","102","3381.33455896","inverse","1","1","3","¿A cuántos centímetros
equivale la medida pié?","25","30",,"0","0","1","competitive","right","0.838778972626","3382.173383","4.16122102737","3386.48932314","3.69394922256","3390.18331504","2.30605077744","3392.52361703","3393.56359816","3393.64184499","3396.64288306","0","3396.65846515","3402.05938911",
"sujeto_0073050","1","4","7","103","3402.210428","direct","2","1","2","¿Qué departamento es mas grande?","Cerro Largo","Paysandú",,"0","0","0","competitive","right","0.977926015854","3403.18840003","4.02207398415","3407.36655903","2.61381196976","3409.98041201","3.38618803024","3413.41754508","3415.01726604","3415.10275006","3418.10574603","0","3418.11976409","3422.22973704",
"sujeto_0073050","1","4","8","104","3422.37142301","inverse","2","1","3","¿Quién pintó la Mona Lisa?","Picasso","Da Vinci","right","0","0","1","competitive","right","0.797946929932","3423.16943908","4.20205307007","3427.55727816","2.20706510544","3429.76438713","3.79293489456","3433.60922003","3435.21511412","3435.29509306","3438.29809904","1","3438.31224704","3440.47453308",
"sujeto_0073050","1","4","9","105","3440.63023305","direct","4","1","3","¿Cuántos litros hay en un galon?","3.54","3.78",,"1","1","1","competitive","right","0.818157911301","3441.44846201","4.1818420887","3445.82024503","3.10809803009","3448.92840409","2.89190196991","3451.87063408","3453.38848901","3453.47277713","3456.47577","1","3456.48998404","3462.2785871",
"sujeto_0073050","1","4","10","106","3462.44086599","inverse","4","1","1","¿Cuántas teclas tiene
 un piano moderno?","80","88",,"0","0","1","competitive","right","1.77254796028","3464.21345806","3.22745203972","3467.61340499","3.85794591904","3471.471421","2.14205408096","3473.66602111","3474.67448711","3474.75038409","3477.75336909","0","3477.76747513","3484.56287098",
"sujeto_0073050","1","4","11","107","3484.7188611","direct","4","1","3","¿Cuántos países hay en África?","54","62",,"0","0","1","competitive","right","2.98251199722","3487.70141816","2.01748800278","3489.89330912","3.35108804703","3493.24446106","2.64891195297","3495.92691112","3497.61746311","3497.69590712","3500.69887209","0","3500.71294403","3508.51770496",
"sujeto_0073050","1","4","12","108","3508.68117499","inverse","1","1","3","¿En qué siglo se crearon
 las primeras pistolas?","XV","XIII",,"1","1","1","competitive","right","0.919214010239","3509.60045815","4.08078598976","3513.83551311","3.9318549633","3517.76740813","2.0681450367","3519.88768697","3521.83561516","3521.90541697","3524.90683413","1","3524.92307711","3528.15617514",
"sujeto_0073050","1","4","13","109","3528.34184813","direct","3","1","4","¿En qué año se estrenó 
la serie friends?","1994","1995",,"0","0","1","competitive","left","1.28754997253","3529.6294651","3.71245002747","3533.49880409","4.29555916786","3537.79440403","1.70444083214","3539.53337502","3541.40868402","3541.48422813","3544.48719406","0","3544.50128007","3549.50683212",
"sujeto_0073050","1","4","14","110","3549.63622212","inverse","3","1","4","¿En qué año nació Hitler?","1889","1887",,"0","0","1","competitive","right","0.760205030441","3550.39649296","4.23979496956","3554.79282498","1.98156309128","3556.77444911","4.01843690872","3560.82648897","3561.94086504","3562.01219296","3565.01487112","0","3565.028759","3570.05482507",
"sujeto_0073050","1","4","15","111","3570.19753814","direct","1","1","4","¿Cuánto pesa un elefante Africano?","6000 kilos","5400 kilos",,"0","0","0","competitive","right","2.82490301132","3573.02248597","2.17509698868","3575.35365605","3.11174988747","3578.46546912","2.88825011253","3581.38760114","3582.74352002","3582.82276416","3585.82576013","0","3585.83966708","3592.54673314",
"sujeto_0073050","1","4","16","112","3592.69184804","inverse","1","1","2","¿Qué porcentaje de 
la población es zurda?","10%","7%",,"1","1","0","competitive","right","0.789616823196","3593.48156905","4.2103831768","3597.87883997","2.35157489777","3600.23047709","3.64842510223","3603.93025017","3605.17333603","3605.24972415","3608.25271511","1","3608.26691914","3614.2466681",
"sujeto_0073050","1","4","17","113","3614.41840816","direct","1","1","2","¿En qué año se estrenó
Volver al futuro?","1984","1985",,"0","0","1","competitive","left","0.896032094955","3615.31449294","4.10396790504","3619.59261012","3.03882813454","3622.63150406","2.96117186546","3625.64415407","3627.20598102","3627.2788651","3630.281847","0","3630.29610205","3637.38754606",
"sujeto_0073050","1","4","18","114","3637.53097296","inverse","3","1","2","¿Cuántos jugadores hay en un 
equipo de baseball?","9","8",,"1","1","0","competitive","left","0.818473100662","3638.34952116","4.18152689934","3642.70501208","5.21541309357","3647.92049503","0.784586906433","3648.75701499","3650.37087297","3650.45735097","3653.46030211","1","3653.4746151","3658.45185995",
"sujeto_0073050","1","4","19","115","3658.59228897","direct","2","1","1","¿Cuántos Oscar ganó
 la película titanic?","13","11",,"1","1","1","competitive","left","0.67022895813","3659.26257205","4.32977104187","3663.76516795","2.83131694794","3666.59652615","3.16868305206","3669.81561899","3671.11768699","3671.20094705","3674.203933","1","3674.21892715","3678.82158613",
"sujeto_0073050","1","4","20","116","3678.97000408","inverse","4","1","4","¿En qué año comenzó
la segunda guerra mundial?","1939","1976","left","0","0","1",,,,,,,,,,,,,,,"3683.99008393","3687.97727799",
"sujeto_0073050","1","4","21","117","3688.10660005","direct","2","1","4","¿Cuántos biomas hay en Uruguay?","5","4",,"0","0","1","competitive","left","1.16090989113","3689.26755595","3.83909010887","3693.26482201","3.62165784836","3696.886549","2.37834215164","3699.31498814","3701.11232114","3701.18312001","3704.186095","0","3704.20108604","3710.450495",
"sujeto_0073050","1","4","22","118","3710.60244203","inverse","2","1","3","¿Cuándo murió Pablo Escobar?","1993","1997",,"1","1","1","competitive","right","0.765030860901","3711.36751795","4.2349691391","3715.75650907","2.80201196671","3718.55858612","3.19798803329","3721.80885816","3723.59166813","3723.66079903","3726.66375303","1","3726.67863512","3732.38229394",
"sujeto_0073050","1","4","23","119","3732.51331496","direct","1","1","4","¿Qué serie ha ganado mas premios?","Friends","Murphy Brown",,"1","1","0","competitive","left","1.19617891312","3733.70957112","3.80382108688","3737.67020202","3.01232886314","3740.68257213","2.98767113686","3743.70462108","3745.05704117","3745.13958907","3748.14254594","1","3748.15665603","3753.71483707",
"sujeto_0073050","1","4","24","120","3753.87437296","inverse","4","1","2","¿Cuántas fichas tiene el dominó?","26","28",,"1","1","1","competitive","right","0.715167045593","3754.58961415","4.28483295441","3759.03197813","2.76152300835","3761.7935431","3.23847699165","3765.06505394","3766.12035108","3766.20067406","3769.20365906","1","3769.21695304","3774.46005702",
"sujeto_0073050","1","4","25","121","3774.60246706","direct","2","1","4","¿Cuántos son los dientes de leche?","20","25",,"0","0","1","competitive","right","0.673106908798","3775.27564406","4.3268930912","3779.75891709","3.32162809372","3783.08058596","2.67837190628","3785.80943108","3787.51980305","3787.59390211","3790.59688306","0","3790.61202312","3792.75773311",
"sujeto_0073050","1","4","26","122","3792.896456","inverse","3","1","3","¿Cuántos gramos son una onza?","22","28",,"0","0","1","competitive","left","0.657121896744","3793.55365705","4.34287810326","3798.04852915","2.92896699905","3800.97754002","3.07103300095","3804.08373404","3806.07860112","3806.15219617","3809.155195","0","3809.17039204","3815.46064615",
"sujeto_0073050","1","4","27","123","3815.58749795","direct","3","1","1","¿Cuándo salió el primer album
 de los Beatles?","1963","1962",,"1","1","1","competitive","right","0.757071018219","3816.34464908","4.24292898178","3820.72975612","3.22981905937","3823.95964599","2.77018094063","3826.76335597","3827.92696595","3827.99822712","3830.99884701","1","3831.01566005","3834.78770113",
"sujeto_0073050","1","4","28","124","3834.93410611","inverse","3","1","3","¿Quién fundó la empresa apple?","Carlos Slim","Steve Jobs",,"1","1","1","competitive","right","0.588441133499","3835.52261615","4.4115588665","3840.08956599","2.32502102852","3842.41465211","3.67497897148","3846.14077806","3847.25543904","3847.34204912","3850.3450141","1","3850.35947013","3856.65733695",
"sujeto_0073050","1","4","29","125","3856.79397798","direct","4","1","2","¿Cuántos municipios hay
 en Montevideo?","8","7",,"1","1","1","competitive","left","0.826608896255","3857.62065506","4.17339110374","3861.95125699","4.1333129406","3866.08461595","1.8666870594","3868.00239801","3869.91714597","3870.00309896","3873.00608611","1","3873.02102113","3875.10216308",
"sujeto_0073050","1","4","30","126","3875.23973703","inverse","1","1","1","¿Cuántos kilómetros hay
 de Montevideo a Artigas?","632","599",,"0","0","0","competitive","left","1.76286792755","3877.00267315","3.23713207245","3880.39366794","2.41393399239","3882.80767298","3.58606600761","3886.44221807","3887.92532206","3887.99426603","3890.99724507","0","3891.01143003","3897.06287599",
"sujeto_0073050","1","4","31","127","3897.21307302","direct","2","1","2","¿En qué año nació 
Leonardo Da Vinci?","1452","1511",,"1","1","0","competitive","left","0.680652856827","3897.89384007","4.31934714317","3902.38838696","3.96107792854","3906.34950709","2.03892207146","3908.42277098","3910.27484012","3910.35789204","3913.36087298","1","3913.37518215","3916.52160716",
"sujeto_0073050","1","4","32","128","3916.65945101","inverse","3","1","1","¿A qué continente
 pertenece el país Gabón?","Africa","Oceanía",,"0","0","1","competitive",,"0.8071808815","3917.46669817","4.1928191185","3921.83207703","6","3927.83220911","0","3927.84785914","3929.65952516","3929.73449516","3932.73745012","0","3932.75147796","3937.98937511",
