"code","nro_aplicante","nro_bloque","nro_trial_bloque","nro_trial_global","show_game_type","choice_order","rival","pay_individual","pay_competitive","question","answer_left_text","answer_right_text","correct_answer","outcome_individual","outcome_competitive","outcome_rival","game_type","answer","social_time","rt_game_type","feedback_delay","show_question","answer_time","rt_answer_global","feedback_delay_2","show_jitter","jitter_time","show_outcome","outcome_time","outcome_participant_real","show_final_jitter","second_jitter_time","inicio_descanso"
"sujeto_d90f36d4","1","1","1","1","674.642187834","direct","3","1","4","¿Cuántos centímetros corresponden
al talle 36 del calzado?","23","24","","0","0","1","competitive","","4.90052890778","679.542757988","0.0994710922241","679.812863827","6","685.812996864","0","685.831108809","686.859392881","686.932919979","689.93590188","0","689.950305939","692.11282897",""
"sujeto_d90f36d4","1","1","2","2","692.250967979","inverse","3","1","2","¿Cuántas metros mide la Intendencia
Municipal de Montevideo? ","84","78","","0","0","1","competitive","left","2.73583006859","694.986862898","2.26416993141","697.407155991","3.27366709709","700.68086791","2.72633290291","703.459635973","705.337669849","705.410754919","708.413712978","0","708.428919792","710.521680832",""
"sujeto_d90f36d4","1","1","3","3","710.696719885","direct","1","1","3","¿Cuántas La Pasiva
 hay en uruguay?","15","11","","1","1","1","competitive","right","2.39917492867","713.096033812","2.60082507133","715.867689848","2.67420887947","718.541939974","3.32579112053","721.918196917","723.529862881","723.60324192","726.606197834","1","726.620459795","730.898766994",""
"sujeto_d90f36d4","1","1","4","4","731.022056818","inverse","3","1","3","¿De que color es la camiseta de uruguay?","blanca","celeste","right","1","1","1","competitive","right","2.55084991455","733.572947979","2.44915008545","736.193439007","2.41757798195","738.611076832","3.58242201805","742.245350838","743.450073004","743.530690908","746.533649921","1","746.547775984","750.001713991",""
"sujeto_d90f36d4","1","1","5","5","750.149770975","direct","2","1","1","¿Cuánto metros mide
la torre Eiffel?","333","324","","1","1","1","competitive","left","3.34228515625","753.492121935","1.65771484375","755.288349867","3.84876084328","759.13715601","2.15123915672","761.323715925","762.845104933","762.92413187","765.927107811","1","765.941294909","772.977973938",""
"sujeto_d90f36d4","1","1","6","6","773.109580994","inverse","3","1","4","¿Cuantas ciudades existen
 en todo el uruguay?","63","72","","0","0","1","competitive","left","1.77953910828","774.889186859","3.22046089172","778.267233849","4.65496897697","782.922275782","1.34503102303","784.31918478","785.374013901","785.452633858","788.455598831","0","788.469630957","796.094326973",""
"sujeto_d90f36d4","1","1","7","7","796.23830986","direct","1","1","1","¿Cuantos estados tiene África?","52","54","","1","1","0","competitive","right","2.79498004913","799.033333778","2.20501995087","801.391709805","4.02256298065","805.41434288","1.97743701935","807.447831869","809.310294867","809.381190777","812.384162903","1","812.398097992","818.15912199",""
"sujeto_d90f36d4","1","1","8","8","818.299563885","inverse","4","1","4","¿En qué año nació
 Stephen Hawking?","1952","1942","","0","0","1","competitive","right","1.94394087791","820.243556976","3.05605912209","823.472259998","5.31821298599","828.790518999","0.681787014008","829.525616884","830.969931841","831.042785883","834.045749903","0","834.060068846","840.159411907",""
"sujeto_d90f36d4","1","1","9","9","840.311531782","direct","2","1","3","¿Cuánto años tenía Artigas
 cuando se fue a Paraguay?","56","57","","1","1","1","competitive","left","2.06200408936","842.373577833","2.93799591064","845.466653824","5.34292888641","850.809650898","0.657071113586","851.504012823","853.053499937","853.137391806","856.140390873","1","856.155581951","862.202887774",""
"sujeto_d90f36d4","1","1","10","10","862.339613914","inverse","1","1","2","¿Cuantos milímetros 
mide una hoja A2?","420x592","420x594","","0","0","1","competitive","","1.66812896729","864.007793903","3.33187103271","867.496369839","6","873.496497869","0","873.51240778","875.080830812","875.165942907","878.168926001","0","878.18363595","885.257269859",""
"sujeto_d90f36d4","1","1","11","11","885.401325941","direct","3","1","3","¿Cuál es la menor temperatura 
registrada en Uruguay?","-5.4","-7.4","","0","0","1","competitive","right","1.76052379608","887.161893845","3.23947620392","890.558696985","3.65830016136","894.217057943","2.34169983864","896.609495878","898.290369987","898.37813282","901.381126881","0","901.395208836","905.128516912",""
"sujeto_d90f36d4","1","1","12","12","905.280053854","inverse","2","1","2","¿Cuantos años hace que 
se fundó facebook?","18","17","","0","0","0","competitive","left","3.08104991913","908.361166954","1.91895008087","910.434845924","5.07429504395","915.509203911","0.925704956055","916.469242811","917.84194994","917.920166969","920.922367811","0","920.937711954","923.712355852",""
"sujeto_d90f36d4","1","1","13","13","923.839529991","direct","1","1","4","¿Cuál animal es más
 pesado en promedio?","Rinoceronte","Hipopotamo","","0","0","0","competitive","right","2.74974513054","926.589338779","2.25025486946","928.995334864","5.15805196762","934.15345788","0.841948032379","935.031631947","936.110874891","936.181412935","939.184385777","0","939.198569775","943.038337946",""
"sujeto_d90f36d4","1","1","14","14","943.184374809","inverse","1","1","2","¿Qué personaje de dragon ball 
murió más veces?","Chaoz","Krillin","","1","1","0","competitive","right","3.35407805443","946.538516998","1.64592194557","948.406140804","5.32843089104","953.734614849","0.671569108963","954.441314936","955.899145842","955.974844933","958.977826834","1","958.99229598","966.765233994",""
"sujeto_d90f36d4","1","1","15","15","966.927545786","direct","3","1","2","La universidad de oxford. 
existe desde:","1096","1249","","1","1","0","competitive","right","3.69610404968","970.623720884","1.30389595032","972.08377099","4.66196608543","976.745781898","1.33803391457","978.120169878","979.168992996","979.254004002","982.256979942","1","982.270996809","988.961834908",""
"sujeto_d90f36d4","1","1","16","16","989.092042923","inverse","3","1","1","¿Qué escritor latino ganó antes
 el premio nobel?"," García Marquez","Neruda","","0","0","1","","","","","","","","","","","","","","","994.113151789","997.573671818",""
"sujeto_d90f36d4","1","1","17","17","997.695591927","direct","4","1","3","¿Cuántos dientes tiene un
 tiburón blanco?","6000","3000","","0","0","1","competitive","right","3.45243406296","1001.14810801","1.54756593704","1002.85152793","4.21546316147","1007.06703281","1.78453683853","1008.88683987","1009.925843","1010.00394392","1013.00694394","0","1013.02104783","1017.83072782",""
"sujeto_d90f36d4","1","1","18","18","1017.9721458","inverse","4","1","1","¿Cuánto mide el paralelo Ecuador?","40.000km","70.000km","","0","0","1","individual","right","2.7900519371","1020.76226282","2.2099480629","1023.13209701","3.77820110321","1026.91033983","2.22179889679","1029.17727494","1031.13336492","1031.17821097","1034.18122292","0","1034.19645691","1037.79833388",""
"sujeto_d90f36d4","1","1","19","19","1037.93108082","direct","4","1","2","¿Cuál fue el primer libro 
de Stephen King?","Carrie","The Stand","","1","1","1","competitive","left","2.57236194611","1040.50351","2.42763805389","1043.08958578","3.20994710922","1046.29959583","2.79005289078","1049.13899183","1050.8823688","1050.95621896","1053.95919895","1","1053.97350192","1058.447891",""
"sujeto_d90f36d4","1","1","20","20","1058.57589889","inverse","2","1","3","¿Qué civilización practicaba
 la momificación?","Grecia","Egipto","right","0","0","1","competitive","right","2.27380490303","1060.84974599","2.72619509697","1063.73340583","2.83436203003","1066.5678308","3.16563796997","1069.78352189","1071.72277689","1071.80205488","1074.80498385","1","1074.82010388","1079.04884696",""
"sujeto_d90f36d4","1","1","21","21","1079.18843889","direct","4","1","4","¿Cuántos millones de visitas
 recibe google por minuto?","3.0","4.5","","0","0","1","competitive","right","1.56449198723","1080.75299597","3.43550801277","1084.35859799","3.85938310623","1088.21804285","2.14061689377","1090.39400482","1091.90887499","1091.99555397","1094.99853992","0","1095.01243997","1102.13510299",""
"sujeto_d90f36d4","1","1","22","22","1102.28066587","inverse","1","1","3","La máquina de fax. se inventó en:","1843","1960","","0","0","1","competitive","right","1.788615942","1104.06935","3.211384058","1107.43976593","3.08151102066","1110.52132297","2.91848897934","1113.48831582","1114.73034596","1114.80608392","1117.80634594","0","1117.82381487","1121.06012678",""
"sujeto_d90f36d4","1","1","23","23","1121.19232392","direct","2","1","4","En la verdadera historia de los
 300 espartanos. habían:","300 soldados","4300 soldados","","1","1","1","competitive","","1.35110402107","1122.54349589","3.64889597893","1126.34935284","6","1132.34948587","0","1132.36503983","1133.6262548","1133.70151401","1136.70447278","0","1136.71824884","1140.52002096",""
"sujeto_d90f36d4","1","1","24","24","1140.65411401","inverse","1","1","4","¿Cuántos milímetros crece
 el pelo por día?","0.4","0.04","","0","0","0","competitive","left","1.361536026","1142.01571393","3.638463974","1145.80969286","3.18512296677","1148.99488091","2.81487703323","1151.86085796","1153.62152886","1153.69521999","1156.69820595","0","1156.71275187","1163.44782996",""
"sujeto_d90f36d4","1","1","25","25","1163.58103085","direct","4","1","1","¿Cuánto mide la baldosa gris 
clásica de Montevideo?","22x22 cm.","20x20 cm.","","1","1","1","competitive","","1.98899292946","1165.57009482","3.01100707054","1168.73833895","6","1174.73846698","0","1174.75435185","1176.74959493","1176.82427478","1179.8272469","0","1179.84235883","1185.38513899",""
"sujeto_d90f36d4","1","1","26","26","1185.52766585","inverse","2","1","2","¿Cuántas películas de rápidos
 y furiosos hay?","10","11","","1","1","0","competitive","left","2.28469800949","1187.81240582","2.71530199051","1190.69737196","2.72405815125","1193.42149591","3.27594184875","1196.74842501","1198.10641599","1198.18289185","1201.18588185","1","1201.20018101","1203.23436284",""
"sujeto_d90f36d4","1","1","27","27","1203.36868691","direct","3","1","1","¿Cuántos masters 1000
 ganó Del Potro?","1","2","","1","1","1","competitive","right","1.96799397469","1205.3367548","3.03200602531","1208.52421284","3.99142193794","1212.51567698","2.00857806206","1214.5775919","1216.33220482","1216.41208291","1219.41506696","1","1219.42923379","1226.8255918",""
"sujeto_d90f36d4","1","1","28","28","1226.99768496","inverse","2","1","4","¿Cuántos meses dura el 
embarazo de una leona?","3 meses","4 meses","","0","0","1","competitive","right","1.27822899818","1228.27595782","3.72177100182","1232.15526986","3.32672595978","1235.48203897","2.67327404022","1238.18993092","1239.30098391","1239.37408686","1242.37704778","0","1242.39110279","1249.1135819",""
"sujeto_d90f36d4","1","1","29","29","1249.25958085","direct","1","1","1","¿En qué año fue creado
 el sandwich?","1762","1653","","1","1","0","individual","right","2.93668603897","1252.19633293","2.06331396103","1254.43128991","3.35305285454","1257.78438497","2.64694714546","1260.48464298","1262.08322191","1262.11957598","1265.12254691","1","1265.13754201","1268.608181",""
"sujeto_d90f36d4","1","1","30","30","1268.73867798","inverse","4","1","2","El nombre de la moneda de Vietnam es:","Dinar","Dong","","0","0","1","competitive","left","2.71786499023","1271.45658684","2.28213500977","1273.89391899","3.02579092979","1276.91977","2.97420907021","1279.94543195","1281.37742782","1281.46383381","1284.4668088","0","1284.48115778","1290.64959693",""
"sujeto_d90f36d4","1","1","31","31","1290.78129888","direct","2","1","1","¿cuantos aleteos puede dar 
un colibrí por segundo?","120","50","","0","0","0","competitive","right","3.31958389282","1294.10092592","1.68041610718","1295.93904686","3.41193294525","1299.3510468","2.58806705475","1301.97318292","1303.70553279","1303.79068279","1306.79365778","0","1306.80906987","1311.02135587",""
"sujeto_d90f36d4","1","1","32","32","1311.15988898","inverse","4","1","3","¿Qué altura promedio tienen
 los hombres uruguayos?","1.73 m","1.72 m","","1","1","1","competitive","right","1.65629816055","1312.81623292","3.34370183945","1316.31667185","4.41362905502","1320.73034501","1.58637094498","1322.36800289","1323.63032889","1323.70287085","1326.70583892","1","1326.71989894","1331.1958549",""
"sujeto_d90f36d4","1","2","1","33","1472.9951148","direct","1","1","1","¿En qué año nació 
el actor Bradd Pitt?","1967","1963","","1","1","1","individual","left","2.37678790092","1475.37201595","2.62321209908","1478.15057683","3.48940706253","1481.64002299","2.51059293747","1484.20228601","1485.29812479","1485.33730292","1488.34026098","1","1488.35366797","1494.28125787","1331.207479"
"sujeto_d90f36d4","1","2","2","34","1494.40496397","inverse","2","1","1","¿Cual es el segundo 
monte más alto?","Kanchenjunga","K2","","1","1","1","competitive","left","3.43819308281","1497.84319592","1.56180691719","1499.54714179","5.09926509857","1504.64645481","0.900734901428","1505.59961796","1507.05204487","1507.13300395","1510.13434792","1","1510.15065789","1513.58054399",""
"sujeto_d90f36d4","1","2","3","35","1513.71850896","direct","3","1","1","¿Cuándo finalizó la construcción
 del Palacio Legislativo?","1925","1917","","0","0","1","competitive","left","3.78211712837","1517.500669","1.21788287163","1518.87376881","4.38786506653","1523.26170087","1.61213493347","1524.92566681","1526.56737781","1526.64349198","1529.64651179","0","1529.65565085","1535.35321784",""
"sujeto_d90f36d4","1","2","4","36","1535.49017978","inverse","3","1","3","¿Cuántos integrantes tenía
 en su inicio  el cuarteto de nos?","3","4","","1","1","1","competitive","left","2.19587612152","1537.68610597","2.80412387848","1540.64965582","5.53047299385","1546.18018794","0.469527006149","1546.68838096","1547.82148099","1547.90456581","1550.90755486","1","1550.92262387","1556.57243395",""
"sujeto_d90f36d4","1","2","5","37","1556.72384977","direct","2","1","3","¿Qué valor tiene el número pi?","3.14","4.18","left","0","0","1","competitive","left","1.79250812531","1558.51640391","3.20749187469","1561.89549589","2.20893406868","1564.10448885","3.79106593132","1567.94544101","1569.39965487","1569.4806788","1572.48365784","1","1572.49794483","1579.41892791",""
"sujeto_d90f36d4","1","2","6","38","1579.58452797","inverse","2","1","2","¿Cuál es la esperanza de vida
 en Uruguay?","75","77","","1","1","0","competitive","left","2.75626111031","1582.34083486","2.24373888969","1584.74229097","3.89755702019","1588.63989592","2.10244297981","1590.79306388","1592.44637299","1592.52746296","1595.53038478","1","1595.54459286","1602.007617",""
"sujeto_d90f36d4","1","2","7","39","1602.14708781","direct","1","1","2","¿Cuantos pisos tiene la torre 
de las comunicaciones?","26","32","","1","1","0","competitive","left","1.7410428524","1603.88817501","3.2589571476","1607.30525184","4.42705106735","1611.73236585","1.57294893265","1613.3398838","1615.16866493","1615.25739193","1618.2603569","1","1618.2747488","1620.42096281",""
"sujeto_d90f36d4","1","2","8","40","1620.56044579","inverse","2","1","4","¿En qué país sudamericano 
no hay McDonalds?","Bolivia","Venezuela","","0","0","1","competitive","left","2.30502200127","1622.86551285","2.69497799873","1625.74699378","4.75458407402","1630.50163484","1.24541592598","1631.80015087","1633.10950494","1633.18372178","1636.18670583","0","1636.20088291","1642.55836391",""
"sujeto_d90f36d4","1","2","9","41","1642.70236897","direct","3","1","1","¿En qué año empieza
 la Edad Media?","476","512","","1","1","1","individual","left","3.85752511024","1646.55993795","1.14247488976","1647.87520981","5.96282792091","1653.83810091","0.0371720790863","1653.91163898","1655.31540394","1655.36137581","1658.36231899","1","1658.3785429","1661.366328",""
"sujeto_d90f36d4","1","2","10","42","1661.51415896","inverse","3","1","4","¿Hace cuántos años surgió
 el ser humano?","200mil","300mil","","0","0","0","competitive","right","2.14910101891","1663.66332388","2.85089898109","1666.68434501","5.22903108597","1671.9134388","0.770968914032","1672.72152281","1674.6075778","1674.68857479","1677.69156098","0","1677.70588398","1681.01637578",""
"sujeto_d90f36d4","1","2","11","43","1681.15785885","direct","3","1","4","¿Cuántas cuadras tiene
 actualmente 18 de julio? ","36","33","","0","0","1","competitive","right","1.77165699005","1682.92957187","3.22834300995","1686.31417394","3.37358403206","1689.68782091","2.62641596794","1692.36490297","1694.06717491","1694.14909697","1697.15207386","0","1697.16718197","1701.89347482",""
"sujeto_d90f36d4","1","2","12","44","1702.0684979","inverse","1","1","4","¿Qué juego de equipo se 
considera mas rápido?","Lacrosse","Badminton","","0","0","0","competitive","left","1.86053299904","1703.929075","3.13946700096","1707.24128795","5.64278292656","1712.88412881","0.357217073441","1713.27593398","1714.51903892","1714.592314","1717.59529901","0","1717.61038399","1725.60553694",""
"sujeto_d90f36d4","1","2","13","45","1725.74524784","direct","1","1","3","¿Qué promedio de edad 
vive una jirafa? ","25","20","","0","0","1","competitive","right","2.15408587456","1727.89939594","2.84591412544","1730.90388393","4.72663807869","1735.6305809","1.27336192131","1736.93555999","1738.69701195","1738.77052379","1741.77349782","0","1741.78789687","1747.74361181",""
"sujeto_d90f36d4","1","2","14","46","1747.88893294","inverse","1","1","2","¿Cuántos grandes lagos hay?","7","5","","0","0","1","competitive","left","3.87891817093","1751.76791382","1.12108182907","1753.03253388","4.00840902328","1757.04100394","1.99159097672","1759.08425283","1760.37637281","1760.45197582","1763.45433187","0","1763.4686079","1771.2900188",""
"sujeto_d90f36d4","1","2","15","47","1771.43684793","direct","3","1","2","¿Cuántos discos de estudio
 grabó Johhny Cash? ","54","43","","1","1","0","competitive","left","3.01247596741","1774.44936895","1.98752403259","1776.5947969","5.06264090538","1781.65748191","0.93735909462","1782.63041496","1783.9090569","1783.99755478","1786.99836087","1","1787.01463294","1793.66237378",""
"sujeto_d90f36d4","1","2","16","48","1793.799366","inverse","4","1","1","¿Cuántos barrios tiene
 Montevideo? ","71","62","","0","0","1","individual","right","1.90937209129","1795.70878696","3.09062790871","1798.99013591","3.96164798737","1802.9518199","2.03835201263","1805.02496982","1806.03199697","1806.075984","1809.07832193","0","1809.09342289","1814.554317",""
"sujeto_d90f36d4","1","2","17","49","1814.6953938","direct","3","1","3","¿Qué edad tiene Homero Simpson?","36","42","","0","0","1","competitive","right","2.42369103432","1817.11912799","2.57630896568","1819.86774588","2.51647591591","1822.38429093","3.48352408409","1825.902596","1827.2786448","1827.35445094","1830.35743093","0","1830.37151194","1834.76026583",""
"sujeto_d90f36d4","1","2","18","50","1834.9387908","inverse","4","1","2","¿Cuántos países con monarquía 
hay en europa actualmente? ","6","10","","1","1","1","individual","left","2.28172683716","1837.22058082","2.71827316284","1840.111058","3.9966070652","1844.107728","2.0033929348","1846.1472528","1847.585531","1847.63088489","1850.63385201","1","1850.64924097","1856.80606079",""
"sujeto_d90f36d4","1","2","19","51","1856.95025778","direct","2","1","3","¿Cuántos capítulos de
 Friends existen? ","236","228","","1","1","1","competitive","right","2.62473607063","1859.57503986","2.37526392937","1862.10665798","3.35028910637","1865.45701194","2.64971089363","1868.15791678","1869.46236086","1869.54340696","1872.54639101","1","1872.5608089","1874.93645501",""
"sujeto_d90f36d4","1","2","20","52","1875.07923293","inverse","1","1","3","¿Cuántas óperas compuso Mozart? ","27","22","","1","1","1","competitive","left","4.32368302345","1879.40300179","0.676316976547","1880.23376179","4.034678936","1884.268507","1.965321064","1886.26856279","1887.56072378","1887.63650799","1890.63947797","1","1890.6525178","1897.96400499",""
"sujeto_d90f36d4","1","2","21","53","1898.12182498","direct","4","1","3","¿Cuántos mundiales de fútbol 
femenino ha realizado FIFA? ","9","7","","1","1","1","competitive","right","3.31891012192","1901.44079995","1.68108987808","1903.3111968","5.15868091583","1908.46991992","0.841319084167","1909.34856486","1910.5922339","1910.66432285","1913.66730499","1","1913.68262482","1919.7850709",""
"sujeto_d90f36d4","1","2","22","54","1919.91762686","inverse","3","1","2","¿Cuál es la temperatura 
media anual en Montevideo? ","17.5","16.3","","0","0","1","competitive","right","4.28660297394","1924.20429778","0.713397026062","1925.07437301","5.17101097107","1930.2454288","0.828989028931","1931.1256938","1933.06429482","1933.1425879","1936.14556789","0","1936.16100287","1942.73052001",""
"sujeto_d90f36d4","1","2","23","55","1942.87862396","direct","2","1","2","¿En qué año se estrenó el
 videojuego The Sims? ","2000","2002","","0","0","0","competitive","left","3.92306518555","1946.8017509","1.07693481445","1948.03609991","4.57370781898","1952.60986996","1.42629218102","1954.08804893","1955.9500668","1956.03864789","1959.0416429","0","1959.05595779","1966.44961381",""
"sujeto_d90f36d4","1","2","24","56","1966.59125781","inverse","2","1","1","¿Cuál es la canción con 
mas covers? ","Yesterday","Stand by me","","0","0","0","individual","right","1.60381388664","1968.19513583","3.39618611336","1971.74875498","2.89546108246","1974.64428282","3.10453891754","1977.79983783","1979.19833899","1979.23524284","1982.2381928","0","1982.25236177","1986.42320299",""
"sujeto_d90f36d4","1","2","25","57","1986.57086301","direct","1","1","4","¿Cuánto duró la guerra
 de los 100 años?","116","123","","0","0","0","competitive","left","1.50052714348","1988.07142997","3.49947285652","1991.72549295","2.83809900284","1994.56363201","3.16190099716","1997.77742195","1999.2582798","1999.34523678","2002.3481729","0","2002.362216","2004.682019",""
"sujeto_d90f36d4","1","2","26","58","2004.83070588","inverse","4","1","4","¿Qué color tiene la  bandera de Brasil?","Amarillo","Naranja","left","0","0","1","competitive","left","1.67107796669","2006.50184989","3.32892203331","2010.00115991","3.2237701416","2013.22497392","2.7762298584","2016.05438495","2017.62081885","2017.70593381","2020.70634484","1","2020.72249985","2023.7552979",""
"sujeto_d90f36d4","1","2","27","59","2023.89078283","direct","4","1","3","¿Qué carabela de 
Colon no volvió del viaje?","Santa María","La pinta","","0","0","1","competitive","right","1.39942598343","2025.29032183","3.60057401657","2029.06342983","5.68195605278","2034.74545288","0.31804394722","2035.11501884","2036.60608792","2036.68217587","2039.68519688","0","2039.69941497","2041.79888582",""
"sujeto_d90f36d4","1","2","28","60","2041.93392396","inverse","4","1","4","¿Cuántos huesos tiene
 un adulto humano?","217","206","","0","0","1","competitive","right","1.29457306862","2043.22856688","3.70542693138","2047.08839989","2.31623697281","2049.40467882","3.68376302719","2053.138937","2054.40995884","2054.49170184","2057.49436688","0","2057.50835299","2065.34604788",""
"sujeto_d90f36d4","1","2","29","61","2065.47696495","direct","1","1","1","¿Qué país africano fue 
fundado por esclavos?","Liberia","Chad","","0","0","0","individual","left","2.34611916542","2067.82312989","2.65388083458","2070.63417888","5.11896800995","2075.75320578","0.881031990051","2076.68483996","2078.67649698","2078.71841288","2081.72138691","0","2081.735672","2089.72649288",""
"sujeto_d90f36d4","1","2","30","62","2089.87084079","inverse","4","1","2","¿A cuánto asciende la cima
 del monte Everest?","7.990 mts","8.848 mts","","0","0","1","competitive","right","2.18871903419","2092.05960393","2.81128096581","2095.03260994","4.2537419796","2099.28641486","1.7462580204","2101.08335495","2102.26818299","2102.35051489","2105.3535018","0","2105.36774993","2112.55176997",""
"sujeto_d90f36d4","1","2","31","63","2112.68497491","direct","4","1","1","¿Cuál es el país mas chico?","Sealand","Luxemburgo","","1","1","1","individual","right","2.72420597076","2115.40924788","2.27579402924","2117.84165978","5.11782813072","2122.95952582","0.882171869278","2123.89421678","2125.75773001","2125.81151986","2128.8144958","1","2128.82708478","2131.94937992",""
"sujeto_d90f36d4","1","2","32","64","2132.07708478","inverse","2","1","4","¿Cuántas pirámides hay en Egipto?","10000","11000","","1","1","1","competitive","right","3.23605203629","2135.31320691","1.76394796371","2137.23443985","3.66652989388","2140.90103889","2.33347010612","2143.26929379","2144.30287194","2144.38734698","2147.39033794","1","2147.40437293","2152.51344681",""
"sujeto_d90f36d4","1","3","1","65","2330.52385592","direct","2","1","2","¿Cuál es el quinto país con 
mas extensión?","Canadá","Brasil","","1","1","0","competitive","left","2.4177801609","2332.94169998","2.5822198391","2335.69682097","5.39269804955","2341.08958292","0.607301950455","2341.73487592","2343.06818581","2343.15212989","2346.15513897","1","2346.16909599","2353.89548278","2152.52996492"
"sujeto_d90f36d4","1","3","2","66","2354.0368948","inverse","1","1","2","¿Qué rasgo facial no tiene
 la Mona Lisa?","Cejas","Pómulos","","0","0","1","competitive","left","2.19942688942","2356.2363708","2.80057311058","2359.21127987","5.70488905907","2364.916224","0.295110940933","2365.26353478","2367.01392889","2367.09717989","2370.09840393","0","2370.11364698","2376.38497901",""
"sujeto_d90f36d4","1","3","3","67","2376.53160095","direct","4","1","3","¿Cuál es el país con 
mayor población?","Esados Unidos","China","right","0","0","1","competitive","right","2.26335811615","2378.79502392","2.73664188385","2381.72067881","4.10414409637","2385.8248899","1.89585590363","2387.77082586","2389.41683292","2389.50551486","2392.50851679","1","2392.52279687","2395.8901279",""
"sujeto_d90f36d4","1","3","4","68","2396.02418089","inverse","1","1","1","La palabra dinosaurio significa","Lagarto Terrible","Lagarto Dragón","","1","1","0","competitive","right","2.08451485634","2398.10876489","2.91548514366","2401.19909382","5.52245187759","2406.72160697","0.477548122406","2407.23385978","2408.40419698","2408.48397183","2411.48693395","1","2411.50129795","2414.36312985",""
"sujeto_d90f36d4","1","3","5","69","2414.50329685","direct","2","1","3","¿Qué es el membrillero?","Arbol","Arbusto","","0","0","0","competitive","left","1.9931268692","2416.49647284","3.0068731308","2419.67502999","2.20033812523","2421.87543583","3.79966187477","2425.72548699","2427.67959785","2427.76145792","2430.76443696","0","2430.77761698","2437.23834801",""
"sujeto_d90f36d4","1","3","6","70","2437.37939501","inverse","3","1","3","¿Alrededor de qué planeta orbita 
el satélite Europa?","Jupiter","Saturno","","1","1","1","competitive","left","2.56880903244","2439.94827485","2.43119096756","2442.5290699","5.20811581612","2447.73722887","0.791884183884","2448.57054996","2450.11535478","2450.20450091","2453.20752788","1","2453.22177887","2455.42692494",""
"sujeto_d90f36d4","1","3","7","71","2455.55658484","direct","3","1","1","¿Donde fue el mundial de 
fútbol de 1954?","Suiza","Suecia","","1","1","1","individual","right","2.13848805428","2457.6951499","2.86151194572","2460.71150184","4.91037487984","2465.62193799","1.08962512016","2466.74735689","2467.99997878","2468.047508","2471.05047584","1","2471.06485295","2474.97660995",""
"sujeto_d90f36d4","1","3","8","72","2475.15024281","inverse","1","1","4","¿Cuál de los 7 enanitos
no tenía barba?","Bashful","Mudito","","1","1","0","competitive","","1.38561892509","2476.53592491","3.61438107491","2480.30587983","6","2486.30602694","0","2486.32059598","2487.90070486","2487.97417784","2490.97712398","0","2490.99148893","2495.92055798",""
"sujeto_d90f36d4","1","3","9","73","2496.092278","direct","3","1","2","¿Cual red social es
mas utilizada mundialmente?","Instagram","Facebook","","1","1","0","","","","","","","","","","","","","","","2501.11329484","2504.04778981",""
"sujeto_d90f36d4","1","3","10","74","2504.18067598","inverse","4","1","1","¿Cuándo se inició la copa
 América de fútbol?","1916","1923","","1","1","1","individual","right","2.61099600792","2506.79173589","2.38900399208","2509.3371768","4.58540010452","2513.92262077","1.41459989548","2515.38903785","2517.2864809","2517.339077","2520.34204578","1","2520.35670996","2523.01279092",""
"sujeto_d90f36d4","1","3","11","75","2523.15807295","direct","3","1","4","¿Cuántos presidentes de EEUU
han muerto asesinados?","3","4","","0","0","1","competitive","right","3.35442399979","2526.51256299","1.64557600021","2528.31330085","3.00016093254","2531.31352091","2.99983906746","2534.36394382","2535.84789085","2535.9322238","2538.93523693","0","2538.94918394","2542.59326696",""
"sujeto_d90f36d4","1","3","12","76","2542.73430085","inverse","2","1","4","¿Cuántas veces participó EEUU
 en la copa América?","4","5","","0","0","1","competitive","left","1.42404508591","2544.15839195","3.57595491409","2547.87342501","3.72594308853","2551.59940791","2.27405691147","2553.90696692","2555.351089","2555.44147491","2558.44445992","0","2558.45922279","2564.5763979",""
"sujeto_d90f36d4","1","3","13","77","2564.7275269","direct","4","1","1","¿Cuál de estos países 
no formaba la URSS?","Azeribayán","Afganistán","","0","0","1","competitive","left","2.62682914734","2567.35439992","2.37317085266","2569.88208795","3.90715003014","2573.78927898","2.09284996986","2575.93565083","2577.2487278","2577.33659387","2580.33958077","0","2580.35341787","2588.33556294",""
"sujeto_d90f36d4","1","3","14","78","2588.47217584","inverse","1","1","1","¿En qué año se inauguró
 el teatro Solís?","1867","1856","","0","0","0","competitive","right","2.38502192497","2590.85726285","2.61497807503","2593.64538288","3.47178602219","2597.11721087","2.52821397781","2599.69710684","2600.7533958","2600.83176494","2603.83474588","0","2603.84888101","2610.49436188",""
"sujeto_d90f36d4","1","3","15","79","2610.63322997","direct","1","1","4","¿A qué velocidad vuela 
el avión más rápido?","3529","3874","","0","0","0","competitive","left","1.28789710999","2611.92120099","3.71210289001","2615.790833","3.98424196243","2619.7751379","2.01575803757","2621.84169793","2623.59721899","2623.67589784","2626.67836094","0","2626.69349098","2628.80377078",""
"sujeto_d90f36d4","1","3","16","80","2628.94523597","inverse","3","1","4","¿De qué año es la primer 
película cinematográfica?","1897","1888","","0","0","0","competitive","right","1.91368818283","2630.8590219","3.08631181717","2634.13248301","3.53455710411","2637.66709995","2.46544289589","2640.18480086","2641.31780601","2641.40317178","2644.40612984","0","2644.42037892","2649.83015084",""
"sujeto_d90f36d4","1","3","17","81","2649.9718008","direct","2","1","3","¿Cuántos países 
tiene nuestro planeta?","191","194","","1","1","1","competitive","right","2.54522109032","2652.51707101","2.45477890968","2655.14225292","2.83067417145","2657.97296286","3.16932582855","2661.17874599","2662.53595781","2662.61374879","2665.61434078","1","2665.63051486","2668.86879396",""
"sujeto_d90f36d4","1","3","18","82","2669.01371288","inverse","2","1","2","¿Cuántos habitantes
 tiene Buenos Aires?","2.9000.000","3650000","","0","0","0","individual","left","1.92424201965","2670.93800497","3.07575798035","2674.18915582","4.15875005722","2678.34797192","1.84124994278","2680.2361629","2681.63337088","2681.6708138","2684.6737659","0","2684.68891096","2690.51830387",""
"sujeto_d90f36d4","1","3","19","83","2690.65682697","direct","2","1","1","¿Cuántos kilos forman una tonelada?","1000","1500","left","1","1","1","individual","left","2.63713812828","2693.29400682","2.36286187172","2695.83028984","2.59461307526","2698.42496085","3.40538692474","2701.86524081","2703.75256181","2703.80093884","2706.80384278","1","2706.81767392","2712.77504683",""
"sujeto_d90f36d4","1","3","20","84","2712.92289186","inverse","4","1","4","¿Cuántos estados tiene la 
República del Perú? ","24","23","","0","0","1","competitive","left","2.99902200699","2715.92195988","2.00097799301","2718.09381485","3.06913781166","2721.16299391","2.93086218834","2724.14380288","2725.16598988","2725.24583077","2728.24877191","0","2728.26160479","2733.20690179",""
"sujeto_d90f36d4","1","3","21","85","2733.37871194","direct","3","1","3","¿En qué año nació Cristóbal Colón? ","1451","1447","","0","0","1","competitive","right","2.38525795937","2735.76401281","2.61474204063","2738.55204296","3.85694003105","2742.40904284","2.14305996895","2744.60530591","2746.45121598","2746.53963184","2749.54263997","0","2749.55683279","2753.78236079",""
"sujeto_d90f36d4","1","3","22","86","2753.94195485","inverse","4","1","4","¿Cuánto mide la 
Montaña Aconcagua? ","6234","6962","","0","0","1","competitive","left","2.26400780678","2756.206038","2.73599219322","2759.13146782","2.77549695969","2761.90700889","3.22450304031","2765.182513","2766.47184992","2766.55030179","2769.55328178","0","2769.56733584","2776.75095582",""
"sujeto_d90f36d4","1","3","23","87","2776.88615179","direct","2","1","4","¿Cuánto mide el punto
 más profundo del océano? ","12508","11003","","0","0","1","competitive","left","1.00581502914","2777.89201498","3.99418497086","2782.05516982","2.72885799408","2784.78406882","3.27114200592","2788.09130692","2789.34282398","2789.42534781","2792.42634892","0","2792.44274879","2796.64899778",""
"sujeto_d90f36d4","1","3","24","88","2796.7778759","inverse","1","1","3","¿Cuántos álbumes ha publicado 
el cantante Jaime Roos? ","41","34","","0","0","1","competitive","right","3.18621087074","2799.96412992","1.81378912926","2801.936481","3.43449401855","2805.37101078","2.56550598145","2807.98733187","2809.47719288","2809.556077","2812.55904293","0","2812.57336783","2818.76952982",""
"sujeto_d90f36d4","1","3","25","89","2818.90805387","direct","4","1","3","¿En qué año nació el 
ex-presidente Jorge Battle? ","1921","1927","","1","1","1","competitive","right","1.73802900314","2820.64612985","3.26197099686","2824.08033895","2.67283010483","2826.75323081","3.32716989517","2830.1319859","2831.86235094","2831.95063901","2834.95362687","1","2834.96800184","2838.45402789",""
"sujeto_d90f36d4","1","3","26","90","2838.60339284","inverse","1","1","3","¿Cuántas presidencias 
constitucionales  hubo en Uruguay? ","41","42","","0","0","1","competitive","left","3.91777992249","2842.5212369","1.08222007751","2843.75884986","4.39428186417","2848.15317392","1.60571813583","2849.793226","2850.99696779","2851.07705784","2854.08003688","0","2854.09516883","2859.87881589",""
"sujeto_d90f36d4","1","3","27","91","2860.012954","direct","1","1","2","¿Quién escribió mas sinfonías?","Mozart","Haydn","","1","1","0","competitive","left","1.7663090229","2861.77930593","3.2336909771","2865.16680193","4.21649217606","2869.38333297","1.78350782394","2871.22023678","2872.43771696","2872.521873","2875.52486992","1","2875.53820181","2879.28963685",""
"sujeto_d90f36d4","1","3","28","92","2879.42311788","inverse","4","1","2","¿En qué año nació Michael Jackson?","1958","1953","","1","1","1","individual","right","1.69823789597","2881.12139893","3.30176210403","2884.57807899","2.95031809807","2887.5284369","3.04968190193","2890.6298058","2892.60633397","2892.64873981","2895.65168881","1","2895.66599298","2901.52827096",""
"sujeto_d90f36d4","1","3","29","93","2901.66778088","direct","3","1","2","¿En qué año entró en vigencia 
la ley antitabaco en Uruguay?","2005","2006","","1","1","1","competitive","left","1.96370100975","2903.6315558","3.03629899025","2906.83904791","5.140406847","2911.97951698","0.859593153","2912.87528896","2914.470052","2914.54299378","2917.54597998","1","2917.56001091","2922.89038992",""
"sujeto_d90f36d4","1","3","30","94","2923.02859879","inverse","3","1","1","¿Cuándo se subió el 
primer video a youtube?","2004","2005","","0","0","1","","","","","","","","","","","","","","","2928.03609896","2935.79165483",""
"sujeto_d90f36d4","1","3","31","95","2935.93472695","direct","2","1","1","¿Cuántos habitantes tiene India?","1200 millones","1300 millones","","0","0","0","","","","","","","","","","","","","","","2940.94186878","2946.98639584",""
"sujeto_d90f36d4","1","3","32","96","2947.12442994","inverse","4","1","2","¿A qué edad murió Bob Marley?","36","37","","0","0","1","","","","","","","","","","","","","","","2952.14400196","2955.24635792",""
"sujeto_d90f36d4","1","4","1","97","3150.12925601","direct","2","1","1","¿Cuantos años dirigió la selección 
uruguaya Tabarez?","15 años","13 años","","0","0","0","competitive","left","2.29894709587","3152.4282999","2.70105290413","3155.28540492","4.55382704735","3159.839293","1.44617295265","3161.33803892","3162.52917385","3162.60528684","3165.60633683","0","3165.62266684","3172.69437385","2955.256073"
"sujeto_d90f36d4","1","4","2","98","3172.8246758","inverse","4","1","1","¿Cuantas teclas tiene un teclado 
de computadora generalmente? ","Entre 99 y 108","Entre 109 y 113","","1","1","1","individual","left","3.39773392677","3176.22245479","1.60226607323","3177.98142099","5.08297896385","3183.06443882","0.917021036148","3184.03366399","3185.03641701","3185.08367991","3188.08665085","1","3188.10108399","3190.47252297",""
"sujeto_d90f36d4","1","4","3","99","3190.60282493","direct","1","1","1","¿Cuál Departamento tiene
 mayor superficie?","Río Negro","Soriano","","0","0","0","individual","left","1.81476020813","3192.41763091","3.18523979187","3195.77574492","4.03088617325","3199.80667496","1.96911382675","3201.82602382","3203.53948188","3203.57795286","3206.5809288","0","3206.59509778","3210.92118979",""
"sujeto_d90f36d4","1","4","4","100","3211.06383181","inverse","3","1","2","¿Cuál es el apellido de las 
hermanastras  de  cenicienta?","Tremaine","Truman","","0","0","1","individual","right","4.18886590004","3215.252738","0.81113409996","3216.20285892","4.43391799927","3220.63683701","1.56608200073","3222.25404286","3224.123559","3224.17154479","3227.17453098","0","3227.18954778","3229.88551283",""
"sujeto_d90f36d4","1","4","5","101","3230.02416182","direct","4","1","4","¿Cuál película ganó un
 Oscar a mejor película?","Alto Impacto","Cache","","0","0","1","competitive","left","1.63168907166","3231.6558969","3.36831092834","3235.19368291","4.71026515961","3239.90400791","1.28973484039","3241.22982478","3242.34921384","3242.4312439","3245.43424201","0","3245.448241","3247.71286583",""
"sujeto_d90f36d4","1","4","6","102","3247.84950781","inverse","1","1","3","¿A cuántos centímetros
equivale la medida pié?","25","30","","0","0","1","competitive","right","3.00953507423","3250.85910892","1.99046492577","3253.00503087","3.44909477234","3256.45416689","2.55090522766","3259.03947687","3260.07946301","3260.15736985","3263.16031098","0","3263.17461395","3268.57558298",""
"sujeto_d90f36d4","1","4","7","103","3268.71169996","direct","2","1","2","¿Qué departamento es mas grande?","Cerro Largo","Paysandú","","0","0","0","individual","right","1.61459207535","3270.32633591","3.38540792465","3273.88226581","2.12404298782","3276.00636888","3.87595701218","3279.93229485","3281.53208494","3281.56804085","3284.57102299","0","3284.58501291","3288.69499493",""
"sujeto_d90f36d4","1","4","8","104","3288.82009101","inverse","2","1","3","¿Quién pintó la Mona Lisa?","Picasso","Da Vinci","right","0","0","1","competitive","right","1.91847991943","3290.7386508","3.08152008057","3293.97898889","1.67458295822","3295.65363979","4.32541704178","3300.02489281","3301.63037181","3301.70995378","3304.71293998","1","3304.72809291","3306.89039397",""
"sujeto_d90f36d4","1","4","9","105","3307.04532599","direct","4","1","3","¿Cuántos litros hay en un galon?","3.54","3.78","","1","1","1","competitive","left","1.41138792038","3308.45674491","3.58861207962","3312.20285583","2.74789786339","3314.95079589","3.25210213661","3318.25316","3319.77104092","3319.85466695","3322.85763288","1","3322.87195992","3328.66431594",""
"sujeto_d90f36d4","1","4","10","106","3328.79299092","inverse","4","1","1","¿Cuántas teclas tiene
 un piano moderno?","80","88","","0","0","1","individual","left","1.6008579731","3330.3938899","3.3991420269","3333.96426296","2.72270298004","3336.68702579","3.27729701996","3340.01469898","3341.02236199","3341.06660986","3344.069592","0","3344.08387589","3350.88163686",""
"sujeto_d90f36d4","1","4","11","107","3351.01831794","direct","4","1","3","¿Cuántos países hay en África?","54","62","","0","0","1","individual","right","1.24786710739","3352.266258","3.75213289261","3356.19096184","2.26319289207","3358.45422697","3.73680710793","3362.22518992","3363.91572094","3363.96061683","3366.96359491","0","3366.97814894","3374.78291583",""
"sujeto_d90f36d4","1","4","12","108","3374.91340494","inverse","1","1","3","¿En qué siglo se crearon
 las primeras pistolas?","XV","XIII","","1","1","1","competitive","left","2.20106101036","3377.1145308","2.79893898964","3380.08812284","3.21434402466","3383.30250692","2.78565597534","3386.12276888","3388.07069087","3388.15805578","3391.16103888","1","3391.17520499","3394.40831399",""
"sujeto_d90f36d4","1","4","13","109","3394.54335189","direct","3","1","4","¿En qué año se estrenó 
la serie friends?","1994","1995","","0","0","1","competitive","left","1.45422101021","3395.9976418","3.54577898979","3399.71493983","2.84264087677","3402.557621","3.15735912323","3405.76483679","3407.64017487","3407.71617389","3410.71915579","0","3410.73337984","3415.73837185",""
"sujeto_d90f36d4","1","4","14","110","3415.86846185","inverse","3","1","4","¿En qué año nació Hitler?","1889","1887","","0","0","1","competitive","left","1.51339793205","3417.38190579","3.48660206795","3421.04257894","1.9082531929","3422.9508729","4.0917468071","3427.09285378","3428.20723295","3428.27848792","3431.28147292","0","3431.29590178","3436.32287097",""
"sujeto_d90f36d4","1","4","15","111","3436.46374583","direct","1","1","4","¿Cuánto pesa un elefante Africano?","6000 kilos","5400 kilos","","0","0","0","","","","","","","","","","","","","","","3441.47161198","3448.1786828",""
"sujeto_d90f36d4","1","4","16","112","3448.32105994","inverse","1","1","2","¿Qué porcentaje de 
la población es zurda?","10%","7%","","1","1","0","","","","","","","","","","","","","","","3453.34368801","3459.32232881",""
"sujeto_d90f36d4","1","4","17","113","3459.4432199","direct","1","1","2","¿En qué año se estrenó
Volver al futuro?","1984","1985","","0","0","1","","","","","","","","","","","","","","","3464.46428394","3471.55572701",""
"sujeto_d90f36d4","1","4","18","114","3471.69757891","inverse","3","1","2","¿Cuántos jugadores hay en un 
equipo de baseball?","9","8","","1","1","0","","","","","","","","","","","","","","","3476.70627594","3481.6834929",""
"sujeto_d90f36d4","1","4","19","115","3481.82262397","direct","2","1","1","¿Cuántos Oscar ganó
 la película titanic?","13","11","","1","1","1","","","","","","","","","","","","","","","3486.84483194","3491.4475019",""
"sujeto_d90f36d4","1","4","20","116","3491.59394979","inverse","4","1","4","¿En qué año comenzó
la segunda guerra mundial?","1939","1976","left","0","0","1","","","","","","","","","","","","","","","3496.61321592","3500.60035896",""
"sujeto_d90f36d4","1","4","21","117","3500.7300899","direct","2","1","4","¿Cuántos biomas hay en Uruguay?","5","4","","0","0","1","","","","","","","","","","","","","","","3505.73773599","3511.98636794",""
"sujeto_d90f36d4","1","4","22","118","3512.10276198","inverse","2","1","3","¿Cuándo murió Pablo Escobar?","1993","1997","","1","1","1","","","","","","","","","","","","","","","3517.12329698","3522.82692885",""
"sujeto_d90f36d4","1","4","23","119","3522.95658183","direct","1","1","4","¿Qué serie ha ganado mas premios?","Friends","Murphy Brown","","1","1","0","","","","","","","","","","","","","","","3527.96602583","3533.52764487",""
"sujeto_d90f36d4","1","4","24","120","3533.68270993","inverse","4","1","2","¿Cuántas fichas tiene el dominó?","26","28","","1","1","1","","","","","","","","","","","","","","","3538.70533681","3543.94609189",""
"sujeto_d90f36d4","1","4","25","121","3544.07128978","direct","2","1","4","¿Cuántos son los dientes de leche?","20","25","","0","0","1","","","","","","","","","","","","","","","3549.09197092","3551.23763084",""
"sujeto_d90f36d4","1","4","26","122","3551.35953188","inverse","3","1","3","¿Cuántos gramos son una onza?","22","28","","0","0","1","","","","","","","","","","","","","","","3556.38148093","3562.67171288",""
"sujeto_d90f36d4","1","4","27","123","3562.79694986","direct","3","1","1","¿Cuándo salió el primer album
 de los Beatles?","1963","1962","","1","1","1","","","","","","","","","","","","","","","3567.81540489","3571.58743978",""
"sujeto_d90f36d4","1","4","28","124","3571.71540999","inverse","3","1","3","¿Quién fundó la empresa apple?","Carlos Slim","Steve Jobs","","1","1","1","","","","","","","","","","","","","","","3576.73752379","3583.03537679",""
"sujeto_d90f36d4","1","4","29","125","3583.15509295","direct","4","1","2","¿Cuántos municipios hay
 en Montevideo?","8","7","","1","1","1","","","","","","","","","","","","","","","3588.16452384","3590.24567389",""
"sujeto_d90f36d4","1","4","30","126","3590.3635478","inverse","1","1","1","¿Cuántos kilómetros hay
 de Montevideo a Artigas?","632","599","","0","0","0","","","","","","","","","","","","","","","3595.38512278","3601.43723392",""
"sujeto_d90f36d4","1","4","31","127","3601.55078578","direct","2","1","2","¿En qué año nació 
Leonardo Da Vinci?","1452","1511","","1","1","0","","","","","","","","","","","","","","","3606.57175779","3609.71815395",""
"sujeto_d90f36d4","1","4","32","128","3609.83937693","inverse","3","1","1","¿A qué continente
 pertenece el país Gabón?","Africa","Oceanía","","0","0","1","","","","","","","","","","","","","","","3614.86212182","3620.10002995",""
