"code","nro_aplicante","nro_bloque","nro_trial_bloque","nro_trial_global","show_game_type","choice_order","rival","pay_individual","pay_competitive","question","answer_left_text","answer_right_text","correct_answer","outcome_individual","outcome_competitive","outcome_rival","game_type","answer","social_time","rt_game_type","feedback_delay","show_question","answer_time","rt_answer_global","feedback_delay_2","show_jitter","jitter_time","show_outcome","outcome_time","outcome_participant_real","show_final_jitter","second_jitter_time","inicio_descanso"
"sujeto_0048533","1","1","1","1","892.452636957","direct","3","1","4","¿Cuántos centímetros corresponden
al talle 36 del calzado?","23","24","","0","0","1","competitive","right","2.26871418953","894.7214849","2.73128581047","897.623685837","2.96167206764","900.585402966","3.03832793236","903.658886909","904.687165022","904.759925842","907.762899876","0","907.77680397","909.939267874",""
"sujeto_0048533","1","1","2","2","910.076515913","inverse","3","1","2","¿Cuántas metros mide la Intendencia
Municipal de Montevideo? ","84","78","","0","0","1","competitive","left","2.0279109478","912.104533911","2.9720890522","915.250619888","3.34080696106","918.59147191","2.65919303894","921.299950838","923.177708864","923.252027035","926.253705025","0","926.268692017","928.361454964",""
"sujeto_0048533","1","1","3","3","928.521599054","direct","1","1","3","¿Cuántas La Pasiva
 hay en uruguay?","15","11","","1","1","1","competitive","left","2.20775413513","930.729424953","2.79224586487","933.67673707","2.97663998604","936.653436899","3.02336001396","939.727783918","941.339455843","941.411401033","944.414375067","1","944.429273844","948.707618952",""
"sujeto_0048533","1","1","4","4","948.865169048","inverse","3","1","3","¿De que color es la camiseta de uruguay?","blanca","celeste","right","1","1","1","competitive","right","2.06421303749","950.92948103","2.93578696251","954.035866022","3.21738409996","957.253313065","2.78261590004","960.087695837","961.292476892","961.37261796","964.373637915","1","964.389539003","967.843432903",""
"sujeto_0048533","1","1","5","5","968.009963989","direct","2","1","1","¿Cuánto metros mide
la torre Eiffel?","333","324","","1","1","1","competitive","left","1.28739309311","969.297421932","3.71260690689","973.16108799","3.61827015877","976.779397964","2.38172984123","979.213228941","980.734587908","980.815194845","983.818162918","1","983.832085848","990.868777037",""
"sujeto_0048533","1","1","6","6","991.00048995","inverse","3","1","4","¿Cuantas ciudades existen
 en todo el uruguay?","63","72","","0","0","1","competitive","left","1.90889596939","992.909430027","3.09110403061","996.158972979","3.37836623192","999.537379026","2.62163376808","1002.19243097","1003.24718904","1003.3274219","1006.3303709","0","1006.34451795","1013.96968389",""
"sujeto_0048533","1","1","7","7","1014.10014391","direct","1","1","1","¿Cuantos estados tiene África?","52","54","","1","1","0","competitive","right","1.71719694138","1015.81740403","3.28280305862","1019.25444007","2.93583703041","1022.19033194","3.06416296959","1025.30366397","1027.16767001","1027.23885298","1030.24184799","1","1030.25595403","1036.01370788",""
"sujeto_0048533","1","1","8","8","1036.16090298","inverse","4","1","4","¿En qué año nació
 Stephen Hawking?","1952","1942","","0","0","1","competitive","right","2.1124727726","1038.27347684","2.8875272274","1041.34925389","2.66606998444","1044.01536202","3.33393001556","1047.39882493","1048.84309196","1048.91771197","1051.92066693","0","1051.93471098","1058.03292584",""
"sujeto_0048533","1","1","9","9","1058.17242002","direct","2","1","3","¿Cuánto años tenía Artigas
 cuando se fue a Paraguay?","56","57","","1","1","1","competitive","left","1.62784814835","1059.80032492","3.37215185165","1063.32623506","3.69009709358","1067.01637292","2.30990290642","1069.37745905","1070.925668","1071.01217699","1074.01518202","1","1074.02903795","1080.07631898",""
"sujeto_0048533","1","1","10","10","1080.21527386","inverse","1","1","2","¿Cuantos milímetros 
mide una hoja A2?","420x592","420x594","","0","0","1","competitive","right","1.30509591103","1081.52041507","3.69490408897","1085.35143995","4.16590881348","1089.51738787","1.83409118652","1091.40394688","1092.97237897","1093.05510807","1096.05810499","0","1096.07211494","1103.14573693",""
"sujeto_0048533","1","1","11","11","1103.27367187","direct","3","1","3","¿Cuál es la menor temperatura 
registrada en Uruguay?","-5.4","-7.4","","0","0","1","individual","left","0.88375210762","1104.15749502","4.11624789238","1108.43221688","4.25609993935","1112.68836093","1.74390006065","1114.48405385","1116.16610694","1116.2013309","1119.20426702","0","1119.21840286","1122.95170283",""
"sujeto_0048533","1","1","12","12","1123.08885884","inverse","2","1","2","¿Cuantos años hace que 
se fundó facebook?","18","17","","0","0","0","competitive","right","2.10147690773","1125.19040084","2.89852309227","1128.27567887","3.37670397758","1131.65244293","2.62329602242","1134.31129289","1135.68403387","1135.76256299","1138.76549602","0","1138.77967501","1141.55430293",""
"sujeto_0048533","1","1","13","13","1141.69841099","direct","1","1","4","¿Cuál animal es más
 pesado en promedio?","Rinoceronte","Hipopotamo","","0","0","0","competitive","left","1.72692012787","1143.42537403","3.27307987213","1146.90299106","4.95439195633","1151.85742307","1.04560804367","1152.95441103","1154.03367186","1154.10440207","1157.10738301","0","1157.12135601","1160.96234798",""
"sujeto_0048533","1","1","14","14","1161.089679","inverse","1","1","2","¿Qué personaje de dragon ball 
murió más veces?","Chaoz","Krillin","","1","1","0","competitive","right","1.77069020271","1162.86041498","3.22930979729","1166.24648499","3.02791905403","1169.27446389","2.97208094597","1172.27926493","1173.73706293","1173.81433702","1176.81730103","1","1176.83243489","1184.60536289",""
"sujeto_0048533","1","1","15","15","1184.73324299","direct","3","1","2","La universidad de oxford. 
existe desde:","1096","1249","","1","1","0","competitive","left","1.56613492966","1186.29942584","3.43386507034","1189.8923769","3.0079638958","1192.90040588","2.9920361042","1195.94219995","1196.99101901","1197.06049895","1200.06348705","1","1200.07768202","1206.76568389",""
"sujeto_0048533","1","1","16","16","1206.89517283","inverse","3","1","1","¿Qué escritor latino ganó antes
 el premio nobel?"," García Marquez","Neruda","","0","0","1","competitive","left","1.33619809151","1208.23141694","3.66380190849","1212.03649688","4.87683081627","1216.91338706","1.12316918373","1218.08778405","1219.82776189","1219.90424395","1222.90719295","0","1222.92233205","1226.38170505",""
"sujeto_0048533","1","1","17","17","1226.50746202","direct","4","1","3","¿Cuántos dientes tiene un
 tiburón blanco?","6000","3000","","0","0","1","competitive","left","1.39491415024","1227.90242004","3.60508584976","1231.66275597","3.560546875","1235.22336793","2.439453125","1237.69646406","1238.73544693","1238.81517696","1241.81817102","0","1241.83206701","1246.64174891",""
"sujeto_0048533","1","1","18","18","1246.78328705","inverse","4","1","1","¿Cuánto mide el paralelo Ecuador?","40.000km","70.000km","","0","0","1","competitive","left","1.84807896614","1248.63140798","3.15192103386","1251.97399592","2.78930401802","1254.7633369","3.21069598198","1258.02357984","1259.97967196","1260.05922294","1263.06216884","0","1263.0762229","1266.67878795",""
"sujeto_0048533","1","1","19","19","1266.8114109","direct","4","1","2","¿Cuál fue el primer libro 
de Stephen King?","Carrie","The Stand","","1","1","1","competitive","right","1.80893087387","1268.62038898","3.19106912613","1271.98457694","3.77576899529","1275.76041293","2.22423100471","1278.01823902","1279.76168203","1279.83545494","1282.83843184","1","1282.85355687","1287.32801104",""
"sujeto_0048533","1","1","20","20","1287.45439005","inverse","2","1","3","¿Qué civilización practicaba
 la momificación?","Grecia","Egipto","right","0","0","1","competitive","right","0.706012010574","1288.16044784","4.29398798943","1292.59401584","2.66229009628","1295.25634789","3.33770990372","1298.62794685","1300.56565404","1300.64680386","1303.64976001","1","1303.66370988","1307.89250398",""
"sujeto_0048533","1","1","21","21","1308.03366399","direct","4","1","4","¿Cuántos millones de visitas
 recibe google por minuto?","3.0","4.5","","0","0","1","competitive","right","2.02452421188","1310.05834603","2.97547578812","1313.18838906","3.37196588516","1316.56039286","2.62803411484","1319.23899388","1320.75364685","1320.82410002","1323.82708597","0","1323.84120893","1330.96389484",""
"sujeto_0048533","1","1","22","22","1331.109519","inverse","1","1","3","La máquina de fax. se inventó en:","1843","1960","","0","0","1","competitive","left","0.729941129684","1331.83952498","4.27005887032","1336.28342104","4.59496617317","1340.87843084","1.40503382683","1342.33528495","1343.57733989","1343.65276194","1346.65574789","0","1346.66884589","1349.90515184",""
"sujeto_0048533","1","1","23","23","1350.05571198","direct","2","1","4","En la verdadera historia de los
 300 espartanos. habían:","300 soldados","4300 soldados","","1","1","1","competitive","right","1.22568416595","1351.28144383","3.77431583405","1355.20975494","3.85461783409","1359.06443405","2.14538216591","1361.26100206","1362.52171397","1362.59551907","1365.59849286","1","1365.61266899","1369.41443896",""
"sujeto_0048533","1","1","24","24","1369.54686499","inverse","1","1","4","¿Cuántos milímetros crece
 el pelo por día?","0.4","0.04","","0","0","0","competitive","left","1.46352219582","1371.01045203","3.53647780418","1374.70305896","3.17030501366","1377.87340093","2.82969498634","1380.75347996","1382.51363206","1382.58897591","1385.59194803","0","1385.60589385","1392.34098887",""
"sujeto_0048533","1","1","25","25","1392.47696304","direct","4","1","1","¿Cuánto mide la baldosa gris 
clásica de Montevideo?","22x22 cm.","20x20 cm.","","1","1","1","competitive","right","0.961431980133","1393.43846107","4.03856801987","1397.62856388","5.09878897667","1402.72739291","0.901211023331","1403.68165803","1405.67691302","1405.74921799","1408.7496829","1","1408.76686096","1414.30568695",""
"sujeto_0048533","1","1","26","26","1414.43497396","inverse","2","1","2","¿Cuántas películas de rápidos
 y furiosos hay?","10","11","","1","1","0","competitive","left","1.04540085793","1415.48044491","3.95459914207","1419.59241986","2.67486000061","1422.26731491","3.32513999939","1425.64323592","1427.00121498","1427.07821584","1430.07847285","1","1430.09579992","1432.130512",""
"sujeto_0048533","1","1","27","27","1432.26409888","direct","3","1","1","¿Cuántos masters 1000
 ganó Del Potro?","1","2","","1","1","1","competitive","left","1.14630103111","1433.41047096","3.85369896889","1437.41873503","3.90067696571","1441.31945705","2.09932303429","1443.47004199","1445.22465205","1445.3042109","1448.30719399","1","1448.32130694","1455.71766591",""
"sujeto_0048533","1","1","28","28","1455.85795593","inverse","2","1","4","¿Cuántos meses dura el 
embarazo de una leona?","3 meses","4 meses","","0","0","1","competitive","right","2.09345602989","1457.95145488","2.90654397011","1461.0313549","3.52804803848","1464.55946302","2.47195196152","1467.06510687","1468.17611194","1468.25016284","1471.25312805","0","1471.26705003","1477.98954296",""
"sujeto_0048533","1","1","29","29","1478.11867189","direct","1","1","1","¿En qué año fue creado
 el sandwich?","1762","1653","","1","1","0","competitive","left","1.69764995575","1479.81636","3.30235004425","1483.2755909","2.72082090378","1485.99646997","3.27917909622","1489.32356286","1490.92170286","1490.99236107","1493.99529195","1","1494.00935984","1497.47999096",""
"sujeto_0048533","1","1","30","30","1497.63008595","inverse","4","1","2","El nombre de la moneda de Vietnam es:","Dinar","Dong","","0","0","1","competitive","left","1.33734107018","1498.96749401","3.66265892982","1502.78528404","3.39911603928","1506.18445897","2.60088396072","1508.83642602","1510.26838398","1510.33693194","1513.33988595","0","1513.35501385","1519.52167606",""
"sujeto_0048533","1","1","31","31","1519.65778494","direct","2","1","1","¿cuantos aleteos puede dar 
un colibrí por segundo?","120","50","","0","0","0","competitive","left","1.03962397575","1520.697474","3.96037602425","1524.79678988","3.88564896584","1528.68247986","2.11435103416","1530.84791803","1532.58023286","1532.64868093","1535.651613","0","1535.6668849","1539.87919092",""
"sujeto_0048533","1","1","32","32","1540.02023506","inverse","4","1","3","¿Qué altura promedio tienen
 los hombres uruguayos?","1.73 m","1.72 m","","1","1","1","competitive","left","1.38419795036","1541.40450096","3.61580204964","1545.17435598","3.44510006905","1548.6195209","2.55489993095","1551.22511697","1552.48754501","1552.55979896","1555.56277084","1","1555.57676697","1560.05267286",""
"sujeto_0048533","1","2","1","33","1799.01875305","direct","1","1","1","¿En qué año nació 
el actor Bradd Pitt?","1967","1963","","1","1","1","individual","left","0.836678981781","1799.85550499","4.16332101822","1804.1742959","3.89820289612","1808.07254004","2.10179710388","1810.22456193","1811.32042003","1811.35945892","1814.36241388","1","1814.37644196","1820.30403185","1560.06838799"
"sujeto_0048533","1","2","2","34","1820.44484305","inverse","2","1","1","¿Cual es el segundo 
monte más alto?","Kanchenjunga","K2","","1","1","1","competitive","left","0.789685964584","1821.23459697","4.21031403542","1825.61718988","3.86922883987","1829.4864769","2.13077116013","1831.66932702","1833.12165999","1833.20373702","1836.20669889","1","1836.22062492","1839.65047884",""
"sujeto_0048533","1","2","3","35","1839.79042888","direct","3","1","1","¿Cuándo finalizó la construcción
 del Palacio Legislativo?","1925","1917","","0","0","1","competitive","left","1.17604804039","1840.96652389","3.82395195961","1844.92782784","4.2015850544","1849.12945294","1.7984149456","1850.97972798","1852.62136102","1852.697335","1855.69767785","0","1855.71389389","1861.41140699",""
"sujeto_0048533","1","2","4","36","1861.54978991","inverse","3","1","3","¿Cuántos integrantes tenía
 en su inicio  el cuarteto de nos?","3","4","","1","1","1","competitive","right","0.744677066803","1862.29453397","4.2553229332","1866.72255397","4.10387992859","1870.82647705","1.89612007141","1872.77364993","1873.90673995","1873.97491598","1876.97789407","1","1876.99201703","1882.64180398",""
"sujeto_0048533","1","2","5","37","1882.7768569","direct","2","1","3","¿Qué valor tiene el número pi?","3.14","4.18","left","0","0","1","competitive","left","0.660604953766","1883.43750691","4.33939504623","1887.93361998","2.40184283257","1890.33552289","3.59815716743","1893.98355985","1895.43771005","1895.51928306","1898.52225184","1","1898.53616691","1905.45370984",""
"sujeto_0048533","1","2","6","38","1905.58898687","inverse","2","1","2","¿Cuál es la esperanza de vida
 en Uruguay?","75","77","","1","1","0","competitive","right","0.675463914871","1906.26452994","4.32453608513","1910.74485803","3.1375939846","1913.88249898","2.8624060154","1916.79631591","1918.45013499","1918.53083491","1921.5337069","1","1921.54865098","1928.01166797",""
"sujeto_0048533","1","2","7","39","1928.15033603","direct","1","1","2","¿Cuantos pisos tiene la torre 
de las comunicaciones?","26","32","","1","1","0","competitive","right","0.720108985901","1928.87051201","4.2798910141","1933.32070303","3.93476200104","1937.25550604","2.06523799896","1939.37347007","1941.20169091","1941.27487397","1944.27770805","1","1944.2919569","1946.43817902",""
"sujeto_0048533","1","2","8","40","1946.57878304","inverse","2","1","4","¿En qué país sudamericano 
no hay McDonalds?","Bolivia","Venezuela","","0","0","1","competitive","left","1.22766494751","1947.80651498","3.77233505249","1951.71655297","4.71990990639","1956.43653393","1.28009009361","1957.76747203","1959.07684994","1959.15184903","1962.15480399","0","1962.1689589","1968.52565598",""
"sujeto_0048533","1","2","9","41","1968.69120789","direct","3","1","1","¿En qué año empieza
 la Edad Media?","476","512","","1","1","1","competitive","left","0.779272079468","1969.47055888","4.22072792053","1973.86161089","4.72582602501","1978.58749795","1.27417397499","1979.89587784","1981.29964685","1981.38022304","1984.38321996","1","1984.39724302","1987.38579392",""
"sujeto_0048533","1","2","10","42","1987.53014994","inverse","3","1","4","¿Hace cuántos años surgió
 el ser humano?","200mil","300mil","","0","0","0","competitive","left","2.00431895256","1989.53454494","2.99568104744","1992.6883719","3.27505397797","1995.96348786","2.72494602203","1998.73840904","2000.62446785","2000.706671","2003.70963788","0","2003.72453284","2007.03500986",""
"sujeto_0048533","1","2","11","43","2007.17631292","direct","3","1","4","¿Cuántas cuadras tiene
 actualmente 18 de julio? ","36","33","","0","0","1","competitive","right","0.995185852051","2008.17157388","4.00481414795","2012.330621","3.88988304138","2016.22055292","2.11011695862","2018.38245106","2020.08468604","2020.16644096","2023.16941285","0","2023.18371296","2027.91000295",""
"sujeto_0048533","1","2","12","44","2028.05192089","inverse","1","1","4","¿Qué juego de equipo se 
considera mas rápido?","Lacrosse","Badminton","","0","0","0","competitive","left","2.18653297424","2030.23852205","2.81346702576","2033.23947096","5.9300069809","2039.16954899","0.069993019104","2039.2772789","2040.52034402","2040.59447503","2043.59742904","0","2043.61150098","2051.60665989",""
"sujeto_0048533","1","2","13","45","2051.75023198","direct","1","1","3","¿Qué promedio de edad 
vive una jirafa? ","25","20","","0","0","1","competitive","right","1.00123715401","2052.75151896","3.99876284599","2056.90393996","4.40153884888","2061.305547","1.59846115112","2062.95599198","2064.71747684","2064.78983903","2067.79282904","0","2067.80718493","2073.76290488",""
"sujeto_0048533","1","2","14","46","2073.89819193","inverse","1","1","2","¿Cuántos grandes lagos hay?","7","5","","0","0","1","competitive","left","0.897249937057","2074.79551601","4.10275006294","2079.04574585","4.60275602341","2083.64854884","1.39724397659","2085.09815598","2086.39029503","2086.46562195","2089.46860194","0","2089.48357487","2097.30495095",""
"sujeto_0048533","1","2","15","47","2097.47216988","direct","3","1","2","¿Cuántos discos de estudio
 grabó Johhny Cash? ","54","43","","1","1","0","competitive","left","1.08334302902","2098.55555987","3.91665697098","2102.62526393","4.27921485901","2106.90455604","1.72078514099","2108.67701983","2109.95565891","2110.02874899","2113.03173304","1","2113.04604292","2119.69695997",""
"sujeto_0048533","1","2","16","48","2119.83077788","inverse","4","1","1","¿Cuántos barrios tiene
 Montevideo? ","71","62","","0","0","1","competitive","right","0.719673871994","2120.55049896","4.28032612801","2124.98872685","3.90770602226","2128.89647698","2.09229397774","2131.04058099","2132.04764485","2132.12453985","2135.12753892","0","2135.14193606","2140.60395598",""
"sujeto_0048533","1","2","17","49","2140.74451995","direct","3","1","3","¿Qué edad tiene Homero Simpson?","36","42","","0","0","1","competitive","left","1.18295192719","2141.92754102","3.81704807281","2145.88288093","3.92253804207","2149.80546403","2.07746195793","2151.93340206","2153.30942988","2153.38442802","2156.38737893","0","2156.40237689","2160.79113603",""
"sujeto_0048533","1","2","18","50","2160.95382786","inverse","4","1","2","¿Cuántos países con monarquía 
hay en europa actualmente? ","6","10","","1","1","1","competitive","right","1.11562108994","2162.069525","3.88437891006","2166.11058903","5.28090500832","2171.39156294","0.719094991684","2172.16217184","2173.60042906","2173.67837906","2176.68133593","1","2176.69629407","2182.85311103",""
"sujeto_0048533","1","2","19","51","2182.99749494","direct","2","1","3","¿Cuántos capítulos de
 Friends existen? ","236","228","","1","1","1","competitive","left","0.751970052719","2183.74951291","4.24802994728","2188.15120101","4.15225315094","2192.30349588","1.84774684906","2194.20515299","2195.50967383","2195.58907104","2198.59205604","1","2198.60631299","2200.98169899",""
"sujeto_0048533","1","2","20","52","2201.12579393","inverse","1","1","3","¿Cuántas óperas compuso Mozart? ","27","22","","1","1","1","competitive","right","1.22868990898","2202.354532","3.77131009102","2206.28064394","4.81981182098","2211.10049987","1.18018817902","2212.33222294","2213.62432384","2213.69921398","2216.70170093","1","2216.71696496","2224.02842593",""
"sujeto_0048533","1","2","21","53","2224.16868305","direct","4","1","3","¿Cuántos mundiales de fútbol 
femenino ha realizado FIFA? ","9","7","","1","1","1","competitive","right","0.9977850914","2225.16651607","4.0022149086","2229.32641387","3.74706292152","2233.07353997","2.25293707848","2235.3593359","2236.60302591","2236.67765689","2239.68063784","1","2239.6946249","2245.7971189",""
"sujeto_0048533","1","2","22","54","2245.92992806","inverse","3","1","2","¿Cuál es la temperatura 
media anual en Montevideo? ","17.5","16.3","","0","0","1","competitive","right","0.559570074081","2246.48958492","4.44042992592","2251.10296392","3.51354193687","2254.61657","2.48645806313","2257.13788486","2259.07645893","2259.15590596","2262.15888286","0","2262.17393398","2268.74341583",""
"sujeto_0048533","1","2","23","55","2268.87486506","direct","2","1","2","¿En qué año se estrenó el
 videojuego The Sims? ","2000","2002","","0","0","0","competitive","right","1.89273405075","2270.76768184","3.10726594925","2274.0330739","4.21142196655","2278.24453807","1.78857803345","2280.06703997","2281.92906499","2282.00172687","2285.00470495","0","2285.0186429","2292.41227698",""
"sujeto_0048533","1","2","24","56","2292.55380297","inverse","2","1","1","¿Cuál es la canción con 
mas covers? ","Yesterday","Stand by me","","0","0","0","competitive","left","0.597716808319","2293.15159488","4.40228319168","2297.71073389","2.99676394463","2300.70756006","3.00323605537","2303.76224995","2305.16078401","2305.22963786","2308.23262","0","2308.24684906","2312.41766596",""
"sujeto_0048533","1","2","25","57","2312.56821394","direct","1","1","4","¿Cuánto duró la guerra
 de los 100 años?","116","123","","0","0","0","competitive","left","0.900271892548","2313.46853089","4.09972810745","2317.73810887","3.20240306854","2320.94055295","2.79759693146","2323.78904295","2325.26971006","2325.33986402","2328.34283996","0","2328.35710096","2330.67688084",""
"sujeto_0048533","1","2","26","58","2330.82650495","inverse","4","1","4","¿Qué color tiene la  bandera de Brasil?","Amarillo","Naranja","left","0","0","1","competitive","left","0.893054962158","2331.71964192","4.10694503784","2335.99731493","3.56716895103","2339.56452799","2.43283104897","2342.04879498","2343.61525989","2343.699821","2346.70282507","1","2346.71703506","2349.749717",""
"sujeto_0048533","1","2","27","59","2349.88544989","direct","4","1","3","¿Qué carabela de 
Colon no volvió del viaje?","Santa María","La pinta","","0","0","1","competitive","left","1.20704507828","2351.09257102","3.79295492172","2355.04115391","4.04533791542","2359.08656192","1.95466208458","2361.09174395","2362.58276892","2362.65935206","2365.662323","0","2365.67642093","2367.77585602",""
"sujeto_0048533","1","2","28","60","2367.912009","inverse","4","1","4","¿Cuántos huesos tiene
 un adulto humano?","217","206","","0","0","1","competitive","right","1.08446884155","2368.99652791","3.91553115845","2373.06633592","3.40214085579","2376.46854496","2.59785914421","2379.11704302","2380.388098","2380.46876407","2383.47175694","0","2383.48589396","2391.32358694",""
"sujeto_0048533","1","2","29","61","2391.45427895","direct","1","1","1","¿Qué país africano fue 
fundado por esclavos?","Liberia","Chad","","0","0","0","competitive","right","0.853267908096","2392.3076179","4.1467320919","2396.62857699","3.15108799934","2399.77970695","2.84891200066","2402.679636","2404.67128396","2404.74737406","2407.75032496","0","2407.76581001","2415.75666595",""
"sujeto_0048533","1","2","30","62","2415.90059495","inverse","4","1","2","¿A cuánto asciende la cima
 del monte Everest?","7.990 mts","8.848 mts","","0","0","1","competitive","right","0.877925872803","2416.77862906","4.1220741272","2421.0572269","3.76427912712","2424.82158399","2.23572087288","2427.10847998","2428.29331803","2428.376472","2431.37943387","0","2431.3939929","2438.57804298",""
"sujeto_0048533","1","2","31","63","2438.71183395","direct","4","1","1","¿Cuál es el país mas chico?","Sealand","Luxemburgo","","1","1","1","competitive","right","0.958596944809","2439.67054296","4.04140305519","2443.86697602","3.07856106758","2446.94562888","2.92143893242","2449.901963","2451.76543784","2451.83760405","2454.84057999","1","2454.85494685","2457.97720289",""
"sujeto_0048533","1","2","32","64","2458.12503099","inverse","2","1","4","¿Cuántas pirámides hay en Egipto?","10000","11000","","1","1","1","competitive","right","0.948497056961","2459.07360005","4.05150294304","2463.27970195","3.66783094406","2466.94759488","2.33216905594","2469.33063006","2470.36423397","2470.43189788","2473.43487597","1","2473.44899297","2478.55770898",""
"sujeto_0048533","1","3","1","65","2621.07454205","direct","2","1","2","¿Cuál es el quinto país con 
mas extensión?","Canadá","Brasil","","1","1","0","competitive","right","0.929920196533","2622.00450802","4.07007980347","2626.23045492","3.56211590767","2629.79263496","2.43788409233","2632.26430202","2633.59761596","2633.68245697","2636.68541384","1","2636.69940305","2644.42576289","2478.5725739"
"sujeto_0048533","1","3","2","66","2644.56892705","inverse","1","1","2","¿Qué rasgo facial no tiene
 la Mona Lisa?","Cejas","Pómulos","","0","0","1","competitive","left","1.58860206604","2646.15763497","3.41139793396","2649.71022201","5.10424804688","2654.81450987","0.895751953125","2655.76136088","2657.51078987","2657.59523892","2660.59822488","0","2660.61207294","2666.88338399",""
"sujeto_0048533","1","3","3","67","2667.03001404","direct","4","1","3","¿Cuál es el país con 
mayor población?","Esados Unidos","China","right","0","0","1","competitive","right","1.16151809692","2668.19158101","3.83848190308","2672.18464804","3.19985198975","2675.38456392","2.80014801025","2678.23670292","2679.88270903","2679.95423388","2682.9571979","1","2682.97237206","2686.33970094",""
"sujeto_0048533","1","3","4","68","2686.47351503","inverse","1","1","1","La palabra dinosaurio significa","Lagarto Terrible","Lagarto Dragón","","1","1","0","competitive","right","0.91500711441","2687.38859701","4.08499288559","2691.63006997","5.63336896896","2697.26349807","0.366631031036","2697.68220091","2698.85254002","2698.93284798","2701.93583202","1","2701.95006084","2704.81188297",""
"sujeto_0048533","1","3","5","69","2704.95094585","direct","2","1","3","¿Qué es el membrillero?","Arbol","Arbusto","","0","0","0","competitive","left","1.23156499863","2706.182585","3.76843500137","2710.10667086","3.62483406067","2713.73154688","2.37516593933","2716.14123988","2718.09529805","2718.17543888","2721.17838788","0","2721.19333696","2727.65734386",""
"sujeto_0048533","1","3","6","70","2727.79484391","inverse","3","1","3","¿Alrededor de qué planeta orbita 
el satélite Europa?","Jupiter","Saturno","","1","1","1","competitive","right","0.894670963287","2728.68956089","4.10532903671","2732.951478","4.98202800751","2737.93358803","1.01797199249","2739.00371885","2740.54850984","2740.62031698","2743.62330699","1","2743.63832307","2745.84347296",""
"sujeto_0048533","1","3","7","71","2745.99108505","direct","3","1","1","¿Donde fue el mundial de 
fútbol de 1954?","Suiza","Suecia","","1","1","1","competitive","right","0.862447023392","2746.853616","4.13755297661","2751.1442399","4.94124794006","2756.08552885","1.05875205994","2757.18006086","2758.4326849","2758.51303887","2761.51366687","1","2761.53079486","2765.44258499",""
"sujeto_0048533","1","3","8","72","2765.58281207","inverse","1","1","4","¿Cuál de los 7 enanitos
no tenía barba?","Bashful","Mudito","","1","1","0","competitive","left","0.849730014801","2766.43259406","4.1502699852","2770.73784995","3.83864498138","2774.57653594","2.16135501862","2776.78894401","2778.36908484","2778.43964696","2781.4426229","1","2781.45782495","2786.38691902",""
"sujeto_0048533","1","3","9","73","2786.52627206","direct","3","1","2","¿Cual red social es
mas utilizada mundialmente?","Instagram","Facebook","","1","1","0","competitive","right","0.946266889572","2787.47258592","4.05373311043","2791.68231201","4.46225118637","2796.14462495","1.53774881363","2797.73361301","2799.65099192","2799.73450184","2802.7374599","1","2802.75143194","2805.68593407",""
"sujeto_0048533","1","3","10","74","2805.82053804","inverse","4","1","1","¿Cuándo se inició la copa
 América de fútbol?","1916","1923","","1","1","1","competitive","right","0.787011146545","2806.60761905","4.21298885345","2810.98844004","3.67107510567","2814.65955997","2.32892489433","2817.04154897","2818.93768597","2819.02617502","2822.02915692","1","2822.04340887","2824.6995399",""
"sujeto_0048533","1","3","11","75","2824.84524298","direct","3","1","4","¿Cuántos presidentes de EEUU
han muerto asesinados?","3","4","","0","0","1","competitive","left","1.33930587769","2826.184623","3.66069412231","2829.98490286","3.11365604401","2833.09859896","2.88634395599","2836.01911998","2837.50305986","2837.58720684","2840.58969998","0","2840.60483789","2844.24894094",""
"sujeto_0048533","1","3","12","76","2844.39132786","inverse","2","1","4","¿Cuántas veces participó EEUU
 en la copa América?","4","5","","0","0","1","competitive","left","1.10221195221","2845.49360299","3.89778804779","2849.54504895","4.20752286911","2853.75261688","1.79247713089","2855.57930994","2857.02336287","2857.09676194","2860.09975886","0","2860.11376405","2866.23094392",""
"sujeto_0048533","1","3","13","77","2866.36645603","direct","4","1","1","¿Cuál de estos países 
no formaba la URSS?","Azeribayán","Afganistán","","0","0","1","competitive","right","0.648097991943","2867.01462388","4.35190200806","2871.52010798","4.04743313789","2875.5675869","1.95256686211","2877.57273293","2878.885813","2878.95719004","2881.96018887","0","2881.9741869","2889.95633602",""
"sujeto_0048533","1","3","14","78","2890.09277201","inverse","1","1","1","¿En qué año se inauguró
 el teatro Solís?","1867","1856","","0","0","0","competitive","right","2.52078819275","2892.61367202","2.47921180725","2895.25064898","4.04896497726","2899.29967904","1.95103502274","2901.30154896","2902.3578949","2902.43636394","2905.43933606","0","2905.4523859","2912.10019803",""
"sujeto_0048533","1","3","15","79","2912.2381289","direct","1","1","4","¿A qué velocidad vuela 
el avión más rápido?","3529","3874","","0","0","0","competitive","left","1.58340287209","2913.82159805","3.41659712791","2917.39723396","3.50428581238","2920.90156007","2.49571418762","2923.447649","2925.20318103","2925.28234601","2928.28533196","0","2928.29956794","2930.40984607",""
"sujeto_0048533","1","3","16","80","2930.55170894","inverse","3","1","4","¿De qué año es la primer 
película cinematográfica?","1897","1888","","0","0","0","competitive","left","1.60184502602","2932.15363884","3.39815497398","2935.70640492","4.47816205025","2940.18463206","1.52183794975","2941.74142194","2942.87438893","2942.95809197","2945.96106696","0","2945.97607398","2951.38584685",""
"sujeto_0048533","1","3","17","81","2951.52835703","direct","2","1","3","¿Cuántos países 
tiene nuestro planeta?","191","194","","1","1","1","competitive","right","0.883177995682","2952.41158104","4.11682200432","2956.69701004","3.73850512505","2960.43557787","2.26149487495","2962.74939585","2964.10659099","2964.18415093","2967.18713498","1","2967.20119596","2970.43947601",""
"sujeto_0048533","1","3","18","82","2970.58841586","inverse","2","1","2","¿Cuántos habitantes
 tiene Buenos Aires?","2.9000.000","3650000","","0","0","0","competitive","left","0.865139961243","2971.45363498","4.13486003876","2975.75963092","3.26389503479","2979.02356601","2.73610496521","2981.81106305","2983.20834303","2983.27881289","2986.28168702","0","2986.29587007","2992.1216619",""
"sujeto_0048533","1","3","19","83","2992.26438189","direct","2","1","1","¿Cuántos kilos forman una tonelada?","1000","1500","left","1","1","1","competitive","left","1.00022506714","2993.264678","3.99977493286","2997.40542102","2.4951570034","2999.90061784","3.5048429966","3003.43849802","3005.32584906","3005.406744","3008.40974784","1","3008.42384505","3014.38126302",""
"sujeto_0048533","1","3","20","84","3014.56247401","inverse","4","1","4","¿Cuántos estados tiene la 
República del Perú? ","24","23","","0","0","1","competitive","left","0.779074907303","3015.34162784","4.2209250927","3019.73323989","3.71230792999","3023.445611","2.28769207001","3025.76747584","3026.78964186","3026.86824584","3029.86965895","0","3029.88559484","3034.83088398",""
"sujeto_0048533","1","3","21","85","3034.98720884","direct","3","1","3","¿En qué año nació Cristóbal Colón? ","1451","1447","","0","0","1","competitive","right","1.07637786865","3036.06362987","3.92362213135","3040.14135289","4.74616885185","3044.88756895","1.25383114815","3046.17726088","3048.02170491","3048.09454989","3051.09753203","0","3051.11177397","3055.33976483",""
"sujeto_0048533","1","3","22","86","3055.48035288","inverse","4","1","4","¿Cuánto mide la 
Montaña Aconcagua? ","6234","6962","","0","0","1","competitive","left","0.766190052032","3056.2465899","4.23380994797","3060.63709188","3.67443394661","3064.31156802","2.32556605339","3066.68872905","3067.97805285","3068.05575395","3071.05874896","0","3071.07300186","3078.25664902",""
"sujeto_0048533","1","3","23","87","3078.39446998","direct","2","1","4","¿Cuánto mide el punto
 más profundo del océano? ","12508","11003","","0","0","1","competitive","left","1.08406496048","3079.47858","3.91593503952","3083.54892707","3.68562293053","3087.23462391","2.31437706947","3089.59965706","3090.85115385","3090.93423486","3093.93721485","0","3093.951401","3098.15768003",""
"sujeto_0048533","1","3","24","88","3098.28681207","inverse","1","1","3","¿Cuántos álbumes ha publicado 
el cantante Jaime Roos? ","41","34","","0","0","1","competitive","right","0.712744951248","3098.99959993","4.28725504875","3103.45927906","3.71327400208","3107.17259407","2.28672599792","3109.49337888","3110.98325491","3111.06173205","3114.06465387","0","3114.07853389","3120.274647",""
"sujeto_0048533","1","3","25","89","3120.42981601","direct","4","1","3","¿En qué año nació el 
ex-presidente Jorge Battle? ","1921","1927","","1","1","1","competitive","right","0.971737146378","3121.40164185","4.02826285362","3125.60127902","5.37830114365","3130.97961998","0.621698856354","3131.63793588","3133.36859393","3133.43811989","3136.44109893","1","3136.455235","3139.94130802",""
"sujeto_0048533","1","3","26","90","3140.07380486","inverse","1","1","3","¿Cuántas presidencias 
constitucionales  hubo en Uruguay? ","41","42","","0","0","1","competitive","left","0.995796918869","3141.06965303","4.00420308113","3145.23067093","4.00986099243","3149.24057293","1.99013900757","3151.26543999","3152.46923804","3152.54935789","3155.55235386","0","3155.56661201","3161.35027289",""
"sujeto_0048533","1","3","27","91","3161.48502302","direct","1","1","2","¿Quién escribió mas sinfonías?","Mozart","Haydn","","1","1","0","competitive","right","1.28356313705","3162.76865292","3.71643686295","3166.64197087","2.64056992531","3169.28260303","3.35943007469","3172.69182992","3173.90933704","3173.99381995","3176.99676585","1","3177.01131105","3180.76268291",""
"sujeto_0048533","1","3","28","92","3180.91149187","inverse","4","1","2","¿En qué año nació Michael Jackson?","1958","1953","","1","1","1","competitive","right","0.894147872925","3181.80574703","4.10585212708","3186.08484602","3.72570896149","3189.81059504","2.27429103851","3192.11955094","3194.09764504","3194.17028689","3197.1732769","1","3197.18824792","3203.04967189",""
"sujeto_0048533","1","3","29","93","3203.18979502","direct","3","1","2","¿En qué año entró en vigencia 
la ley antitabaco en Uruguay?","2005","2006","","1","1","1","competitive","right","1.14076709747","3204.33060789","3.85923290253","3208.34411883","4.1434378624","3212.48761702","1.8565621376","3214.37961984","3215.97366095","3216.04769087","3219.04966497","1","3219.06475806","3224.39871287",""
"sujeto_0048533","1","3","30","94","3224.58401799","inverse","3","1","1","¿Cuándo se subió el 
primer video a youtube?","2004","2005","","0","0","1","competitive","right","0.759579181671","3225.34366393","4.24042081833","3229.74035001","3.42125511169","3233.1616559","2.57874488831","3235.79193902","3237.09755588","3237.17611098","3240.1776619","0","3240.19281602","3247.94838285",""
"sujeto_0048533","1","3","31","95","3248.07803202","direct","2","1","1","¿Cuántos habitantes tiene India?","1200 millones","1300 millones","","0","0","0","competitive","left","0.837560176849","3248.91563702","4.16243982315","3253.23574901","3.00880408287","3256.24461699","2.99119591713","3259.28707504","3261.25665689","3261.33815598","3264.34113383","0","3264.35541701","3270.40292692",""
"sujeto_0048533","1","3","32","96","3270.55814791","inverse","4","1","2","¿A qué edad murió Bob Marley?","36","37","","0","0","1","competitive","left","0.707409858704","3271.26564598","4.2925901413","3275.71442199","3.7481470108","3279.46261597","2.2518529892","3281.74913287","3283.64699388","3283.73301792","3286.73599696","0","3286.75089192","3289.85335302",""
"sujeto_0048533","1","4","1","97","3406.43033504","direct","2","1","1","¿Cuantos años dirigió la selección 
uruguaya Tabarez?","15 años","13 años","","0","0","0","competitive","left","1.40916204453","3407.83954501","3.59083795547","3411.58234906","3.34616494179","3414.92855406","2.65383505821","3417.63464093","3418.82573795","3418.90252185","3421.90544391","0","3421.92033601","3428.992378","3289.86800003"
"sujeto_0048533","1","4","2","98","3429.13837886","inverse","4","1","1","¿Cuantas teclas tiene un teclado 
de computadora generalmente? ","Entre 99 y 108","Entre 109 y 113","","1","1","1","competitive","left","0.865240097046","3430.00366497","4.13475990295","3434.31324697","4.06434798241","3438.37764597","1.93565201759","3440.363379","3441.36614704","3441.44865894","3444.45165086","1","3444.46467996","3446.83611798",""
"sujeto_0048533","1","4","3","99","3446.98390102","direct","1","1","1","¿Cuál Departamento tiene
 mayor superficie?","Río Negro","Soriano","","0","0","0","competitive","right","1.06365799904","3448.04760885","3.93634200096","3452.13899899","4.35953021049","3456.49856806","1.64046978951","3458.17353797","3459.88703394","3459.97389102","3462.97687602","0","3462.99116707","3467.31725883",""
"sujeto_0048533","1","4","4","100","3467.45994902","inverse","3","1","2","¿Cuál es el apellido de las 
hermanastras  de  cenicienta?","Tremaine","Truman","","0","0","1","competitive","left","0.629678010941","3468.08974791","4.37032198906","3472.64896798","3.64258313179","3476.29159498","2.35741686821","3478.68378592","3480.55332088","3480.63429689","3483.63730097","0","3483.65223193","3486.34819293",""
"sujeto_0048533","1","4","5","101","3486.48747897","direct","4","1","4","¿Cuál película ganó un
 Oscar a mejor película?","Alto Impacto","Cache","","0","0","1","competitive","right","0.986527919769","3487.47407484","4.01347208023","3491.65646601","4.7000169754","3496.35654593","1.2999830246","3497.70841098","3498.82780385","3498.908921","3501.91189504","0","3501.92707586","3504.19167089",""
"sujeto_0048533","1","4","6","102","3504.34477901","inverse","1","1","3","¿A cuántos centímetros
equivale la medida pié?","25","30","","0","0","1","competitive","left","0.994790077209","3505.33963704","4.00520992279","3509.517694","3.61190009117","3513.12963796","2.38809990883","3515.55264688","3516.59260392","3516.67034006","3519.67333102","0","3519.68746591","3525.085706",""
"sujeto_0048533","1","4","7","103","3525.22266102","direct","2","1","2","¿Qué departamento es mas grande?","Cerro Largo","Paysandú","","0","0","0","competitive","right","0.649950027466","3525.87268806","4.35004997253","3530.39575887","4.11575508118","3534.511554","1.88424491882","3536.44706392","3538.04568386","3538.13094497","3541.13393307","0","3541.14796805","3545.25771093",""
"sujeto_0048533","1","4","8","104","3545.40011907","inverse","2","1","3","¿Quién pintó la Mona Lisa?","Picasso","Da Vinci","right","0","0","1","competitive","right","0.804661989212","3546.20489287","4.19533801079","3550.58682895","1.7596988678","3552.34656692","4.2403011322","3556.63766289","3558.24352598","3558.32311988","3561.32609892","1","3561.34027195","3563.50260186",""
"sujeto_0048533","1","4","9","105","3563.64285398","direct","4","1","3","¿Cuántos litros hay en un galon?","3.54","3.78","","1","1","1","competitive","left","0.924741983414","3564.56764007","4.07525801659","3568.79848886","4.86608409882","3573.66461802","1.13391590118","3574.84997606","3576.36786699","3576.45012593","3579.45310187","1","3579.46828294","3585.260638",""
"sujeto_0048533","1","4","10","106","3585.40314794","inverse","4","1","1","¿Cuántas teclas tiene
 un piano moderno?","80","88","","0","0","1","competitive","left","1.08342885971","3586.48668194","3.91657114029","3590.57678199","3.52069401741","3594.09753895","2.47930598259","3596.62680984","3597.63525891","3597.71149993","3600.71444106","0","3600.72946286","3607.52564096",""
"sujeto_0048533","1","4","11","107","3607.680583","direct","4","1","3","¿Cuántos países hay en África?","54","62","","0","0","1","competitive","right","0.895045042038","3608.57567286","4.10495495796","3612.837924","4.390583992","3617.22855091","1.609416008","3618.87272096","3620.56319904","3620.63981199","3623.64279485","0","3623.65779185","3631.45610189",""
"sujeto_0048533","1","4","12","108","3631.61290598","inverse","1","1","3","¿En qué siglo se crearon
 las primeras pistolas?","XV","XIII","","1","1","1","competitive","right","0.728729009628","3632.34168196","4.27127099037","3636.76378107","4.86873602867","3641.63257599","1.13126397133","3642.81741095","3644.76529884","3644.83430696","3647.8372829","1","3647.85225797","3651.08536887",""
"sujeto_0048533","1","4","13","109","3651.22002387","direct","3","1","4","¿En qué año se estrenó 
la serie friends?","1994","1995","","0","0","1","competitive","right","0.771591901779","3651.99168992","4.22840809822","3656.37688398","3.62568116188","3660.00260806","2.37431883812","3662.411479","3664.28681993","3664.36269498","3667.36569095","0","3667.38007784","3672.38614988",""
"sujeto_0048533","1","4","14","110","3672.53150201","inverse","3","1","4","¿En qué año nació Hitler?","1889","1887","","0","0","1","competitive","right","0.734148979187","3673.26570106","4.26585102081","3677.68832302","2.85530304909","3680.54369402","3.14469695091","3683.73870087","3684.85307789","3684.92337704","3687.92635894","0","3687.94049501","3692.96746206",""
"sujeto_0048533","1","4","15","111","3693.10910106","direct","1","1","4","¿Cuánto pesa un elefante Africano?","6000 kilos","5400 kilos","","0","0","0","competitive","left","0.8724629879","3693.98165393","4.1275370121","3698.26529694","4.00528311729","3702.27064586","1.99471688271","3704.31620693","3705.67210603","3705.75033498","3708.753335","0","3708.76831198","3715.4753859",""
"sujeto_0048533","1","4","16","112","3715.6198349","inverse","1","1","2","¿Qué porcentaje de 
la población es zurda?","10%","7%","","1","1","0","competitive","left","1.62371492386","3717.24359202","3.37628507614","3720.76037097","2.32024288177","3723.08067393","3.67975711823","3726.80876994","3728.05187893","3728.12770391","3731.13068891","1","3731.14475489","3737.12446594",""
"sujeto_0048533","1","4","17","113","3737.29596186","direct","1","1","2","¿En qué año se estrenó
Volver al futuro?","1984","1985","","0","0","1","competitive","left","0.893654108047","3738.18966293","4.10634589195","3742.45400786","3.929489851","3746.38355398","2.070510149","3748.48831296","3750.04970694","3750.12342286","3753.12639785","0","3753.14056206","3760.23201799",""
"sujeto_0048533","1","4","18","114","3760.37589288","inverse","3","1","2","¿Cuántos jugadores hay en un 
equipo de baseball?","9","8","","1","1","0","competitive","left","0.720767021179","3761.09672999","4.27923297882","3765.53327489","3.74527001381","3769.27860904","2.25472998619","3771.56765485","3773.18194199","3773.25221801","3776.25520205","1","3776.26954484","3781.246804",""
"sujeto_0048533","1","4","19","115","3781.38733888","direct","2","1","1","¿Cuántos Oscar ganó
 la película titanic?","13","11","","1","1","1","competitive","right","0.72528886795","3782.11267185","4.27471113205","3786.54389501","3.50769901276","3790.05166197","2.49230098724","3792.59529185","3793.89735198","3793.97977996","3796.982759","1","3796.99690294","3801.59955907",""
"sujeto_0048533","1","4","20","116","3801.73025298","inverse","4","1","4","¿En qué año comenzó
la segunda guerra mundial?","1939","1976","left","0","0","1","competitive","left","1.45342516899","3803.18375301","3.54657483101","3806.88541698","2.8671631813","3809.75262189","3.1328368187","3812.93733191","3814.73720384","3814.82274604","3817.82572889","1","3817.83963895","3821.826792",""
"sujeto_0048533","1","4","21","117","3822.00758696","direct","2","1","4","¿Cuántos biomas hay en Uruguay?","5","4","","0","0","1","competitive","right","1.89906191826","3823.90669894","3.10093808174","3827.18205786","2.84854602814","3830.03064799","3.15145397186","3833.21538687","3835.01274586","3835.08379793","3838.08674788","0","3838.10099697","3844.35040903",""
"sujeto_0048533","1","4","22","118","3844.48621202","inverse","2","1","3","¿Cuándo murió Pablo Escobar?","1993","1997","","1","1","1","competitive","left","0.713950157166","3845.20023704","4.28604984283","3849.64315391","3.87341785431","3853.51663685","2.12658214569","3855.67789388","3857.46074104","3857.5456109","3860.54860401","1","3860.56279492","3866.26570892",""
"sujeto_0048533","1","4","23","119","3866.41444206","direct","1","1","4","¿Qué serie ha ganado mas premios?","Friends","Murphy Brown","","1","1","0","competitive","left","0.794132947922","3867.20863891","4.20586705208","3871.57107687","2.86746191978","3874.43858004","3.13253808022","3877.62197089","3878.97441602","3879.05706692","3882.06005287","1","3882.07404995","3887.63568091",""
"sujeto_0048533","1","4","24","120","3887.77503991","inverse","4","1","2","¿Cuántas fichas tiene el dominó?","26","28","","1","1","1","competitive","left","1.30456781387","3889.07967591","3.69543218613","3892.93066287","4.27089810371","3897.20163488","1.72910189629","3898.9833169","3900.03863597","3900.117522","3903.12051487","1","3903.13449001","3908.37760997",""
"sujeto_0048533","1","4","25","121","3908.55319595","direct","2","1","4","¿Cuántos son los dientes de leche?","20","25","","0","0","1","competitive","right","0.911428928375","3909.46470094","4.08857107162","3913.70947194","4.29011392593","3917.99962687","1.70988607407","3919.76044488","3921.46967006","3921.54463196","3924.54567385","0","3924.56192899","3926.70759988",""
"sujeto_0048533","1","4","26","122","3926.84713507","inverse","3","1","3","¿Cuántos gramos son una onza?","22","28","","0","0","1","competitive","left","0.963504076004","3927.81069088","4.036495924","3932.00267696","2.9939198494","3934.99665499","3.0060801506","3938.03589106","3940.03070307","3940.10440803","3943.10740805","0","3943.1215179","3949.41171694",""
"sujeto_0048533","1","4","27","123","3949.5571599","direct","3","1","1","¿Cuándo salió el primer album
 de los Beatles?","1963","1962","","1","1","1","competitive","right","1.13945388794","3950.69665885","3.86054611206","3954.73043203","3.95218110085","3958.68265295","2.04781889915","3960.78132892","3961.94494104","3962.01634884","3965.01936197","1","3965.03331399","3968.80537605",""
"sujeto_0048533","1","4","28","124","3968.951612","inverse","3","1","3","¿Quién fundó la empresa apple?","Carlos Slim","Steve Jobs","","1","1","1","competitive","right","0.864996194839","3969.81667805","4.13500380516","3974.10452986","3.02903103828","3977.1336329","2.97096896172","3980.13941693","3981.25410604","3981.32418084","3984.32475495","1","3984.34198594","3990.63985205",""
"sujeto_0048533","1","4","29","125","3990.77726007","direct","4","1","2","¿Cuántos municipios hay
 en Montevideo?","8","7","","1","1","1","competitive","left","0.676368951797","3991.45369387","4.3236310482","3995.93458986","2.95097088814","3998.88562799","3.04902911186","4001.98565292","4003.90041804","4003.98775887","4006.990731","1","4007.00490689","4009.08605003",""
"sujeto_0048533","1","4","30","126","4009.22280288","inverse","1","1","1","¿Cuántos kilómetros hay
 de Montevideo a Artigas?","632","599","","0","0","0","competitive","left","1.49786901474","4010.72074986","3.50213098526","4014.37828898","3.16934108734","4017.54766703","2.83065891266","4020.4280169","4021.91116285","4021.98002791","4024.98300791","0","4024.99706388","4031.04570794",""
"sujeto_0048533","1","4","31","127","4031.18162799","direct","2","1","2","¿En qué año nació 
Leonardo Da Vinci?","1452","1511","","1","1","0","competitive","left","0.89901804924","4032.08070898","4.10098195076","4036.35327792","3.58736395836","4039.94068193","2.41263604164","4042.40648293","4044.26006293","4044.34109187","4047.3440609","1","4047.35807705","4050.50446606",""
"sujeto_0048533","1","4","32","128","4050.64352489","inverse","3","1","1","¿A qué continente
 pertenece el país Gabón?","Africa","Oceanía","","0","0","1","competitive","left","0.821105957031","4051.4646759","4.17889404297","4055.81582499","4.16679000854","4059.98267293","1.83320999146","4061.86698389","4063.67862892","4063.75132084","4066.75430083","0","4066.76846695","4072.00637388",""
