"code","nro_aplicante","nro_bloque","nro_trial_bloque","nro_trial_global","show_game_type","choice_order","rival","pay_individual","pay_competitive","question","answer_left_text","answer_right_text","correct_answer","outcome_individual","outcome_competitive","outcome_rival","game_type","answer","social_time","rt_game_type","feedback_delay","show_question","answer_time","rt_answer_global","feedback_delay_2","show_jitter","jitter_time","show_outcome","outcome_time","outcome_participant_real","show_final_jitter","second_jitter_time","inicio_descanso"
"sujeto_1fe7250f","1","1","1","1","637.661282063","direct","3","1","4","¿Cuántos centímetros corresponden
al talle 36 del calzado?","23","24",,"0","0","1","competitive","right","2.10974693298","639.77106905","2.89025306702","642.830461025","3.08364605904","645.914185047","2.91635394096","648.882325172","649.910617113","649.984495163","652.987481117","0","653.000520229","655.163048029",
"sujeto_1fe7250f","1","1","2","2","655.302565098","inverse","3","1","2","¿Cuántas metros mide la Intendencia
Municipal de Montevideo? ","84","78",,"0","0","1","competitive","right","1.92455387115","657.227187157","3.07544612885","660.472379208","3.22365903854","663.696085215","2.77634096146","666.52404809","668.402064085","668.475800037","671.477959156","0","671.492944002","673.585711002",
"sujeto_1fe7250f","1","1","3","3","673.711270094","direct","1","1","3","¿Cuántas La Pasiva
 hay en uruguay?","15","11",,"1","1","1","competitive","right","1.54875087738","675.260068178","3.45124912262","678.867401123","2.3067150116","681.174180031","3.6932849884","684.916408062","686.528081179","686.602263212","689.605243206","1","689.619292021","693.897644043",
"sujeto_1fe7250f","1","1","4","4","694.021199226","inverse","3","1","3","¿De que color es la camiseta de uruguay?","blanca","celeste","right","1","1","1","individual","right","1.61890506744","695.640152216","3.38109493256","699.160509109","2.35363483429","701.514188051","3.64636516571","705.211104155","706.415855169","706.462519169","709.465464115","1","709.479605198","712.933525085",
"sujeto_1fe7250f","1","1","5","5","713.081412077","direct","2","1","1","¿Cuánto metros mide
la torre Eiffel?","333","324",,"1","1","1","competitive","left","1.63163495064","714.713093042","3.36836504936","718.235846996","2.79023003578","721.026117086","3.20976996422","724.287977219","725.809322119","725.888663054","728.891638041","1","728.90693903","735.943632126",
"sujeto_1fe7250f","1","1","6","6","736.091661215","inverse","3","1","4","¿Cuantas ciudades existen
 en todo el uruguay?","63","72",,"0","0","1","competitive","left","2.63373303413","738.725465059","2.36626696587","741.281452179","3.17060399055","744.452097178","2.82939600945","747.333506107","748.388326168","748.467826128","751.470813036","0","751.484767199","759.111352205",
"sujeto_1fe7250f","1","1","7","7","759.269921064","direct","1","1","1","¿Cuantos estados tiene África?","52","54",,"1","1","0","competitive","right","1.97010588646","761.240097046","3.02989411354","764.427998066","2.73402285576","767.162083149","3.26597714424","770.475963116","772.339935064","772.411036015","775.413945198","1","775.429043055","781.190026999",
"sujeto_1fe7250f","1","1","8","8","781.363538027","inverse","4","1","4","¿En qué año nació
 Stephen Hawking?","1952","1942",,"0","0","1","individual","left","2.20152902603","783.565114021","2.79847097397","786.521701097","1.53634500504","788.058107138","4.46365499496","792.572362185","794.016662121","794.057811022","797.060826063","0","797.075002193","803.174333096",
"sujeto_1fe7250f","1","1","9","9","803.310122013","direct","2","1","3","¿Cuánto años tenía Artigas
 cuando se fue a Paraguay?","56","57",,"1","1","1","competitive","right","1.61900305748","804.929170132","3.38099694252","808.46687603","2.60318088531","811.070116997","3.39681911469","814.517331123","816.066845179","816.152369022","819.155341148","1","819.169436216","825.216747046",
"sujeto_1fe7250f","1","1","10","10","825.371085167","inverse","1","1","2","¿Cuantos milímetros 
mide una hoja A2?","420x592","420x594",,"0","0","1","competitive","right","1.74903106689","827.120181084","3.25096893311","830.528510094","3.40557289124","833.934127092","2.59442710876","836.578974009","838.147400141","838.231104136","841.234067202","0","841.247997046","848.32162714",
"sujeto_1fe7250f","1","1","11","11","848.466520071","direct","3","1","3","¿Cuál es la menor temperatura 
registrada en Uruguay?","-5.4","-7.4",,"0","0","1","competitive","right","2.20961904526","850.676208019","2.79038095474","853.655925035","3.06619405746","856.722186089","2.93380594254","859.707777023","861.389816046","861.45909214","864.462045193","0","864.476079226","868.205961227",
"sujeto_1fe7250f","1","1","12","12","868.344423056","inverse","2","1","2","¿Cuantos años hace que 
se fundó facebook?","18","17",,"0","0","0","competitive","right","1.93580794334","870.28028512","3.06419205666","873.534030199","2.8131210804","876.347197056","3.1868789196","879.567705154","880.940433025","881.019414186","884.021977186","0","884.036065102","886.809974194",
"sujeto_1fe7250f","1","1","13","13","886.937744141","direct","1","1","4","¿Cuál animal es más
 pesado en promedio?","Rinoceronte","Hipopotamo",,"0","0","0","competitive","right","1.96052980423","888.8983531","3.03947019577","892.159810066","3.03339886665","895.193272114","2.96660113335","898.210880041","899.290096045","899.36256218","902.365553141","0","902.378725052","906.219734192",
"sujeto_1fe7250f","1","1","14","14","906.347031116","inverse","1","1","2","¿Qué personaje de dragon ball 
murió más veces?","Chaoz","Krillin",,"1","1","0","competitive","right","2.30323290825","908.65033412","2.69676709175","911.518657207","2.15159702301","913.670318127","3.84840297699","917.569888115","919.027685165","919.106110096","922.109071016","1","922.122916222","929.893959045",
"sujeto_1fe7250f","1","1","15","15","930.057553053","direct","3","1","2","La universidad de oxford. 
existe desde:","1096","1249",,"1","1","0","competitive","right","1.81374907494","931.871369123","3.18625092506","935.231299162","3.52798914909","938.759360075","2.47201085091","941.266102076","942.31490922","942.384232044","945.387185097","1","945.401167154","952.092025042",
"sujeto_1fe7250f","1","1","16","16","952.269593","inverse","3","1","1","¿Qué escritor latino ganó antes
 el premio nobel?"," García Marquez","Neruda",,"0","0","1","competitive","right","2.9337580204","955.203396082","2.0662419796","957.440955162","2.68240404129","960.123422146","3.31759595871","963.492950201","965.23291707","965.312285185","968.313964128","0","968.329160213","971.789659023",
"sujeto_1fe7250f","1","1","17","17","971.931032181","direct","4","1","3","¿Cuántos dientes tiene un
 tiburón blanco?","6000","3000",,"0","0","1","competitive","right","2.33237409592","974.263452053","2.66762590408","977.101274014","2.95215892792","980.053474188","3.04784107208","983.154564142","984.193569183","984.273080111","987.276066065","0","987.290268183","992.099941015",
"sujeto_1fe7250f","1","1","18","18","992.2411201","inverse","4","1","1","¿Cuánto mide el paralelo Ecuador?","40.000km","70.000km",,"0","0","1","individual","left","1.652312994","993.893486023","3.347687006","997.414060116","2.46931409836","999.88341403","3.53068590164","1003.46457219","1005.42065716","1005.46636915","1008.46930623","0","1008.4843452","1012.08692312",
"sujeto_1fe7250f","1","1","19","19","1012.219136","direct","4","1","2","¿Cuál fue el primer libro 
de Stephen King?","Carrie","The Stand",,"1","1","1","competitive","right","2.0413339138","1014.26051712","2.9586660862","1017.37459922","2.48986887932","1019.86453223","3.51013112068","1023.42309523","1025.1672101","1025.24186516","1028.24484515","1","1028.25904512","1032.7334702",
"sujeto_1fe7250f","1","1","20","20","1032.87695217","inverse","2","1","3","¿Qué civilización practicaba
 la momificación?","Grecia","Egipto","right","0","0","1","competitive","right","1.55355811119","1034.43058109","3.44644188881","1038.03583503","2.0296690464","1040.06556702","3.9703309536","1044.08471704","1046.024014","1046.10461521","1049.10755515","1","1049.12175107","1053.35049319",
"sujeto_1fe7250f","1","1","21","21","1053.48993015","direct","4","1","4","¿Cuántos millones de visitas
 recibe google por minuto?","3.0","4.5",,"0","0","1","competitive","right","1.93671512604","1055.42672014","3.06328487396","1058.678617","2.50405883789","1061.18271708","3.49594116211","1064.72925806","1066.24413109","1066.31510305","1069.3180902","0","1069.33223701","1076.45491815",
"sujeto_1fe7250f","1","1","22","22","1076.58414102","inverse","1","1","3","La máquina de fax. se inventó en:","1843","1960",,"0","0","1","competitive","right","1.42952799797","1078.01374412","3.57047200203","1081.74191308","2.67377090454","1084.41574717","3.32622909546","1087.7923131","1089.03442407","1089.10988402","1092.11286521","0","1092.12681603","1095.36311412",
"sujeto_1fe7250f","1","1","23","23","1095.49614501","direct","2","1","4","En la verdadera historia de los
 300 espartanos. habían:","300 soldados","4300 soldados",,"1","1","1","competitive","left","1.41560101509","1096.91179514","3.58439898491","1100.66565013","2.25905990601","1102.92477202","3.74094009399","1106.71727419","1107.97850919","1108.05217409","1111.055161","1","1111.06918621","1114.869977",
"sujeto_1fe7250f","1","1","24","24","1115.00423312","inverse","1","1","4","¿Cuántos milímetros crece
 el pelo por día?","0.4","0.04",,"0","0","0","competitive","right","1.31556487083","1116.31986713","3.68443512917","1120.17867923","2.83009195328","1123.00881219","3.16990804672","1126.22864509","1127.98933506","1128.06311703","1131.0660851","0","1131.08130217","1137.81643319",
"sujeto_1fe7250f","1","1","25","25","1137.94866204","direct","4","1","1","¿Cuánto mide la baldosa gris 
clásica de Montevideo?","22x22 cm.","20x20 cm.",,"1","1","1","competitive","right","1.83517599106","1139.78391314","3.16482400894","1143.13903618","2.64581012726","1145.78491521","3.35418987274","1149.19024706","1151.18550515","1151.25869823","1154.26168203","1","1154.27570915","1159.81851506",
"sujeto_1fe7250f","1","1","26","26","1159.94400501","inverse","2","1","2","¿Cuántas películas de rápidos
 y furiosos hay?","10","11",,"1","1","0","competitive","right","1.47892212868","1161.4229722","3.52107787132","1165.08445001","2.20946002007","1167.29397607","3.79053997993","1171.13406014","1172.49207711","1172.56981421","1175.57278419","1","1175.58675218","1177.621454",
"sujeto_1fe7250f","1","1","27","27","1177.75507402","direct","3","1","1","¿Cuántos masters 1000
 ganó Del Potro?","1","2",,"1","1","1","competitive","right","1.29096603394","1179.04609013","3.70903396606","1182.91039705","2.7366130352","1185.64707708","3.2633869648","1188.96120715","1190.71582818","1190.79566717","1193.79865909","1","1193.81371617","1201.20995808",
"sujeto_1fe7250f","1","1","28","28","1201.34796214","inverse","2","1","4","¿Cuántos meses dura el 
embarazo de una leona?","3 meses","4 meses",,"0","0","1","competitive","right","1.21217608452","1202.5601902","3.78782391548","1206.52269411","2.74037718773","1209.26311517","3.25962281227","1212.57288623","1213.68395114","1213.75866222","1216.76164007","0","1216.77524304","1223.49768806",
"sujeto_1fe7250f","1","1","29","29","1223.65974903","direct","1","1","1","¿En qué año fue creado
 el sandwich?","1762","1653",,"1","1","0","competitive","right","1.4744079113","1225.13423204","3.5255920887","1228.80150008","2.4867169857","1231.28825617","3.5132830143","1234.85114813","1236.44969702","1236.53566504","1239.53801107","1","1239.55328822","1243.02198815",
"sujeto_1fe7250f","1","1","30","30","1243.15573406","inverse","4","1","2","El nombre de la moneda de Vietnam es:","Dinar","Dong",,"0","0","1","competitive","left","1.2625169754","1244.41831803","3.7374830246","1248.32844806","2.39183592796","1250.72034502","3.60816407204","1254.37726521","1255.80922723","1255.89696717","1258.89995909","0","1258.91388822","1265.08229208",
"sujeto_1fe7250f","1","1","31","31","1265.21575022","direct","2","1","1","¿cuantos aleteos puede dar 
un colibrí por segundo?","120","50",,"0","0","0","competitive","left","1.26259303093","1266.4784112","3.73740696907","1270.38661718","2.76979112625","1273.15645814","3.23020887375","1276.43843818","1278.17082906","1278.25681305","1281.25977421","0","1281.273983","1285.48624015",
"sujeto_1fe7250f","1","1","32","32","1285.62560105","inverse","4","1","3","¿Qué altura promedio tienen
 los hombres uruguayos?","1.73 m","1.72 m",,"1","1","1","competitive","right","1.31784892082","1286.94349313","3.68215107918","1290.80034518","2.25008916855","1293.05048013","3.74991083145","1296.84969616","1298.11213112","1298.1846621","1301.1876502","1","1301.20179319","1305.67773414",
"sujeto_1fe7250f","1","2","1","33","1428.51154017","direct","1","1","1","¿En qué año nació 
el actor Bradd Pitt?","1967","1963",,"1","1","1","competitive","left","1.36536598206","1429.87701201","3.63463401794","1433.67358613","2.44252109528","1436.11614823","3.55747890472","1439.70713615","1440.802953","1440.87607718","1443.87903905","1","1443.89316106","1449.81795502","1305.68937111"
"sujeto_1fe7250f","1","2","2","34","1449.94400406","inverse","2","1","1","¿Cual es el segundo 
monte más alto?","Kanchenjunga","K2",,"1","1","1","competitive","right","1.16815686226","1451.11223412","3.83184313774","1455.10101414","3.07416200638","1458.17523813","2.92583799362","1461.1526072","1462.60500216","1462.68691707","1465.68992019","1","1465.70418406","1469.13406014",
"sujeto_1fe7250f","1","2","3","35","1469.27240801","direct","3","1","1","¿Cuándo finalizó la construcción
 del Palacio Legislativo?","1925","1917",,"0","0","1","competitive","left","1.12686800957","1470.39932013","3.87313199043","1474.42852616","2.60374593735","1477.03231621","3.39625406265","1480.47802114","1482.1197331","1482.19643211","1485.19942021","0","1485.21442223","1490.9099791",
"sujeto_1fe7250f","1","2","4","36","1491.04927516","inverse","3","1","3","¿Cuántos integrantes tenía
 en su inicio  el cuarteto de nos?","3","4",,"1","1","1","competitive","right","1.33010005951","1492.37944603","3.66989994049","1496.20212817","2.84624099731","1499.04843211","3.15375900269","1502.23668408","1503.36976504","1503.4379282","1506.44089913","1","1506.45532107","1512.1051352",
"sujeto_1fe7250f","1","2","5","37","1512.24043608","direct","2","1","3","¿Qué valor tiene el número pi?","3.14","4.18","left","0","0","1","competitive","left","1.38402986526","1513.6245141","3.61597013474","1517.40072703","2.10373497009","1519.50452518","3.89626502991","1523.45050216","1524.90469313","1524.98633122","1527.98932004","1","1528.00348806","1534.92444611",
"sujeto_1fe7250f","1","2","6","38","1535.05487609","inverse","2","1","2","¿Cuál es la esperanza de vida
 en Uruguay?","75","77",,"1","1","0","competitive","left","0.981714010239","1536.03664112","4.01828598976","1540.21280813","2.85486388206","1543.0677352","3.14513611794","1546.26270413","1547.91648412","1547.99788117","1551.0008862","1","1551.01510119","1557.4781332",
"sujeto_1fe7250f","1","2","7","39","1557.61699009","direct","1","1","2","¿Cuantos pisos tiene la torre 
de las comunicaciones?","26","32",,"1","1","0","competitive","right","1.67172789574","1559.28878522","3.32827210426","1562.75828314","2.84939980507","1565.6077292","3.15060019493","1568.80746722","1570.63626504","1570.70981503","1573.71280408","1","1573.72682405","1575.873034",
"sujeto_1fe7250f","1","2","8","40","1576.01200318","inverse","2","1","4","¿En qué país sudamericano 
no hay McDonalds?","Bolivia","Venezuela",,"0","0","1","competitive","right","1.38077902794","1577.39284921","3.61922097206","1581.18061519","2.66317296028","1583.84385014","3.33682703972","1587.23182917","1588.54119921","1588.61762619","1591.62062907","0","1591.63487911","1597.99460721",
"sujeto_1fe7250f","1","2","9","41","1598.13591504","direct","3","1","1","¿En qué año empieza
 la Edad Media?","476","512",,"1","1","1","competitive","left","1.2709980011","1599.40698409","3.7290019989","1603.27852321","3.15038299561","1606.42895222","2.84961700439","1609.32936811","1610.73310304","1610.81402206","1613.81698918","1","1613.83123517","1616.81796813",
"sujeto_1fe7250f","1","2","10","42","1616.96573806","inverse","3","1","4","¿Hace cuántos años surgió
 el ser humano?","200mil","300mil",,"0","0","0","competitive","left","1.01828193665","1617.98409319","3.98171806335","1622.12131619","2.51669692993","1624.63805413","3.48330307007","1628.17235112","1630.05840302","1630.14088917","1633.141922","0","1633.15795612","1636.46593022",
"sujeto_1fe7250f","1","2","11","43","1636.59241414","direct","3","1","4","¿Cuántas cuadras tiene
 actualmente 18 de julio? ","36","33",,"0","0","1","competitive","left","1.29868793488","1637.89114714","3.70131206512","1641.74886417","3.00329113007","1644.75219703","2.99670886993","1647.79874516","1649.50097108","1649.5843842","1652.5873611","0","1652.60125518","1657.32754803",
"sujeto_1fe7250f","1","2","12","44","1657.45287108","inverse","1","1","4","¿Qué juego de equipo se 
considera mas rápido?","Lacrosse","Badminton",,"0","0","0","competitive","left","1.20550704002","1658.65842319","3.79449295998","1662.625669","2.5405600071","1665.16626811","3.4594399929","1668.67631412","1669.91940022","1669.99459505","1672.99758101","0","1673.01178908","1681.0069232",
"sujeto_1fe7250f","1","2","13","45","1681.14674616","direct","1","1","3","¿Qué promedio de edad 
vive una jirafa? ","25","20",,"0","0","1","competitive","left","1.17060208321","1682.31741905","3.82939791679","1686.33763123","2.73870801926","1689.07639909","3.26129198074","1692.38852215","1694.15005803","1694.22347713","1697.22646117","0","1697.24075818","1703.19647121",
"sujeto_1fe7250f","1","2","14","46","1703.3596921","inverse","1","1","2","¿Cuántos grandes lagos hay?","7","5",,"0","0","1","competitive","right","0.994782209396","1704.35454202","4.0052177906","1708.5163722","2.71408295631","1711.23049712","3.28591704369","1714.54972506","1715.84183407","1715.91911006","1718.92212105","0","1718.93520522","1726.75654316",
"sujeto_1fe7250f","1","2","15","47","1726.88713908","direct","3","1","2","¿Cuántos discos de estudio
 grabó Johhny Cash? ","54","43",,"1","1","0","competitive","left","1.61745691299","1728.50466204","3.38254308701","1732.04579616","2.95487999916","1735.00073814","3.04512000084","1738.09579206","1739.37443304","1739.44740319","1742.44999003","1","1742.46504521","1749.11596012",
"sujeto_1fe7250f","1","2","16","48","1749.2500391","inverse","4","1","1","¿Cuántos barrios tiene
 Montevideo? ","71","62",,"0","0","1","individual","right","1.87769889832","1751.12781501","3.12230110168","1754.48764014","1.64412498474","1756.13181901","4.35587501526","1760.53828311","1761.54535604","1761.59098506","1764.59390807","0","1764.60733509","1770.0659461",
"sujeto_1fe7250f","1","2","17","49","1770.19278908","direct","3","1","3","¿Qué edad tiene Homero Simpson?","36","42",,"0","0","1","competitive","right","1.61312294006","1771.80598402","3.38687705994","1775.35124803","2.81357598305","1778.16488814","3.18642401695","1781.38527203","1782.76124001","1782.83655405","1785.8379252","0","1785.85408807","1790.24194002",
"sujeto_1fe7250f","1","2","18","50","1790.38920212","inverse","4","1","2","¿Cuántos países con monarquía 
hay en europa actualmente? ","6","10",,"1","1","1","competitive","left","1.35177993774","1791.74104619","3.64822006226","1795.61240506","2.14560103416","1797.75805211","3.85439896584","1801.66192412","1803.10013103","1803.19658804","1806.19788504","1","1806.21473908","1812.36989021",
"sujeto_1fe7250f","1","2","19","51","1812.56616211","direct","2","1","3","¿Cuántos capítulos de
 Friends existen? ","236","228",,"1","1","1","competitive","left","1.73601102829","1814.30222821","3.26398897171","1817.77353811","2.20662212372","1819.98021317","3.79337787628","1823.823318","1825.12879205","1825.20858312","1828.20988703","1","1828.22630715","1830.60187817",
"sujeto_1fe7250f","1","2","20","52","1830.79433107","inverse","1","1","3","¿Cuántas óperas compuso Mozart? ","27","22",,"1","1","1","competitive","right","1.41786885262","1832.21227503","3.58213114738","1835.94986606","1.9243350029","1837.87424612","4.0756649971","1841.98268008","1843.27472806","1843.35198522","1846.35389709","1","1846.36870718","1853.68010712",
"sujeto_1fe7250f","1","2","21","53","1855.02643609","direct","4","1","3","¿Cuántos mundiales de fútbol 
femenino ha realizado FIFA? ","9","7",,"1","1","1","individual","right","1.33394789696","1856.3604362","3.66605210304","1860.19559216","3.11077904701","1863.30642319","2.88922095299","1866.22956204","1867.4732151","1867.51470709","1870.5176661","1","1870.53082418","1876.63323116",
"sujeto_1fe7250f","1","2","22","54","1876.76695108","inverse","3","1","2","¿Cuál es la temperatura 
media anual en Montevideo? ","17.5","16.3",,"0","0","1","competitive","left","1.02198505402","1877.78900313","3.97801494598","1881.92337918","2.60706496239","1884.53051209","3.39293503761","1887.97333312","1889.9119401","1889.99194622","1892.9949472","0","1893.00917315","1899.57870412",
"sujeto_1fe7250f","1","2","23","55","1899.71154809","direct","2","1","2","¿En qué año se estrenó el
 videojuego The Sims? ","2000","2002",,"0","0","0","competitive","left","2.06907176971","1901.7806921","2.93092823029","1904.86768317","2.44990515709","1907.31765723","3.55009484291","1910.91929507","1912.78130412","1912.85423613","1915.85720205","0","1915.87228322","1923.26199102",
"sujeto_1fe7250f","1","2","24","56","1923.40665317","inverse","2","1","1","¿Cuál es la canción con 
mas covers? ","Yesterday","Stand by me",,"0","0","0","individual","right","1.4210600853","1924.82778502","3.5789399147","1928.58112717","2.44060897827","1931.02180409","3.55939102173","1934.63166809","1936.02989411","1936.08284307","1939.08573413","0","1939.10011911","1943.26990008",
"sujeto_1fe7250f","1","2","25","57","1943.43514919","direct","1","1","4","¿Cuánto duró la guerra
 de los 100 años?","116","123",,"0","0","0","competitive","left","2.26474499702","1945.7000072","2.73525500298","1948.65780902","2.24605798721","1950.90393519","3.75394201279","1954.70619106","1956.18702507","1956.25562501","1959.25860214","0","1959.27244616","1961.5922401",
"sujeto_1fe7250f","1","2","26","58","1961.72443509","inverse","4","1","4","¿Qué color tiene la  bandera de Brasil?","Amarillo","Naranja","left","0","0","1",,,,,,,,,,,,,,,"1966.74332809","1969.77393603",
"sujeto_1fe7250f","1","2","27","59","1969.8956852","direct","4","1","3","¿Qué carabela de 
Colon no volvió del viaje?","Santa María","La pinta",,"0","0","1",,,,,,,,,,,,,,,"1974.91290522","1977.01235604",
"sujeto_1fe7250f","1","2","28","60","1977.17987108","inverse","4","1","4","¿Cuántos huesos tiene
 un adulto humano?","217","206",,"0","0","1",,,,,,,,,,,,,,,"1982.18645","1990.02408719",
"sujeto_1fe7250f","1","2","29","61","1990.15391517","direct","1","1","1","¿Qué país africano fue 
fundado por esclavos?","Liberia","Chad",,"0","0","0",,,,,,,,,,,,,,,"1995.16040707","2003.15120411",
"sujeto_1fe7250f","1","2","30","62","2003.27667308","inverse","4","1","2","¿A cuánto asciende la cima
 del monte Everest?","7.990 mts","8.848 mts",,"0","0","1",,,,,,,,,,,,,,,"2008.28317618","2015.46600413",
"sujeto_1fe7250f","1","2","31","63","2015.60055804","direct","4","1","1","¿Cuál es el país mas chico?","Sealand","Luxemburgo",,"1","1","1",,,,,,,,,,,,,,,"2020.60791111","2023.72997904",
"sujeto_1fe7250f","1","2","32","64","2023.85809612","inverse","2","1","4","¿Cuántas pirámides hay en Egipto?","10000","11000",,"1","1","1",,,,,,,,,,,,,,,"2028.87882304","2033.98789811",
"sujeto_1fe7250f","1","3","1","1","35.5236270428","direct","2","1","2","¿Cuál es el quinto país con 
mas extensión?","Canadá","Brasil",,"1","1","0","competitive","left","1.21255207062","36.7362492085","3.78744792938","40.6678111553","3.05049800873","43.7183551788","2.94950199127","46.7183971405","48.0516870022","48.1369171143","51.1398961544","1","51.1542191505","58.8806080818",
"sujeto_1fe7250f","1","3","2","2","59.0224061012","inverse","1","1","2","¿Qué rasgo facial no tiene
 la Mona Lisa?","Cejas","Pómulos",,"0","0","1","competitive","left","1.5489859581","60.5714380741","3.4510140419","64.1794400215","2.66497397423","66.8444800377","3.33502602577","70.2303290367","71.9801440239","72.0648741722","75.0678501129","0","75.0827682018","81.3521840572",
"sujeto_1fe7250f","1","3","3","3","81.4846971035","direct","4","1","3","¿Cuál es el país con 
mayor población?","Esados Unidos","China","right","0","0","1","competitive","right","1.51379394531","82.9985661507","3.48620605469","86.6417970657","2.15575695038","88.7976160049","3.84424304962","92.691229105","94.3372581005","94.4101641178","97.4131410122","1","97.4281830788","100.795492172",
"sujeto_1fe7250f","1","3","4","4","100.929418087","inverse","1","1","1","La palabra dinosaurio significa","Lagarto Terrible","Lagarto Dragón",,"1","1","0","competitive","right","1.65821385384","102.587698221","3.34178614616","106.068596125","3.51110887527","109.579745054","2.48889112473","112.101939201","113.272282124","113.353395224","116.356359005","1","116.370397091","119.232191086",
"sujeto_1fe7250f","1","3","5","5","119.405345201","direct","2","1","3","¿Qué es el membrillero?","Arbol","Arbusto",,"0","0","0","competitive","right","1.2994260788","120.704825163","3.7005739212","124.560965061","2.58877897263","127.149785995","3.41122102737","130.61124301","132.565356016","132.646506071","135.649502993","0","135.664482117","142.128515005",
"sujeto_1fe7250f","1","3","6","6","142.266334057","inverse","3","1","3","¿Alrededor de qué planeta orbita 
el satélite Europa?","Jupiter","Saturno",,"1","1","1","competitive","left","1.16955685616","143.435966015","3.83044314384","147.423682213","3.41820693016","150.841959","2.58179306984","153.474404097","155.019182205","155.091824055","158.094762087","1","158.109724998","160.314880133",
"sujeto_1fe7250f","1","3","7","7","160.444306135","direct","3","1","1","¿Donde fue el mundial de 
fútbol de 1954?","Suiza","Suecia",,"1","1","1","individual","right","1.50469613075","161.949066162","3.49530386925","165.600171089","2.61480283737","168.2150352","3.38519716263","171.649709225","172.902328014","172.952395201","175.955339193","1","175.969319105","179.881081104",
"sujeto_1fe7250f","1","3","8","8","180.054634094","inverse","1","1","4","¿Cuál de los 7 enanitos
no tenía barba?","Bashful","Mudito",,"1","1","0","competitive","left","1.1966278553","181.251347065","3.8033721447","185.209960222","3.23634600639","188.446369171","2.76365399361","191.259909153","192.840073109","192.911699057","195.914647102","1","195.929836035","200.85892415",
"sujeto_1fe7250f","1","3","9","9","200.980676174","direct","3","1","2","¿Cual red social es
mas utilizada mundialmente?","Instagram","Facebook",,"1","1","0","competitive","right","1.88284492493","202.863596201","3.11715507507","206.138164997","3.09846591949","209.236697197","2.90153408051","212.18820405","214.105552197","214.190743208","217.193723202","1","217.207679987","220.142176151",
"sujeto_1fe7250f","1","3","10","10","220.292870045","inverse","4","1","1","¿Cuándo se inició la copa
 América de fútbol?","1916","1923",,"1","1","1","individual","left","1.26297211647","221.555909157","3.73702788353","225.461745024","2.79912805557","228.260934114","3.20087194443","231.512984037","233.410446167","233.448190212","236.451117039","1","236.466286182","239.122392178",
"sujeto_1fe7250f","1","3","11","11","239.267397165","direct","3","1","4","¿Cuántos presidentes de EEUU
han muerto asesinados?","3","4",,"0","0","1","competitive","right","1.37671804428","240.644179106","3.62328195572","244.408087015","2.2480969429","246.656228065","3.7519030571","250.457612038","251.941561222","252.02701807","255.030014992","0","255.044308186","258.688420057",
"sujeto_1fe7250f","1","3","12","12","258.828864098","inverse","2","1","4","¿Cuántas veces participó EEUU
 en la copa América?","4","5",,"0","0","1","competitive","left","1.29854488373","260.127490044","3.70145511627","263.984865189","2.39463210106","266.37955904","3.60536789894","270.01863718","271.461736202","271.53752017","274.540454149","0","274.554386139","280.671523094",
"sujeto_1fe7250f","1","3","13","13","280.8560431","direct","4","1","1","¿Cuál de estos países 
no formaba la URSS?","Azeribayán","Afganistán",,"0","0","1","individual","left","1.28876280785","282.144898176","3.71123719215","286.01336813","2.73345518112","288.746885061","3.26654481888","292.063338995","293.376430035","293.415607214","296.418574095","0","296.432657003","304.414800167",
"sujeto_1fe7250f","1","3","14","14","304.550399065","inverse","1","1","1","¿En qué año se inauguró
 el teatro Solís?","1867","1856",,"0","0","0","competitive","right","1.56268906593","306.113133192","3.43731093407","309.725398064","2.79671287537","312.522172213","3.20328712463","315.758930206","316.815251112","316.894553185","319.897534132","0","319.911540031","326.559361219",
"sujeto_1fe7250f","1","3","15","15","326.67991209","direct","1","1","4","¿A qué velocidad vuela 
el avión más rápido?","3529","3874",,"0","0","0","competitive","left","1.49143409729","328.171420097","3.50856590271","331.821560144","2.94684410095","334.768444061","3.05315589905","337.871005058","339.626502037","339.706010103","342.709007025","0","342.724217176","344.834472179",
"sujeto_1fe7250f","1","3","16","16","344.959277153","inverse","3","1","4","¿De qué año es la primer 
película cinematográfica?","1897","1888",,"0","0","0","competitive","right","1.02531599998","345.984639168","3.97468400002","350.114107132","2.67655801773","352.790729046","3.32344198227","356.147852182","357.280114174","357.348978996","360.351924181","0","360.365879059","365.775658131",
"sujeto_1fe7250f","1","3","17","17","365.900889158","direct","2","1","3","¿Cuántos países 
tiene nuestro planeta?","191","194",,"1","1","1","competitive","right","1.49397110939","367.394906044","3.50602889061","371.058990002","3.38202190399","374.441071987","2.61797809601","377.108361006","378.465568066","378.5435462","381.546549082","1","381.56061101","384.798900127",
"sujeto_1fe7250f","1","3","18","18","384.928960085","inverse","2","1","2","¿Cuántos habitantes
 tiene Buenos Aires?","2.9000.000","3650000",,"0","0","0","competitive","left","1.22220802307","386.151235104","3.77779197693","390.102102041","2.37511897087","392.477261066","3.62488102913","396.151567221","397.548127174","397.620384216","400.623365164","0","400.637514114","406.466878176",
"sujeto_1fe7250f","1","3","19","19","406.622335196","direct","2","1","1","¿Cuántos kilos forman una tonelada?","1000","1500","left","1","1","1","individual","left","1.31012201309","407.932528019","3.68987798691","411.777931213","2.75956606865","414.537541151","3.24043393135","417.812441111","419.699745178","419.74755621","422.750465155","1","422.76477313","428.722189188",
"sujeto_1fe7250f","1","3","20","20","428.867053032","inverse","4","1","4","¿Cuántos estados tiene la 
República del Perú? ","24","23",,"0","0","1","competitive","right","1.52964091301","430.396768093","3.47035908699","434.024919033","2.86686682701","436.89184618","3.13313317299","440.075353146","441.097539186","441.176833153","444.179798126","0","444.193904161","449.139224052",
"sujeto_1fe7250f","1","3","21","21","449.278580189","direct","3","1","3","¿En qué año nació Cristóbal Colón? ","1451","1447",,"0","0","1","competitive","right","1.23954510689","450.518208027","3.76045489311","454.433531046","2.05153393745","456.485134125","3.94846606255","460.485141039","462.331001997","462.403508186","465.40647912","0","465.421621084","469.649608135",
"sujeto_1fe7250f","1","3","22","22","469.790024996","inverse","4","1","4","¿Cuánto mide la 
Montaña Aconcagua? ","6234","6962",,"0","0","1","competitive","left","1.33022212982","471.120313168","3.66977787018","474.980180025","3.13909387589","478.119314194","2.86090612411","481.030323029","482.319673061","482.398304224","485.400163174","0","485.415325165","492.598973036",
"sujeto_1fe7250f","1","3","23","23","492.750671148","direct","2","1","4","¿Cuánto mide el punto
 más profundo del océano? ","12508","11003",,"0","0","1","competitive","left","1.71482419968","494.465564013","3.28517580032","497.925302029","2.54828095436","500.473642111","3.45171904564","503.975087166","505.226608992","505.310527086","508.313486099","0","508.327688217","512.533964157",
"sujeto_1fe7250f","1","3","24","24","512.679299116","inverse","1","1","3","¿Cuántos álbumes ha publicado 
el cantante Jaime Roos? ","41","34",,"0","0","1","competitive","right","1.13045096397","513.809821129","3.86954903603","517.852043152","2.92280292511","520.774877071","3.07719707489","523.903026104","525.392837048","525.470888138","528.473829031","0","528.487848043","534.683967113",
"sujeto_1fe7250f","1","3","25","25","534.823181152","direct","4","1","3","¿En qué año nació el 
ex-presidente Jorge Battle? ","1921","1927",,"1","1","1","competitive","left","1.29980111122","536.12302804","3.70019888878","539.978298187","2.73575806618","542.714096069","3.26424193382","546.030791044","547.761495113","547.84931922","550.852310181","1","550.866393089","554.352438211",
"sujeto_1fe7250f","1","3","26","26","554.518180132","inverse","1","1","3","¿Cuántas presidencias 
constitucionales  hubo en Uruguay? ","41","42",,"0","0","1","competitive","left","1.12406897545","555.642294168","3.87593102455","559.674333096","3.07091188431","562.745308161","2.92908811569","565.724945068","566.928162098","567.010019064","570.01218915","0","570.026291132","575.809937",
"sujeto_1fe7250f","1","3","27","27","575.945055008","direct","1","1","2","¿Quién escribió mas sinfonías?","Mozart","Haydn",,"1","1","0","individual","left","1.59041404724","577.535512209","3.40958595276","581.102122068","2.09441804886","583.196607113","3.90558195114","587.13502121","588.352437019","588.403613091","591.406558037","1","591.420810223","595.172228098",
"sujeto_1fe7250f","1","3","28","28","595.339437008","inverse","4","1","2","¿En qué año nació Michael Jackson?","1958","1953",,"1","1","1","competitive","right","2.15528702736","597.494767189","2.84471297264","600.496539116","3.11618280411","603.612785101","2.88381719589","606.546316147","608.524110079","608.597587109","611.600139141","1","611.616079092","617.478414059",
"sujeto_1fe7250f","1","3","29","29","617.617376089","direct","3","1","2","¿En qué año entró en vigencia 
la ley antitabaco en Uruguay?","2005","2006",,"1","1","1","competitive","right","2.44755411148","620.064972162","2.55244588852","622.770255089","2.93776893616","625.70808816","3.06223106384","628.825013161","630.419799089","630.493033171","633.495965004","1","633.50999403","638.843936205",
"sujeto_1fe7250f","1","3","30","30","638.978473186","inverse","3","1","1","¿Cuándo se subió el 
primer video a youtube?","2004","2005",,"0","0","1","individual","right","1.69068813324","640.66922617","3.30931186676","644.11915803","2.98110389709","647.100322008","3.01889610291","650.169293165","651.474967003","651.520935059","654.523912191","0","654.538073063","662.292194128",
"sujeto_1fe7250f","1","3","31","31","662.422486067","direct","2","1","1","¿Cuántos habitantes tiene India?","1200 millones","1300 millones",,"0","0","0","individual","left","1.69796395302","664.120515108","3.30203604698","667.5813272","2.62712097168","670.208517075","3.37287902832","673.631727219","675.601299047","675.649147987","678.652129173","0","678.667278051","684.714787006",
"sujeto_1fe7250f","1","3","32","32","684.852748156","inverse","4","1","2","¿A qué edad murió Bob Marley?","36","37",,"0","0","1","competitive","left","2.13092207909","686.983744144","2.86907792091","690.02407217","2.28659892082","692.310714006","3.71340107918","696.07634306","697.974125147","698.045336008","701.048293114","0","701.062301159","704.16476202",
"sujeto_1fe7250f","1","4","1","33","830.670424223","direct","2","1","1","¿Cuantos años dirigió la selección 
uruguaya Tabarez?","15 años","13 años",,"0","0","0","individual","right","1.66764593124","832.338139057","3.33235406876","835.836494207","2.7116920948","838.548254013","3.2883079052","841.88618207","843.077337027","843.120862007","846.123833179","0","846.138824224","853.210864067","704.17696619"
"sujeto_1fe7250f","1","4","2","34","853.339912176","inverse","4","1","1","¿Cuantas teclas tiene un teclado 
de computadora generalmente? ","Entre 99 y 108","Entre 109 y 113",,"1","1","1","individual","left","2.42246508598","855.762444019","2.57753491402","858.530081034","2.74432992935","861.27447319","3.25567007065","864.581775188","865.584549189","865.633314133","868.636271","1","868.650285006","871.021711111",
"sujeto_1fe7250f","1","4","3","35","871.169155121","direct","1","1","1","¿Cuál Departamento tiene
 mayor superficie?","Río Negro","Soriano",,"0","0","0","competitive","right","2.02439785004","873.193599224","2.97560214996","876.324494123","3.34911680222","879.67367506","2.65088319778","882.372194052","884.085644007","884.174287081","887.177282095","0","887.191470146","891.51753521",
"sujeto_1fe7250f","1","4","4","36","891.65961504","inverse","3","1","2","¿Cuál es el apellido de las 
hermanastras  de  cenicienta?","Tremaine","Truman",,"0","0","1","competitive","left","1.35748291016","893.017141104","3.64251708984","896.818204165","2.35252594948","899.170792103","3.64747405052","902.867616177","904.737148046","904.820322037","907.823300123","0","907.837541103","910.533495188",
"sujeto_1fe7250f","1","4","5","37","910.672772169","direct","4","1","4","¿Cuál película ganó un
 Oscar a mejor película?","Alto Impacto","Cache",,"0","0","1","competitive","left","1.46215796471","912.134977102","3.53784203529","915.844051123","3.04086589813","918.884984016","2.95913410187","921.894742012","923.014099121","923.096443176","926.099425077","0","926.113376141","928.377995014",
"sujeto_1fe7250f","1","4","6","38","928.514703035","inverse","1","1","3","¿A cuántos centímetros
equivale la medida pié?","25","30",,"0","0","1","competitive","left","1.02438211441","929.539193153","3.97561788559","933.70176816","2.67731308937","936.379126072","3.32268691063","939.737442017","940.777398109","940.856133223","943.859101057","0","943.872997046","949.272135019",
"sujeto_1fe7250f","1","4","7","39","949.407421112","direct","2","1","2","¿Qué departamento es mas grande?","Cerro Largo","Paysandú",,"0","0","0","competitive","right","1.52680706978","950.934302092","3.47319293022","954.581552029","3.09477806091","957.676398039","2.90522193909","960.615133047","962.214896202","962.300247192","965.303205013","0","965.317393064","969.427345991",
"sujeto_1fe7250f","1","4","8","40","969.552619219","inverse","2","1","3","¿Quién pintó la Mona Lisa?","Picasso","Da Vinci","right","0","0","1","competitive","right","1.08290410042","970.63560915","3.91709589958","974.72540617","1.63301897049","976.35849309","4.36698102951","980.774790049","982.380656004","982.460808039","985.463776112","1","985.477817059","987.640111208",
"sujeto_1fe7250f","1","4","9","41","987.77801919","direct","4","1","3","¿Cuántos litros hay en un galon?","3.54","3.78",,"1","1","1","competitive","left","1.23261904716","989.010717154","3.76738095284","992.931364059","2.7092590332","995.640668154","3.2907409668","998.983705044","1000.50155115","1000.58519316","1003.58818913","1","1003.60219216","1009.39456511",
"sujeto_1fe7250f","1","4","10","42","1009.53738999","inverse","4","1","1","¿Cuántas teclas tiene
 un piano moderno?","80","88",,"0","0","1","individual","left","1.16248703003","1010.69995117","3.83751296997","1014.72918105","2.56564497948","1017.29486513","3.43435502052","1020.77980399","1021.78828621","1021.8311882","1024.83416104","0","1024.84883404","1031.64659905",
"sujeto_1fe7250f","1","4","11","43","1031.7997961","direct","4","1","3","¿Cuántos países hay en África?","54","62",,"0","0","1","competitive","left","1.49517393112","1033.2950201","3.50482606888","1036.97500014","1.7000670433","1038.67513108","4.2999329567","1043.02361703","1044.71417117","1044.79284","1047.79582906","0","1047.81093621","1055.61569715",
"sujeto_1fe7250f","1","4","12","44","1055.745224","inverse","1","1","3","¿En qué siglo se crearon
 las primeras pistolas?","XV","XIII",,"1","1","1","competitive","left","2.51604890823","1058.26135421","2.48395109177","1060.90202522","3.2212369442","1064.12330818","2.7787630558","1066.95441604","1068.90233016","1068.97244215","1071.97542715","1","1071.99066114","1075.223768",
"sujeto_1fe7250f","1","4","13","45","1075.35881805","direct","3","1","4","¿En qué año se estrenó 
la serie friends?","1994","1995",,"0","0","1","competitive","right","1.29955792427","1076.65842319","3.70044207573","1080.53036618","2.3160970211","1082.84652305","3.6839029789","1086.58018613","1088.45552921","1088.53314114","1091.53613901","0","1091.55013204","1096.55615711",
"sujeto_1fe7250f","1","4","14","46","1096.71799517","inverse","3","1","4","¿En qué año nació Hitler?","1889","1887",,"0","0","1","competitive","right","1.16456913948","1097.88263321","3.83543086052","1101.87277603","2.13282895088","1104.00564718","3.86717104912","1107.90748501","1109.0218401","1109.09284019","1112.0958221","0","1112.11016822","1117.13716006",
"sujeto_1fe7250f","1","4","15","47","1117.27826309","direct","1","1","4","¿Cuánto pesa un elefante Africano?","6000 kilos","5400 kilos",,"0","0","0","competitive","right","1.51250481606","1118.7908361","3.48749518394","1122.43624711","2.48657488823","1124.92288899","3.51342511177","1128.48573112","1129.84163809","1129.92117715","1132.92416716","0","1132.93833208","1139.64540005",
"sujeto_1fe7250f","1","4","16","48","1139.79045415","inverse","1","1","2","¿Qué porcentaje de 
la población es zurda?","10%","7%",,"1","1","0","competitive","left","1.47047710419","1141.26100016","3.52952289581","1144.94761205","1.93234992027","1146.88003612","4.06765007973","1150.99744701","1152.24055505","1152.31689","1155.31985402","1","1155.33392811","1161.31366301",
"sujeto_1fe7250f","1","4","17","49","1161.45114613","direct","1","1","2","¿En qué año se estrenó
Volver al futuro?","1984","1985",,"0","0","1","competitive","right","1.18399977684","1162.63519406","3.81600022316","1166.6261642","2.47599601746","1169.10222816","3.52400398254","1172.67589307","1174.23772717","1174.31072116","1177.31370521","0","1177.32875705","1184.42017913",
"sujeto_1fe7250f","1","4","18","50","1184.56300616","inverse","3","1","2","¿Cuántos jugadores hay en un 
equipo de baseball?","9","8",,"1","1","0","competitive","right","1.23034310341","1185.79341817","3.76965689659","1189.73432612","2.19500088692","1191.9293952","3.80499911308","1195.76947808","1197.38375616","1197.45543504","1200.45839119","1","1200.47243214","1205.44966912",
"sujeto_1fe7250f","1","4","19","51","1205.59083819","direct","2","1","1","¿Cuántos Oscar ganó
 la película titanic?","13","11",,"1","1","1","competitive","right","1.94775104523","1207.53866506","3.05224895477","1210.78133416","2.1662299633","1212.94763207","3.8337700367","1216.81566811","1218.11770415","1218.20114899","1221.20413613","1","1221.21831417","1225.82098103",
"sujeto_1fe7250f","1","4","20","52","1225.95378208","inverse","4","1","4","¿En qué año comenzó
la segunda guerra mundial?","1939","1976","left","0","0","1","competitive","left","1.00288796425","1226.95674109","3.99711203575","1231.10971022","1.90603709221","1233.01580811","4.09396290779","1237.159868","1238.95971608","1239.04483199","1242.04782104","1","1242.06194901","1246.04909611",
"sujeto_1fe7250f","1","4","21","53","1246.18094802","direct","2","1","4","¿Cuántos biomas hay en Uruguay?","5","4",,"0","0","1","competitive","right","1.39293789864","1247.57395506","3.60706210136","1251.33731103","2.66756987572","1254.00492215","3.33243012428","1257.38706303","1259.184407","1259.25580716","1262.25878","0","1262.27281308","1268.52217722",
"sujeto_1fe7250f","1","4","22","54","1268.6581471","inverse","2","1","3","¿Cuándo murió Pablo Escobar?","1993","1997",,"1","1","1","competitive","right","1.08394694328","1269.74216199","3.91605305672","1273.8128891","3.03020691872","1276.84315705","2.96979308128","1279.84775615","1281.63060403","1281.71636415","1284.71933603","1","1284.73335409","1290.43613505",
"sujeto_1fe7250f","1","4","23","55","1290.56803417","direct","1","1","4","¿Qué serie ha ganado mas premios?","Friends","Murphy Brown",,"1","1","0","competitive","left","1.44723796844","1292.01532412","3.55276203156","1295.72702909","1.73425602913","1297.46133018","4.26574397087","1301.77607918","1303.12819004","1303.21259713","1306.21557999","1","1306.22876406","1311.79038715",
"sujeto_1fe7250f","1","4","24","56","1311.94730902","inverse","4","1","2","¿Cuántas fichas tiene el dominó?","26","28",,"1","1","1","competitive","left","1.43613386154","1313.38349199","3.56386613846","1317.10472822","2.64774513245","1319.75254107","3.35225486755","1323.13776922","1324.19308519","1324.27263713","1327.27561402","1","1327.28994012","1332.53305006",
"sujeto_1fe7250f","1","4","25","57","1332.65839601","direct","2","1","4","¿Cuántos son los dientes de leche?","20","25",,"0","0","1","competitive","left","1.25423789024","1333.91271615","3.74576210976","1337.81493306","2.8147008419","1340.62969518","3.1852991581","1343.849231","1345.55958915","1345.6343441","1348.63732815","0","1348.65120316","1350.79615808",
"sujeto_1fe7250f","1","4","26","58","1350.93657804","inverse","3","1","3","¿Cuántos gramos son una onza?","22","28",,"0","0","1","competitive","left","1.25616598129","1352.19282103","3.74383401871","1356.09172201","2.06002783775","1358.1517911","3.93997216225","1362.12445807","1364.119313","1364.19380307","1367.19677305","0","1367.2109611","1373.50120902",
"sujeto_1fe7250f","1","4","27","59","1373.64609218","direct","3","1","1","¿Cuándo salió el primer album
 de los Beatles?","1963","1962",,"1","1","1","individual","right","1.44280314445","1375.08897018","3.55719685555","1378.80430317","2.39169192314","1381.19605708","3.60830807686","1384.85387611","1386.01748013","1386.05549812","1389.05848408","1","1389.07339406","1392.84542418",
"sujeto_1fe7250f","1","4","28","60","1392.97396111","inverse","3","1","3","¿Quién fundó la empresa apple?","Carlos Slim","Steve Jobs",,"1","1","1","competitive","right","0.863106966019","1393.83711314","4.13689303398","1398.12998199","2.09214901924","1400.2221911","3.90785098076","1404.18025899","1405.29494119","1405.36582899","1408.36880612","1","1408.38285804","1414.68072009",
"sujeto_1fe7250f","1","4","29","61","1414.8345542","direct","4","1","2","¿Cuántos municipios hay
 en Montevideo?","8","7",,"1","1","1","competitive","right","1.91779899597","1416.75242805","3.08220100403","1420.00620699","2.27506399155","1422.28133202","3.72493600845","1426.0583992","1427.9720881","1428.04398704","1431.04700708","1","1431.0610292","1433.14216709",
"sujeto_1fe7250f","1","4","30","62","1433.27944016","inverse","1","1","1","¿Cuántos kilómetros hay
 de Montevideo a Artigas?","632","599",,"0","0","0","individual","left","1.12099504471","1434.40048599","3.87900495529","1438.45134902","2.1010890007","1440.55249619","3.8989109993","1444.50080013","1445.98391199","1446.03705001","1449.04003716","0","1449.0542202","1455.10634804",
"sujeto_1fe7250f","1","4","31","63","1455.27210116","direct","2","1","2","¿En qué año nació 
Leonardo Da Vinci?","1452","1511",,"1","1","0","competitive","right","0.999528169632","1456.27170801","4.00047183037","1460.42961812","2.93497419357","1463.36465621","3.06502580643","1466.47948503","1468.33211303","1468.41544914","1471.41846204","1","1471.43266702","1474.57905602",
"sujeto_1fe7250f","1","4","32","64","1474.7169652","inverse","3","1","1","¿A qué continente
 pertenece el país Gabón?","Africa","Oceanía",,"0","0","1","competitive","right","1.18479299545","1475.90180802","3.81520700455","1479.88952017","3.20729994774","1483.09686613","2.79270005226","1485.93984509","1487.75154114","1487.82463622","1490.827631","0","1490.84265804","1496.08056808",
