"code","nro_aplicante","nro_bloque","nro_trial_bloque","nro_trial_global","show_game_type","choice_order","rival","pay_individual","pay_competitive","question","answer_left_text","answer_right_text","correct_answer","outcome_individual","outcome_competitive","outcome_rival","game_type","answer","social_time","rt_game_type","feedback_delay","show_question","answer_time","rt_answer_global","feedback_delay_2","show_jitter","jitter_time","show_outcome","outcome_time","outcome_participant_real","show_final_jitter","second_jitter_time","inicio_descanso"
"sujeto_b7fbb303","1","1","1","1","35.0104110241","direct","3","1","4","¿Cuántos centímetros corresponden
al talle 36 del calzado?","23","24","","0","0","1","competitive","left","2.19506716728","37.2055239677","2.80493283272","40.1820700169","3.53240895271","43.7145268917","2.46759104729","46.2194290161","47.2477169037","47.3203790188","50.3233048916","0","50.3374269009","52.4999530315",""
"sujeto_b7fbb303","1","1","2","2","52.639564991","inverse","3","1","2","¿Cuántas metros mide la Intendencia
Municipal de Montevideo? ","84","78","","0","0","1","individual","right","1.81705594063","54.4566650391","3.18294405937","57.809689045","3.96193003654","61.7716610432","2.03806996346","63.8450341225","65.7230811119","65.7628159523","68.7657809258","0","68.7807340622","70.8734819889",""
"sujeto_b7fbb303","1","1","3","3","71.0160970688","direct","1","1","3","¿Cuántas La Pasiva
 hay en uruguay?","15","11","","1","1","1","competitive","right","1.196611166","72.2128179073","3.803388834","76.186095953","3.42357993126","79.6097180843","2.57642006874","82.2375459671","83.8491930962","83.9220290184","86.9249958992","1","86.939248085","91.2175760269",""
"sujeto_b7fbb303","1","1","4","4","91.3743190765","inverse","3","1","3","¿De que color es la camiseta de uruguay?","blanca","celeste","right","1","1","1","competitive","right","0.759462118149","92.1338500977","4.24053788185","96.5310959816","3.56062293053","100.09177494","2.43937706947","102.564966917","103.76967907","103.84901309","106.850622892","1","106.866684914","110.320621014",""
"sujeto_b7fbb303","1","1","5","5","110.467993975","direct","2","1","1","¿Cuánto metros mide
la torre Eiffel?","333","324","","1","1","1","individual","right","1.37588191032","111.843944073","3.62411808968","115.624419928","3.14149188995","118.765971899","2.85850811005","121.674873114","123.196248055","123.243354082","126.246323109","1","126.260087967","133.294536114",""
"sujeto_b7fbb303","1","1","6","6","133.461270094","inverse","3","1","4","¿Cuantas ciudades existen
 en todo el uruguay?","63","72","","0","0","1","competitive","left","1.33075094223","134.792085886","3.66924905777","138.601986885","3.93696093559","142.539004087","2.06303906441","144.653964043","145.708808899","145.788222075","148.791163921","0","148.804996967","156.430562019",""
"sujeto_b7fbb303","1","1","7","7","156.572964907","direct","1","1","1","¿Cuantos estados tiene África?","52","54","","1","1","0","individual","right","2.10318493843","158.676192045","2.89681506157","161.71538806","3.68875908852","165.404187918","2.31124091148","167.764353037","169.628386974","169.664803982","172.667772055","1","172.683048964","178.44404912",""
"sujeto_b7fbb303","1","1","8","8","178.584017992","inverse","4","1","4","¿En qué año nació
 Stephen Hawking?","1952","1942","","0","0","1","competitive","left","1.60624599457","180.190324068","3.39375400543","183.743226051","3.95998001099","187.703248024","2.04001998901","189.776906013","191.221190929","191.295126915","194.298103094","0","194.312273979","200.40585804",""
"sujeto_b7fbb303","1","1","9","9","200.56358099","direct","2","1","3","¿Cuánto años tenía Artigas
 cuando se fue a Paraguay?","56","57","","1","1","1","competitive","right","0.979866981506","201.543520927","4.02013301849","205.720356941","3.26405692101","208.984456062","2.73594307899","211.771653891","213.32113409","213.406550884","216.409523964","1","216.423768044","222.471064091",""
"sujeto_b7fbb303","1","1","10","10","222.609000921","inverse","1","1","2","¿Cuantos milímetros 
mide una hoja A2?","420x592","420x594","","0","0","1","competitive","right","1.30753111839","223.916582108","3.69246888161","227.766244888","3.80227899551","231.568567038","2.19772100449","233.816229105","235.384635925","235.468524933","238.471467972","0","238.485462904","245.559115887",""
"sujeto_b7fbb303","1","1","11","11","245.703689098","direct","3","1","3","¿Cuál es la menor temperatura 
registrada en Uruguay?","-5.4","-7.4","","0","0","1","competitive","left","0.835967063904","246.539701939","4.1640329361","250.858207941","4.78747487068","255.645730972","1.21252512932","256.911025047","258.593080997","258.678991079","261.681971073","0","261.695936918","265.427797079",""
"sujeto_b7fbb303","1","1","12","12","265.614495993","inverse","2","1","2","¿Cuantos años hace que 
se fundó facebook?","18","17","","0","0","0","competitive","right","1.96125793457","267.575817108","3.03874206543","270.769552946","3.75425601006","274.523868084","2.24574398994","276.821827888","278.194595098","278.27326107","281.276237965","0","281.290378094","284.062602997",""
"sujeto_b7fbb303","1","1","13","13","284.208543062","direct","1","1","4","¿Cuál animal es más
 pesado en promedio?","Rinoceronte","Hipopotamo","","0","0","0","competitive","right","1.36431097984","285.572920084","3.63568902016","289.414241076","4.74469399452","294.158998013","1.25530600548","295.448755026","296.527956009","296.59958601","299.602607012","0","299.616652012","303.457683086",""
"sujeto_b7fbb303","1","1","14","14","303.601687908","inverse","1","1","2","¿Qué personaje de dragon ball 
murió más veces?","Chaoz","Krillin","","1","1","0","competitive","right","1.55530309677","305.15703392","3.44469690323","308.757844925","4.13013100624","312.888017893","1.86986899376","314.806406021","316.264234066","316.34115696","319.344135046","1","319.358228922","327.131159067",""
"sujeto_b7fbb303","1","1","15","15","327.276614904","direct","3","1","2","La universidad de oxford. 
existe desde:","1096","1249","","1","1","0","competitive","right","0.918536901474","328.195214987","4.08146309853","332.436508894","3.83566188812","336.272239923","2.16433811188","338.488002062","339.536813021","339.606005907","342.608987093","1","342.623138905","349.314011097",""
"sujeto_b7fbb303","1","1","16","16","349.457010984","inverse","3","1","1","¿Qué escritor latino ganó antes
 el premio nobel?"," García Marquez","Neruda","","0","0","1","competitive","left","1.74223399162","351.199287891","3.25776600838","354.614394903","3.86088895798","358.475351095","2.13911104202","360.664988995","362.404999018","362.483098984","365.486085892","0","365.500161886","368.960696936",""
"sujeto_b7fbb303","1","1","17","17","369.102068901","direct","4","1","3","¿Cuántos dientes tiene un
 tiburón blanco?","6000","3000","","0","0","1","competitive","left","1.35430407524","370.456445932","3.64569592476","374.257371902","3.10696601868","377.364376068","2.89303398132","380.308732033","381.347707987","381.42713809","384.430099964","0","384.444154024","389.253819942",""
"sujeto_b7fbb303","1","1","18","18","389.396153927","inverse","4","1","1","¿Cuánto mide el paralelo Ecuador?","40.000km","70.000km","","0","0","1","individual","right","1.86644887924","391.262676001","3.13355112076","394.567064047","3.61948204041","398.186609983","2.38051795959","400.61867094","402.574796915","402.619709015","405.622684956","0","405.637782097","409.240339041",""
"sujeto_b7fbb303","1","1","19","19","409.391879082","direct","4","1","2","¿Cuál fue el primer libro 
de Stephen King?","Carrie","The Stand","","1","1","1","individual","right","2.03878808022","411.430727959","2.96121191978","414.548305035","3.82337498665","418.371720076","2.17662501335","420.597656012","422.341730118","422.382029057","425.384991884","1","425.399214029","429.873637915",""
"sujeto_b7fbb303","1","1","20","20","430.018085957","inverse","2","1","3","¿Qué civilización practicaba
 la momificación?","Grecia","Egipto","right","0","0","1","competitive","right","0.926738977432","430.94489193","4.07326102257","435.173616886","3.29322695732","438.466888905","2.70677304268","441.20796895","443.147265911","443.225300074","446.22825098","1","446.243675947","450.472470999",""
"sujeto_b7fbb303","1","1","21","21","450.611707926","direct","4","1","4","¿Cuántos millones de visitas
 recibe google por minuto?","3.0","4.5","","0","0","1","competitive","left","1.40327501297","452.015059948","3.59672498703","455.767501116","4.00850296021","459.776046038","1.99149703979","461.801985979","463.316802979","463.403213024","466.406193018","0","466.420073986","473.542771101",""
"sujeto_b7fbb303","1","1","22","22","473.705125093","inverse","1","1","3","La máquina de fax. se inventó en:","1843","1960","","0","0","1","competitive","right","1.70798397064","475.413156986","3.29201602936","478.864202023","5.61896681786","484.483208895","0.381033182144","484.91301012","486.155102015","486.229780912","489.232769012","0","489.247021914","492.483319044",""
"sujeto_b7fbb303","1","1","23","23","492.631997108","direct","2","1","4","En la verdadera historia de los
 300 espartanos. habían:","300 soldados","4300 soldados","","1","1","1","competitive","right","2.55222201347","495.184282064","2.44777798653","497.803664923","3.67761588097","501.481319904","2.32238411903","503.841212988","505.102394104","505.175290108","508.178199053","1","508.192342997","511.994113922",""
"sujeto_b7fbb303","1","1","24","24","512.127653122","inverse","1","1","4","¿Cuántos milímetros crece
 el pelo por día?","0.4","0.04","","0","0","0","competitive","left","1.11969304085","513.247396946","3.88030695915","517.282870054","3.45655584335","520.739470959","2.54344415665","523.334146023","525.094878912","525.169034958","528.171993017","0","528.186047077","534.921130896",""
"sujeto_b7fbb303","1","1","25","25","535.07119894","direct","4","1","1","¿Cuánto mide la baldosa gris 
clásica de Montevideo?","22x22 cm.","20x20 cm.","","1","1","1","individual","right","1.79136490822","536.862610102","3.20863509178","540.24378109","3.94177794456","544.185619116","2.05822205544","546.279292107","548.274553061","548.314188957","551.314568996","1","551.331463099","556.874283075",""
"sujeto_b7fbb303","1","1","26","26","557.016851902","inverse","2","1","2","¿Cuántas películas de rápidos
 y furiosos hay?","10","11","","1","1","0","competitive","right","1.3238530159","558.340749979","3.6761469841","562.153650045","3.16305112839","565.316760063","2.83694887161","568.188251972","569.546251059","569.624078035","572.627010107","1","572.64123106","574.675908089",""
"sujeto_b7fbb303","1","1","27","27","574.808970928","direct","3","1","1","¿Cuántos masters 1000
 ganó Del Potro?","1","2","","1","1","1","individual","right","1.56079792976","576.369837046","3.43920207024","579.983016014","3.93184399605","583.914917946","2.06815600395","586.033785105","587.788372993","587.83524394","590.838212967","1","590.852431059","598.248779058",""
"sujeto_b7fbb303","1","1","28","28","598.387574911","inverse","2","1","4","¿Cuántos meses dura el 
embarazo de una leona?","3 meses","4 meses","","0","0","1","competitive","left","1.25143909454","599.639087915","3.74856090546","603.577892065","4.97208619118","608.550021887","1.02791380882","609.629772902","610.74080205","610.813482046","613.814585924","0","613.830735922","620.55054903",""
"sujeto_b7fbb303","1","1","29","29","620.682323933","direct","1","1","1","¿En qué año fue creado
 el sandwich?","1762","1653","","1","1","0","individual","right","2.07675600052","622.759120941","2.92324399948","625.854844093","2.6882750988","628.543184042","3.3117249012","631.904901028","633.503453016","633.540024042","636.543006897","1","636.557173014","640.02780509",""
"sujeto_b7fbb303","1","1","30","30","640.176145077","inverse","4","1","2","El nombre de la moneda de Vietnam es:","Dinar","Dong","","0","0","1","individual","left","2.12617707253","642.302388906","2.87382292747","645.333417892","3.15883708","648.4923141","2.84116292","651.366852999","652.798536062","652.835906029","655.838870049","0","655.85244894","662.020879984",""
"sujeto_b7fbb303","1","1","31","31","662.15468502","direct","2","1","1","¿cuantos aleteos puede dar 
un colibrí por segundo?","120","50","","0","0","0","individual","left","1.47870898247","663.633456945","3.52129101753","667.311836004","3.6036260128","670.915499926","2.3963739872","673.36233592","675.094743013","675.130343914","678.133315086","0","678.147596121","682.35986495",""
"sujeto_b7fbb303","1","1","32","32","682.499598026","inverse","4","1","3","¿Qué altura promedio tienen
 los hombres uruguayos?","1.73 m","1.72 m","","1","1","1","competitive","left","0.902969837189","683.402642012","4.09703016281","687.655229092","3.62838196754","691.283653975","2.37161803246","693.705919027","694.968347073","695.040821075","698.04380703","1","698.057816029","702.53056097",""
"sujeto_b7fbb303","1","2","1","33","837.063344955","direct","1","1","1","¿En qué año nació 
el actor Bradd Pitt?","1967","1963","","1","1","1","individual","right","2.00133895874","839.064727068","2.99866104126","842.234671116","3.00695991516","845.241667986","2.99304008484","848.285289049","849.380911112","849.420226097","852.423197985","1","852.436352968","858.363948107","702.545362949"
"sujeto_b7fbb303","1","2","2","34","858.505317926","inverse","2","1","1","¿Cual es el segundo 
monte más alto?","Kanchenjunga","K2","","1","1","1","individual","left","2.42382407188","860.929204941","2.57617592812","863.679431915","3.07343888283","866.752929926","2.92656111717","869.730855942","871.183269978","871.232894897","874.234580994","1","874.249680042","877.679577112",""
"sujeto_b7fbb303","1","2","3","35","877.8348279","direct","3","1","1","¿Cuándo finalizó la construcción
 del Palacio Legislativo?","1925","1917","","0","0","1","individual","left","1.16619610786","879.001128912","3.83380389214","883.006877899","3.58709812164","886.594036102","2.41290187836","889.058358908","890.700059891","890.742845058","893.745839119","0","893.759812117","899.457376003",""
"sujeto_b7fbb303","1","2","4","36","899.594988108","inverse","3","1","3","¿Cuántos integrantes tenía
 en su inicio  el cuarteto de nos?","3","4","","1","1","1","competitive","left","1.14515113831","900.740242004","3.85484886169","904.767090082","3.36804914474","908.135179996","2.63195085526","910.818896055","911.951997042","912.019424915","915.022367954","1","915.037211895","920.686584949",""
"sujeto_b7fbb303","1","2","5","37","920.822813988","direct","2","1","3","¿Qué valor tiene el número pi?","3.14","4.18","left","0","0","1","competitive","left","1.44345998764","922.266335011","3.55654001236","925.980225086","3.49201416969","929.472291946","2.50798583031","932.014147997","933.468363047","933.548198938","936.551151991","1","936.566402912","943.487365961",""
"sujeto_b7fbb303","1","2","6","38","943.633795977","inverse","2","1","2","¿Cuál es la esperanza de vida
 en Uruguay?","75","77","","1","1","0","competitive","right","1.99559402466","945.629432917","3.00440597534","948.792397022","3.62800693512","952.420447111","2.37199306488","954.825510025","956.479279995","956.560836077","959.563819885","1","959.578030109","966.04105711",""
"sujeto_b7fbb303","1","2","7","39","966.179850101","direct","1","1","2","¿Cuantos pisos tiene la torre 
de las comunicaciones?","26","32","","1","1","0","individual","right","2.07879018784","968.258708","2.92120981216","971.3354249","3.28617310524","974.621635914","2.71382689476","977.387578011","979.216397047","979.256026983","982.259008884","1","982.273066044","984.419276953",""
"sujeto_b7fbb303","1","2","8","40","984.558000088","inverse","2","1","4","¿En qué país sudamericano 
no hay McDonalds?","Bolivia","Venezuela","","0","0","1","competitive","right","1.06877017021","985.626832962","3.93122982979","989.727994919","4.51477193832","994.242806911","1.48522806168","995.780721903","997.090106964","997.165020943","1000.16800308","0","1000.1820941","1006.54180312",""
"sujeto_b7fbb303","1","2","9","41","1006.68403506","direct","3","1","1","¿En qué año empieza
 la Edad Media?","476","512","","1","1","1","individual","right","1.58483695984","1008.26891708","3.41516304016","1011.84168196","4.05125188828","1015.8929739","1.94874811172","1017.89206696","1019.29457402","1019.3438859","1022.34682107","1","1022.36089206","1025.34944105",""
"sujeto_b7fbb303","1","2","10","42","1025.49530602","inverse","3","1","4","¿Hace cuántos años surgió
 el ser humano?","200mil","300mil","","0","0","0","competitive","left","0.977746963501","1026.47309589","4.0222530365","1030.650774","3.91824603081","1034.56907296","2.08175396919","1036.70213795","1038.58819103","1038.66924596","1041.67222309","0","1041.68766689","1044.99812293",""
"sujeto_b7fbb303","1","2","11","43","1045.15562201","direct","3","1","4","¿Cuántas cuadras tiene
 actualmente 18 de julio? ","36","33","","0","0","1","competitive","left","1.12064695358","1046.2764039","3.87935304642","1050.31093907","4.24018502235","1054.5511601","1.75981497765","1056.36225796","1058.06448698","1058.14710999","1061.15008712","0","1061.16400695","1065.8902421",""
"sujeto_b7fbb303","1","2","12","44","1066.06496692","inverse","1","1","4","¿Qué juego de equipo se 
considera mas rápido?","Lacrosse","Badminton","","0","0","0","competitive","right","0.859310865402","1066.92432499","4.1406891346","1071.2188549","3.27439308167","1074.49330091","2.72560691833","1077.27150202","1078.51455998","1078.58938003","1081.59233499","0","1081.60661912","1089.60177803",""
"sujeto_b7fbb303","1","2","13","45","1089.77442098","direct","1","1","3","¿Qué promedio de edad 
vive una jirafa? ","25","20","","0","0","1","competitive","left","1.2085018158","1090.98299098","3.7914981842","1094.9673059","3.38025593758","1098.34762692","2.61974406242","1101.0011909","1102.76256895","1102.8368659","1105.83984303","0","1105.85399604","1111.80971193",""
"sujeto_b7fbb303","1","2","14","46","1111.95532203","inverse","1","1","2","¿Cuántos grandes lagos hay?","7","5","","0","0","1","competitive","left","1.8373208046","1113.79269004","3.1626791954","1117.1294291","3.96326994896","1121.09273791","2.03673005104","1123.164536","1124.45667505","1124.53193307","1127.53489494","0","1127.549119","1135.37054491",""
"sujeto_b7fbb303","1","2","15","47","1135.53424597","direct","3","1","2","¿Cuántos discos de estudio
 grabó Johhny Cash? ","54","43","","1","1","0","individual","left","2.58363699913","1138.11793208","2.41636300087","1140.7070241","3.59289908409","1144.29998994","2.40710091591","1146.76002192","1148.03864694","1148.07742095","1151.08040905","1","1151.09437394","1157.74522996",""
"sujeto_b7fbb303","1","2","16","48","1157.87930799","inverse","4","1","1","¿Cuántos barrios tiene
 Montevideo? ","71","62","","0","0","1","individual","right","1.45277500153","1159.3321259","3.54722499847","1163.05397391","3.91504597664","1166.96905398","2.08495402336","1169.10391402","1170.11097312","1170.15579796","1173.1587739","0","1173.17273903","1178.63459611",""
"sujeto_b7fbb303","1","2","17","49","1178.77416205","direct","3","1","3","¿Qué edad tiene Homero Simpson?","36","42","","0","0","1","competitive","right","1.78910708427","1180.56333089","3.21089291573","1183.93163896","3.33265185356","1187.26435399","2.66734814644","1189.9650321","1191.34104204","1191.41677904","1194.41858912","0","1194.43414092","1198.82289791",""
"sujeto_b7fbb303","1","2","18","50","1198.96933889","inverse","4","1","2","¿Cuántos países con monarquía 
hay en europa actualmente? ","6","10","","1","1","1","individual","left","1.33407711983","1200.30346107","3.66592288017","1204.15742302","4.12804889679","1208.28551292","1.87195110321","1210.1930089","1211.63132596","1211.67757702","1214.67855811","1","1214.69372892","1220.85052896",""
"sujeto_b7fbb303","1","2","19","51","1220.97878003","direct","2","1","3","¿Cuántos capítulos de
 Friends existen? ","236","228","","1","1","1","competitive","left","2.18990206718","1223.16874504","2.81009793282","1226.13614202","3.81049108505","1229.9467001","2.18950891495","1232.17095804","1233.47650504","1233.55525112","1236.55823898","1","1236.57210803","1238.94772506",""
"sujeto_b7fbb303","1","2","20","52","1239.0912621","inverse","1","1","3","¿Cuántas óperas compuso Mozart? ","27","22","","1","1","1","competitive","right","1.29954409599","1240.39085507","3.70045590401","1244.25913191","3.3397231102","1247.59889698","2.6602768898","1250.31173491","1251.6038959","1251.680125","1254.68310595","1","1254.69703507","1262.00851202",""
"sujeto_b7fbb303","1","2","21","53","1262.149014","direct","4","1","3","¿Cuántos mundiales de fútbol 
femenino ha realizado FIFA? ","9","7","","1","1","1","competitive","left","1.24103093147","1263.39008999","3.75896906853","1267.30814004","3.50687599182","1270.81508112","2.49312400818","1273.35914207","1274.60283208","1274.67715502","1277.68013","1","1277.69418693","1283.7910099",""
"sujeto_b7fbb303","1","2","22","54","1283.92870212","inverse","3","1","2","¿Cuál es la temperatura 
media anual en Montevideo? ","17.5","16.3","","0","0","1","competitive","right","2.11346507072","1286.04221392","2.88653492928","1289.09932709","3.21884012222","1292.31822991","2.78115987778","1295.13703299","1297.07564306","1297.15575504","1300.15859795","0","1300.17274094","1306.74224496",""
"sujeto_b7fbb303","1","2","23","55","1306.87388706","direct","2","1","2","¿En qué año se estrenó el
 videojuego The Sims? ","2000","2002","","0","0","0","individual","right","1.24900317192","1308.1229651","3.75099682808","1312.03137898","3.11799287796","1315.14943004","2.88200712204","1318.08147097","1319.94349909","1319.98315001","1322.9861331","0","1323.00025296","1330.39390707",""
"sujeto_b7fbb303","1","2","24","56","1330.53590202","inverse","2","1","1","¿Cuál es la canción con 
mas covers? ","Yesterday","Stand by me","","0","0","0","individual","right","1.840695858","1332.37666702","3.159304142","1335.69557095","4.57307100296","1340.26870298","1.42692899704","1341.74529004","1343.14382696","1343.17962098","1346.18255305","0","1346.19704294","1350.3678751",""
"sujeto_b7fbb303","1","2","25","57","1350.4978261","direct","1","1","4","¿Cuánto duró la guerra
 de los 100 años?","116","123","","0","0","0","competitive","left","1.49582505226","1351.99369097","3.50417494774","1355.64897609","3.91477012634","1359.56381607","2.08522987366","1361.68297505","1363.16381097","1363.2336781","1366.23462605","0","1366.25086594","1368.57069111",""
"sujeto_b7fbb303","1","2","26","58","1368.71921206","inverse","4","1","4","¿Qué color tiene la  bandera de Brasil?","Amarillo","Naranja","left","0","0","1","competitive","left","1.00669717789","1369.72597194","3.99330282211","1373.89712","3.74482893944","1377.64200997","2.25517106056","1379.93165112","1381.49816108","1381.58236909","1384.58535194","1","1384.59953594","1387.63229489",""
"sujeto_b7fbb303","1","2","27","59","1387.78483701","direct","4","1","3","¿Qué carabela de 
Colon no volvió del viaje?","Santa María","La pinta","","0","0","1","competitive","right","1.54028987885","1389.32517195","3.45971012115","1392.95760798","4.79051709175","1397.7481811","1.20948290825","1398.99195504","1400.48299408","1400.55911112","1403.56202698","0","1403.57603502","1405.6754601",""
"sujeto_b7fbb303","1","2","28","60","1405.81114697","inverse","4","1","4","¿Cuántos huesos tiene
 un adulto humano?","217","206","","0","0","1","competitive","right","0.390134811401","1406.20134997","4.6098651886","1410.96297693","3.3293030262","1414.29233789","2.6706969738","1416.99944091","1418.27048397","1418.35081291","1421.35380697","0","1421.36805797","1429.20575309",""
"sujeto_b7fbb303","1","2","29","61","1429.35302997","direct","1","1","1","¿Qué país africano fue 
fundado por esclavos?","Liberia","Chad","","0","0","0","competitive","right","1.76194906235","1431.11504507","3.23805093765","1434.51283002","4.47266793251","1438.98555899","1.52733206749","1440.56378198","1442.55542397","1442.63071394","1445.63368797","0","1445.64835501","1453.63920808",""
"sujeto_b7fbb303","1","2","30","62","1453.76686502","inverse","4","1","2","¿A cuánto asciende la cima
 del monte Everest?","7.990 mts","8.848 mts","","0","0","1","individual","right","1.31879401207","1455.08575797","3.68120598793","1458.95785689","3.91377902031","1462.871701","2.08622097969","1465.00864506","1466.19348812","1466.24353695","1469.24650908","0","1469.2607491","1476.44477701",""
"sujeto_b7fbb303","1","2","31","63","1476.5954771","direct","4","1","1","¿Cuál es el país mas chico?","Sealand","Luxemburgo","","1","1","1","competitive","right","1.29234814644","1477.88786697","3.70765185356","1481.75381398","3.11201000214","1484.86588192","2.88798999786","1487.80373597","1489.66726089","1489.73906302","1492.74205589","1","1492.75628209","1495.87857699",""
"sujeto_b7fbb303","1","2","32","64","1496.00768709","inverse","2","1","4","¿Cuántas pirámides hay en Egipto?","10000","11000","","1","1","1","competitive","right","1.23533201218","1497.243119","3.76466798782","1501.17754292","3.93548607826","1505.11307096","2.06451392174","1507.23066902","1508.26427007","1508.34816504","1511.35058093","1","1511.36550093","1516.47459412",""
"sujeto_b7fbb303","1","3","1","65","1627.66269302","direct","2","1","2","¿Cuál es el quinto país con 
mas extensión?","Canadá","Brasil","","1","1","0","competitive","right","2.7593858242","1630.42212701","2.2406141758","1632.83056402","4.40663790703","1637.23726511","1.59336209297","1638.88442993","1640.21773005","1640.30139589","1643.30438089","1","1643.31867099","1651.04507208","1516.49359608"
"sujeto_b7fbb303","1","3","2","66","1651.18704295","inverse","1","1","2","¿Qué rasgo facial no tiene
 la Mona Lisa?","Cejas","Pómulos","","0","0","1","competitive","left","1.54425597191","1652.73136806","3.45574402809","1656.32771611","5.37864208221","1661.70640206","0.621357917786","1662.3634789","1664.1138761","1664.19604611","1667.19664407","0","1667.21375489","1673.48508811",""
"sujeto_b7fbb303","1","3","3","67","1673.61561894","direct","4","1","3","¿Cuál es el país con 
mayor población?","Esados Unidos","China","right","0","0","1","competitive","right","1.25693488121","1674.87260008","3.74306511879","1678.79013205","3.45643401146","1682.2466259","2.54356598854","1684.84112406","1686.48713589","1686.57562399","1689.57862091","1","1689.59273005","1692.96006393",""
"sujeto_b7fbb303","1","3","4","68","1693.12738299","inverse","1","1","1","La palabra dinosaurio significa","Lagarto Terrible","Lagarto Dragón","","1","1","0","individual","right","1.22333502769","1694.35077405","3.77666497231","1698.28168011","4.92097306252","1703.20270991","1.07902693748","1704.33498693","1705.50530005","1705.55179405","1708.55474901","1","1708.5686059","1711.43042612",""
"sujeto_b7fbb303","1","3","5","69","1711.5712831","direct","2","1","3","¿Qué es el membrillero?","Arbol","Arbusto","","0","0","0","competitive","right","1.2244989872","1712.795856","3.7755010128","1716.74312401","3.10972690582","1719.85289097","2.89027309418","1722.77685499","1724.73097396","1724.81215","1727.815135","0","1727.82926106","1734.29063201",""
"sujeto_b7fbb303","1","3","6","70","1734.43112993","inverse","3","1","3","¿Alrededor de qué planeta orbita 
el satélite Europa?","Jupiter","Saturno","","1","1","1","competitive","right","0.885864973068","1735.3170929","4.11413502693","1739.5879941","4.34107398987","1743.92912698","1.65892601013","1745.62291312","1747.16771793","1747.24067712","1750.24367499","1","1750.25799012","1752.46311808",""
"sujeto_b7fbb303","1","3","7","71","1752.60973096","direct","3","1","1","¿Donde fue el mundial de 
fútbol de 1954?","Suiza","Suecia","","1","1","1","individual","left","1.70841288567","1754.31818604","3.29158711433","1757.76512909","2.39299511909","1760.15817904","3.60700488091","1763.81511807","1765.06775904","1765.11644101","1768.11938","1","1768.13353992","1772.04527402",""
"sujeto_b7fbb303","1","3","8","72","1772.18572402","inverse","1","1","4","¿Cuál de los 7 enanitos
no tenía barba?","Bashful","Mudito","","1","1","0","competitive","right","1.50755000114","1773.69333696","3.49244999886","1777.3248291","4.02454614639","1781.349437","1.97545385361","1783.35583496","1784.93598294","1785.00675893","1788.00972104","1","1788.02392101","1792.95301294",""
"sujeto_b7fbb303","1","3","9","73","1793.07558393","direct","3","1","2","¿Cual red social es
mas utilizada mundialmente?","Instagram","Facebook","","1","1","0","individual","left","1.70491909981","1794.78054905","3.29508090019","1798.21956301","3.90195298195","1802.12157512","2.09804701805","1804.27009511","1806.18651009","1806.23746204","1809.23857689","1","1809.25491095","1812.18942809",""
"sujeto_b7fbb303","1","3","10","74","1812.34026504","inverse","4","1","1","¿Cuándo se inició la copa
 América de fútbol?","1916","1923","","1","1","1","individual","right","1.08237195015","1813.42273498","3.91762804985","1817.511796","3.5519528389","1821.06378889","2.4480471611","1823.56344891","1825.460917","1825.51398897","1828.51455307","1","1828.53231907","1831.18656206",""
"sujeto_b7fbb303","1","3","11","75","1831.33348489","direct","3","1","4","¿Cuántos presidentes de EEUU
han muerto asesinados?","3","4","","0","0","1","individual","right","0.852364063263","1832.18589401","4.14763593674","1836.50269604","3.35218906403","1839.85492802","2.64781093597","1842.55448508","1844.03840208","1844.089252","1847.09060311","0","1847.10719609","1850.75125289",""
"sujeto_b7fbb303","1","3","12","76","1850.89246106","inverse","2","1","4","¿Cuántas veces participó EEUU
 en la copa América?","4","5","","0","0","1","competitive","left","1.05161499977","1851.94412303","3.94838500023","1856.06592989","3.90812206268","1859.97411299","2.09187793732","1862.10035896","1863.54446793","1863.61761904","1866.62059808","0","1866.63483191","1872.75055194",""
"sujeto_b7fbb303","1","3","13","77","1872.903018","direct","4","1","1","¿Cuál de estos países 
no formaba la URSS?","Azeribayán","Afganistán","","0","0","1","individual","left","1.78421592712","1874.68730998","3.21578407288","1878.07776594","3.3074669838","1881.38527298","2.6925330162","1884.14467597","1885.45773411","1885.49591398","1888.49858689","0","1888.512815","1896.49495196",""
"sujeto_b7fbb303","1","3","14","78","1896.63119793","inverse","1","1","1","¿En qué año se inauguró
 el teatro Solís?","1867","1856","","0","0","0","competitive","left","1.61716890335","1898.24840999","3.38283109665","1901.79021192","3.91121196747","1905.70147204","2.08878803253","1907.84088206","1908.89710307","1908.97539496","1911.97829199","0","1911.99254012","1918.63850498",""
"sujeto_b7fbb303","1","3","15","79","1918.79442501","direct","1","1","4","¿A qué velocidad vuela 
el avión más rápido?","3529","3874","","0","0","0","competitive","right","1.40559101105","1920.20008707","3.59440898895","1923.99972606","3.98287916183","1927.98267603","2.01712083817","1930.05190611","1931.80650711","1931.88617492","1934.88914609","0","1934.90373302","1937.01394391",""
"sujeto_b7fbb303","1","3","16","80","1937.18899894","inverse","3","1","4","¿De qué año es la primer 
película cinematográfica?","1897","1888","","0","0","0","competitive","right","1.13966703415","1938.32874203","3.86033296585","1942.39419603","3.65055012703","1946.04478693","2.34944987297","1948.44501305","1949.57801294","1949.66259098","1952.66554499","0","1952.67972708","1958.0895021",""
"sujeto_b7fbb303","1","3","17","81","1958.21501994","direct","2","1","3","¿Cuántos países 
tiene nuestro planeta?","191","194","","1","1","1","competitive","right","1.22885894775","1959.44395089","3.77114105225","1963.40508103","3.18884801865","1966.59399605","2.81115198135","1969.45608997","1970.81328511","1970.8902669","1973.89058709","1","1973.90779996","1977.14610696",""
"sujeto_b7fbb303","1","3","18","82","1977.275805","inverse","2","1","2","¿Cuántos habitantes
 tiene Buenos Aires?","2.9000.000","3650000","","0","0","0","competitive","left","1.10715103149","1978.3830049","3.89284896851","1982.44670796","3.40730786324","1985.85405993","2.59269213676","1988.49879098","1989.89602804","1989.96713209","1992.97011089","0","1992.98414111","1998.81058502",""
"sujeto_b7fbb303","1","3","19","83","1998.95231199","direct","2","1","1","¿Cuántos kilos forman una tonelada?","1000","1500","left","1","1","1","individual","left","1.28948092461","2000.24184895","3.71051907539","2004.10938597","2.86181497574","2006.97124004","3.13818502426","2010.14335203","2012.03071094","2012.08064008","2015.08259392","1","2015.09568","2021.05307794",""
"sujeto_b7fbb303","1","3","20","84","2021.23062491","inverse","4","1","4","¿Cuántos estados tiene la 
República del Perú? ","24","23","","0","0","1","competitive","right","1.01378202438","2022.24453092","3.98621797562","2026.42103291","2.87237596512","2029.29346895","3.12762403488","2032.47248411","2033.49468589","2033.57316709","2036.57616591","0","2036.59066606","2041.53596902",""
"sujeto_b7fbb303","1","3","21","85","2041.70821309","direct","3","1","3","¿En qué año nació Cristóbal Colón? ","1451","1447","","0","0","1","competitive","right","1.2303340435","2042.9385941","3.7696659565","2046.88172007","3.58478283882","2050.46656299","2.41521716118","2052.93315506","2054.77906704","2054.86714697","2057.87012291","0","2057.88517308","2062.11316991",""
"sujeto_b7fbb303","1","3","22","86","2062.2539351","inverse","4","1","4","¿Cuánto mide la 
Montaña Aconcagua? ","6234","6962","","0","0","1","competitive","left","0.785738945007","2063.039747","4.21426105499","2067.4413321","2.82334017754","2070.26471305","3.17665982246","2073.49337792","2074.78253293","2074.86149502","2077.86451197","0","2077.87846708","2085.06211305",""
"sujeto_b7fbb303","1","3","23","87","2085.19693995","direct","2","1","4","¿Cuánto mide el punto
 más profundo del océano? ","12508","11003","","0","0","1","competitive","left","1.00200200081","2086.19900894","3.99799799919","2090.3856411","0.2292740345","2090.61495495","5.7707259655","2096.4360249","2097.68753791","2097.77251601","2100.77550507","0","2100.78975296","2104.99602008",""
"sujeto_b7fbb303","1","3","24","88","2105.15796804","inverse","1","1","3","¿Cuántos álbumes ha publicado 
el cantante Jaime Roos? ","41","34","","0","0","1","competitive","right","1.14012813568","2106.29816604","3.85987186432","2110.31489396","3.67021393776","2113.98516798","2.32978606224","2116.36641192","2117.85622597","2117.934412","2120.93460894","0","2120.95078993","2127.14700794",""
"sujeto_b7fbb303","1","3","25","89","2127.28654003","direct","4","1","3","¿En qué año nació el 
ex-presidente Jorge Battle? ","1921","1927","","1","1","1","competitive","right","1.01964402199","2128.30625296","3.98035597801","2132.46020103","3.91405177116","2136.37431312","2.08594822884","2138.51071191","2140.24140191","2140.32964396","2143.33262205","1","2143.34677005","2146.832829",""
"sujeto_b7fbb303","1","3","26","90","2146.98124909","inverse","1","1","3","¿Cuántas presidencias 
constitucionales  hubo en Uruguay? ","41","42","","0","0","1","competitive","left","0.96716594696","2147.94846606","4.03283405304","2152.1524241","3.58794999123","2155.740412","2.41205000877","2158.20408201","2159.40783","2159.48922396","2162.49222708","0","2162.50574112","2168.28937912",""
"sujeto_b7fbb303","1","3","27","91","2168.42411089","direct","1","1","2","¿Quién escribió mas sinfonías?","Mozart","Haydn","","1","1","0","competitive","right","2.18449211121","2170.60864592","2.81550788879","2173.58039308","4.3181951046","2177.89865208","1.6818048954","2179.6335659","2180.85105991","2180.93433309","2183.937325","1","2183.95168591","2187.70258307",""
"sujeto_b7fbb303","1","3","28","92","2187.86977506","inverse","4","1","2","¿En qué año nació Michael Jackson?","1958","1953","","1","1","1","individual","right","1.22395014763","2189.09379411","3.77604985237","2193.05887389","3.04290890694","2196.10184312","2.95709109306","2199.091995","2201.07024002","2201.11035705","2204.11332107","1","2204.12861109","2209.99093008",""
"sujeto_b7fbb303","1","3","29","93","2210.16262603","direct","3","1","2","¿En qué año entró en vigencia 
la ley antitabaco en Uruguay?","2005","2006","","1","1","1","individual","right","1.0912759304","2211.25394702","3.9087240696","2215.32003307","3.61292505264","2218.93302011","2.38707494736","2221.37118196","2222.96592498","2223.00556612","2226.00854492","1","2226.02252293","2231.3565321",""
"sujeto_b7fbb303","1","3","30","94","2231.50743794","inverse","3","1","1","¿Cuándo se subió el 
primer video a youtube?","2004","2005","","0","0","1","individual","right","1.5035879612","2233.01109004","3.4964120388","2236.66451597","4.03257703781","2240.69713402","1.96742296219","2242.71398211","2244.0196569","2244.08192205","2247.08491397","0","2247.09992099","2254.85552001",""
"sujeto_b7fbb303","1","3","31","95","2255.00135303","direct","2","1","1","¿Cuántos habitantes tiene India?","1200 millones","1300 millones","","0","0","0","individual","right","1.73186993599","2256.73328805","3.26813006401","2260.17750812","3.04372406006","2263.22127008","2.95627593994","2266.22385406","2268.19343591","2268.24264407","2271.245574","0","2271.25984192","2277.30656695",""
"sujeto_b7fbb303","1","3","32","96","2277.4611721","inverse","4","1","2","¿A qué edad murió Bob Marley?","36","37","","0","0","1","individual","left","1.37420511246","2278.83544302","3.62579488754","2282.62254","3.65692687035","2286.27950597","2.34307312965","2288.67315793","2290.57103205","2290.60766411","2293.61065412","0","2293.62540603","2296.72787809",""
"sujeto_b7fbb303","1","4","1","97","2423.09488797","direct","2","1","1","¿Cuantos años dirigió la selección 
uruguaya Tabarez?","15 años","13 años","","0","0","0","individual","left","2.01974391937","2425.11469698","2.98025608063","2428.26359105","3.98508310318","2432.24873304","2.01491689682","2434.31615996","2435.50731301","2435.55039001","2438.55056405","0","2438.56738305","2445.63942194","2296.742414"
"sujeto_b7fbb303","1","4","2","98","2445.78536391","inverse","4","1","1","¿Cuantas teclas tiene un teclado 
de computadora generalmente? ","Entre 99 y 108","Entre 109 y 113","","1","1","1","individual","left","1.20841598511","2446.99382806","3.79158401489","2450.9432559","4.40459108353","2455.34789109","1.59540891647","2456.99471498","2457.99749303","2458.04556012","2461.04851699","1","2461.06287098","2463.43431401",""
"sujeto_b7fbb303","1","4","3","99","2463.56428504","direct","1","1","1","¿Cuál Departamento tiene
 mayor superficie?","Río Negro","Soriano","","0","0","0","competitive","left","1.82067012787","2465.38502192","3.17932987213","2468.75270104","3.53228116035","2472.2850461","2.46771883965","2474.803581","2476.51704597","2476.58775997","2479.59073591","0","2479.60569811","2483.93182611",""
"sujeto_b7fbb303","1","4","4","100","2484.09067011","inverse","3","1","2","¿Cuál es el apellido de las 
hermanastras  de  cenicienta?","Tremaine","Truman","","0","0","1","competitive","right","2.0504181385","2486.14113212","2.9495818615","2489.24929404","3.90281820297","2493.15215206","2.09718179703","2495.29706693","2497.16661191","2497.24811602","2500.25060391","0","2500.26580405","2502.96174002",""
"sujeto_b7fbb303","1","4","5","101","2503.13407302","direct","4","1","4","¿Cuál película ganó un
 Oscar a mejor película?","Alto Impacto","Cache","","0","0","1","competitive","left","1.21020197868","2504.34435296","3.78979802132","2508.32344198","4.20885586739","2512.5323391","1.79114413261","2514.37457991","2515.49393511","2515.57548904","2518.57843208","0","2518.59263802","2520.85722995",""
"sujeto_b7fbb303","1","4","6","102","2520.994385","inverse","1","1","3","¿A cuántos centímetros
equivale la medida pié?","25","30","","0","0","1","competitive","left","1.01204586029","2522.00650406","3.98795413971","2526.14918709","3.8092520237","2529.95850205","2.1907479763","2532.18363905","2533.22360706","2533.30082297","2536.30376291","0","2536.31822705","2541.71855092",""
"sujeto_b7fbb303","1","4","7","103","2541.86939907","direct","2","1","2","¿Qué departamento es mas grande?","Cerro Largo","Paysandú","","0","0","0","competitive","left","1.38819313049","2543.257658","3.61180686951","2547.02689099","3.77166390419","2550.79861403","2.22833609581","2553.07561398","2554.67452097","2554.74353695","2557.74651098","0","2557.76071095","2561.87053108",""
"sujeto_b7fbb303","1","4","8","104","2562.01258492","inverse","2","1","3","¿Quién pintó la Mona Lisa?","Picasso","Da Vinci","right","0","0","1","competitive","right","1.00816488266","2563.02082992","3.99183511734","2567.17071605","4.28007817268","2571.45085406","1.71992182732","2573.22198701","2574.82657003","2574.90549898","2577.90848899","1","2577.92362189","2580.08591294",""
"sujeto_b7fbb303","1","4","9","105","2580.2257061","direct","4","1","3","¿Cuántos litros hay en un galon?","3.54","3.78","","1","1","1","competitive","right","1.45116305351","2581.67694092","3.54883694649","2585.39697194","3.75895500183","2589.15597105","2.24104499817","2591.4305501","2592.94840908","2593.03223491","2596.03455305","1","2596.04971194","2601.84206295",""
"sujeto_b7fbb303","1","4","10","106","2601.98480701","inverse","4","1","1","¿Cuántas teclas tiene
 un piano moderno?","80","88","","0","0","1","individual","left","1.12021398544","2603.10507298","3.87978601456","2607.14184189","3.26428413391","2610.40618706","2.73571586609","2613.17577696","2614.18426609","2614.22670412","2617.22965789","0","2617.24419498","2624.0419879",""
"sujeto_b7fbb303","1","4","11","107","2624.17921901","direct","4","1","3","¿Cuántos países hay en África?","54","62","","0","0","1","competitive","left","1.29303097725","2625.47235203","3.70696902275","2629.36732101","3.3009698391","2632.66835308","2.6990301609","2635.4186101","2637.10914707","2637.18759704","2640.19055796","0","2640.20472407","2648.00654602",""
"sujeto_b7fbb303","1","4","12","108","2648.15639091","inverse","1","1","3","¿En qué siglo se crearon
 las primeras pistolas?","XV","XIII","","1","1","1","competitive","left","1.2490439415","2649.40550995","3.7509560585","2653.3317771","4.27574515343","2657.60756302","1.72425484657","2659.36701393","2661.3145771","2661.38411093","2664.38655305","1","2664.40172696","2667.63234711",""
"sujeto_b7fbb303","1","4","13","109","2667.76971889","direct","3","1","4","¿En qué año se estrenó 
la serie friends?","1994","1995","","0","0","1","competitive","left","0.911821126938","2668.68160391","4.08817887306","2672.92558002","3.77802395821","2676.70364189","2.22197604179","2678.96014309","2680.83548093","2680.91144991","2683.91447711","0","2683.92865896","2688.93467402",""
"sujeto_b7fbb303","1","4","14","110","2689.08032393","inverse","3","1","4","¿En qué año nació Hitler?","1889","1887","","0","0","1","competitive","right","0.834455013275","2689.91485596","4.16554498672","2694.27036095","3.57149195671","2697.84189796","2.42850804329","2700.32158589","2701.43593812","2701.52270389","2704.52567196","0","2704.53953195","2709.56652689",""
"sujeto_b7fbb303","1","4","15","111","2709.7406559","direct","1","1","4","¿Cuánto pesa un elefante Africano?","6000 kilos","5400 kilos","","0","0","0","competitive","right","0.915285825729","2710.65599489","4.08471417427","2714.89495301","3.53902196884","2718.43401408","2.46097803116","2720.94743395","2722.30258012","2722.38180494","2725.38259506","0","2725.39895391","2732.10599995",""
"sujeto_b7fbb303","1","4","16","112","2732.25086594","inverse","1","1","2","¿Qué porcentaje de 
la población es zurda?","10%","7%","","1","1","0","competitive","left","1.42623901367","2733.67716789","3.57376098633","2737.42694807","4.03820109367","2741.46518898","1.96179890633","2743.47747397","2744.72057605","2744.79506302","2747.79802895","1","2747.81226707","2753.79201603",""
"sujeto_b7fbb303","1","4","17","113","2753.930161","direct","1","1","2","¿En qué año se estrenó
Volver al futuro?","1984","1985","","0","0","1","individual","left","1.64405894279","2755.57426405","3.35594105721","2759.12133002","2.59399580956","2761.71536398","3.40600419044","2765.1541059","2766.71458697","2766.75675702","2769.75972009","0","2769.77395391","2776.86538506",""
"sujeto_b7fbb303","1","4","18","114","2777.00863695","inverse","3","1","2","¿Cuántos jugadores hay en un 
equipo de baseball?","9","8","","1","1","0","competitive","left","1.83185696602","2778.84054208","3.16814303398","2782.183604","3.86589789391","2786.04955912","2.13410210609","2788.23432803","2789.84861708","2789.93524289","2792.9382031","1","2792.953197","2797.9304111",""
"sujeto_b7fbb303","1","4","19","115","2798.07053709","direct","2","1","1","¿Cuántos Oscar ganó
 la película titanic?","13","11","","1","1","1","individual","right","1.58115196228","2799.65176201","3.41884803772","2803.22751212","4.26923489571","2807.49678898","1.73076510429","2809.27835798","2810.580446","2810.62901497","2813.63197589","1","2813.64640403","2818.24903512",""
"sujeto_b7fbb303","1","4","20","116","2818.40073204","inverse","4","1","4","¿En qué año comenzó
la segunda guerra mundial?","1939","1976","left","0","0","1","competitive","right","1.12514209747","2819.52592301","3.87485790253","2823.5540719","4.25382590294","2827.80793691","1.74617409706","2829.60550189","2831.40535903","2831.48987103","2834.4927969","0","2834.50700498","2838.49411297",""
"sujeto_b7fbb303","1","4","21","117","2838.64242911","direct","2","1","4","¿Cuántos biomas hay en Uruguay?","5","4","","0","0","1","competitive","right","0.924571037292","2839.56706691","4.07542896271","2843.798522","4.24040389061","2848.03898001","1.75959610939","2849.83312201","2851.63049102","2851.70022202","2854.70315194","0","2854.71836305","2860.96657109",""
"sujeto_b7fbb303","1","4","22","118","2861.10240197","inverse","2","1","3","¿Cuándo murió Pablo Escobar?","1993","1997","","1","1","1","competitive","left","1.06275892258","2862.16523194","3.93724107742","2866.27723908","4.20590114594","2870.48319697","1.79409885406","2872.32856607","2874.11141491","2874.19555807","2877.19852996","1","2877.21349311","2882.91712499",""
"sujeto_b7fbb303","1","4","23","119","2883.0665009","direct","1","1","4","¿Qué serie ha ganado mas premios?","Friends","Murphy Brown","","1","1","0","competitive","left","1.54981994629","2884.61638689","3.45018005371","2888.22204089","3.64437103271","2891.86650109","2.35562896729","2894.25533891","2895.60770988","2895.6903441","2898.69056511","1","2898.70676112","2904.268327",""
"sujeto_b7fbb303","1","4","24","120","2904.40835595","inverse","4","1","2","¿Cuántas fichas tiene el dominó?","26","28","","1","1","1","competitive","right","0.992215871811","2905.4006381","4.00778412819","2909.56557989","3.17699193954","2912.74263191","2.82300806046","2915.60030794","2916.6555841","2916.73520303","2919.73820806","1","2919.75232911","2924.99546003",""
"sujeto_b7fbb303","1","4","25","121","2925.13684106","direct","2","1","4","¿Cuántos son los dientes de leche?","20","25","","0","0","1","competitive","left","1.04756402969","2926.1844759","3.95243597031","2930.29432297","3.80441999435","2934.0988059","2.19558000565","2936.34517598","2938.05456996","2938.12945104","2941.1305809","0","2941.14640903","2943.29059505",""
"sujeto_b7fbb303","1","4","26","122","2943.44774103","inverse","3","1","3","¿Cuántos gramos son una onza?","22","28","","0","0","1","competitive","right","1.17811322212","2944.62592196","3.82188677788","2948.60288906","3.33101606369","2951.93394589","2.66898393631","2954.63750005","2956.63235903","2956.70535207","2959.70661092","0","2959.72253108","2966.01277494",""
"sujeto_b7fbb303","1","4","27","123","2966.15748906","direct","3","1","1","¿Cuándo salió el primer album
 de los Beatles?","1963","1962","","1","1","1","individual","right","2.02056097984","2968.17809892","2.97943902016","2971.31309104","3.5089302063","2974.82206202","2.4910697937","2977.36603093","2978.52963996","2978.56773806","2981.57071996","1","2981.58456802","2985.35659909",""
"sujeto_b7fbb303","1","4","28","124","2985.53590298","inverse","3","1","3","¿Quién fundó la empresa apple?","Carlos Slim","Steve Jobs","","1","1","1","competitive","right","0.934242010117","2986.47020912","4.06575798988","2990.70827198","3.65290498734","2994.36124206","2.34709501266","2996.75947905","2997.87415195","2997.94406009","3000.94704509","1","3000.96131396","3007.25911498",""
"sujeto_b7fbb303","1","4","29","125","3007.39557099","direct","4","1","2","¿Cuántos municipios hay
 en Montevideo?","8","7","","1","1","1","individual","right","1.1337389946","3008.52938199","3.8662610054","3012.57002592","4.49131798744","3017.06140494","1.50868201256","3018.60512209","3020.518538","3020.55503798","3023.55800295","1","3023.57276797","3025.65391612",""
"sujeto_b7fbb303","1","4","30","126","3025.80829406","inverse","1","1","1","¿Cuántos kilómetros hay
 de Montevideo a Artigas?","632","599","","0","0","0","competitive","left","1.94931411743","3027.75766492","3.05068588257","3030.97944212","3.69004607201","3034.66952801","2.30995392799","3037.03148007","3038.51460004","3038.59893489","3041.60191703","0","3041.61550999","3047.6676259",""
"sujeto_b7fbb303","1","4","31","127","3047.8173449","direct","2","1","2","¿En qué año nació 
Leonardo Da Vinci?","1452","1511","","1","1","0","competitive","right","1.16927790642","3048.98666811","3.83072209358","3052.99091411","3.36372709274","3056.3547039","2.63627290726","3059.02458405","3060.87819195","3060.95953393","3063.96252394","1","3063.9777441","3067.12416792",""
"sujeto_b7fbb303","1","4","32","128","3067.26210904","inverse","3","1","1","¿A qué continente
 pertenece el país Gabón?","Africa","Oceanía","","0","0","1","individual","left","1.15268015862","3068.41483402","3.84731984138","3072.45170689","2.42013096809","3074.87189698","3.57986903191","3078.50186992","3080.31353807","3080.3537209","3083.35669303","0","3083.37095189","3088.60883212",""
