"code","nro_aplicante","nro_bloque","nro_trial_bloque","nro_trial_global","show_game_type","choice_order","rival","pay_individual","pay_competitive","question","answer_left_text","answer_right_text","correct_answer","outcome_individual","outcome_competitive","outcome_rival","game_type","answer","social_time","rt_game_type","feedback_delay","show_question","answer_time","rt_answer_global","feedback_delay_2","show_jitter","jitter_time","show_outcome","outcome_time","outcome_participant_real","show_final_jitter","second_jitter_time","inicio_descanso"
"sujeto_2c6c72ad","1","1","1","1","648.329449892","direct","3","1","4","¿Cuántos centímetros corresponden
al talle 36 del calzado?","23","24","","0","0","1","competitive","right","1.53784704208","649.867357969","3.46215295792","653.499927998","4.05745911598","657.557461977","1.94254088402","659.550767899","660.579066038","660.652503014","663.655478954","0","663.669589043","665.832123041",""
"sujeto_2c6c72ad","1","1","2","2","665.970499992","inverse","3","1","2","¿Cuántas metros mide la Intendencia
Municipal de Montevideo? ","84","78","","0","0","1","competitive","left","1.57286787033","667.543422937","3.42713212967","671.109930992","3.41848301888","674.528492928","2.58151698112","677.157180071","679.035187006","679.125860929","682.128840923","0","682.143914938","684.236685991",""
"sujeto_2c6c72ad","1","1","3","3","684.378751993","direct","1","1","3","¿Cuántas La Pasiva
 hay en uruguay?","15","11","","1","1","1","competitive","left","2.15261697769","686.531413078","2.84738302231","689.567130089","4.21022605896","693.777417898","1.78977394104","695.603698969","697.215334892","697.287734985","700.288585901","1","700.305623055","704.580574036",""
"sujeto_2c6c72ad","1","1","4","4","704.707062006","inverse","3","1","3","¿De que color es la camiseta de uruguay?","blanca","celeste","right","1","1","1","competitive","right","1.5823059082","706.289432049","3.4176940918","709.863524914","2.47383189201","712.337419987","3.52616810799","715.913295031","717.118091106","717.197546005","720.200509071","1","720.215454102","723.66861701",""
"sujeto_2c6c72ad","1","1","5","5","723.799947023","direct","2","1","1","¿Cuánto metros mide
la torre Eiffel?","333","324","","1","1","1","competitive","right","1.08647179604","724.886493921","3.91352820396","728.953830004","3.07962083817","732.033494949","2.92037916183","734.989135981","736.510524988","736.590903044","739.593887091","1","739.607897997","746.644608021",""
"sujeto_2c6c72ad","1","1","6","6","746.775645971","inverse","3","1","4","¿Cuantas ciudades existen
 en todo el uruguay?","63","72","","0","0","1","competitive","right","1.16375088692","747.939439058","3.83624911308","751.933563948","4.04782104492","755.981426954","1.95217895508","757.985385895","759.040175915","759.11899209","762.121963978","0","762.136123896","769.760602951",""
"sujeto_2c6c72ad","1","1","7","7","769.887313128","direct","1","1","1","¿Cuantos estados tiene África?","52","54","","1","1","0","competitive","right","2.251060009","772.138416052","2.748939991","775.06250906","3.96585202217","779.028423071","2.03414797783","781.097347021","782.96134901","783.032350063","786.035298109","1","786.049423933","791.808605909",""
"sujeto_2c6c72ad","1","1","8","8","791.951025009","inverse","4","1","4","¿En qué año nació
 Stephen Hawking?","1952","1942","","0","0","1","competitive","right","1.77336788177","793.724421978","3.22663211823","797.108031034","2.33631682396","799.444386959","3.66368317604","803.157382965","804.601686001","804.6766119","807.679573059","0","807.69271493","813.792056084",""
"sujeto_2c6c72ad","1","1","9","9","813.928524971","direct","2","1","3","¿Cuánto años tenía Artigas
 cuando se fue a Paraguay?","56","57","","1","1","1","competitive","left","1.3018579483","815.230454922","3.6981420517","819.084845066","3.96752715111","823.052412033","2.03247284889","825.13597393","826.684597015","826.770334005","829.773299932","1","829.788197994","835.832597971",""
"sujeto_2c6c72ad","1","1","10","10","836.005908966","inverse","1","1","2","¿Cuantos milímetros 
mide una hoja A2?","420x592","420x594","","0","0","1","competitive","left","1.45850491524","837.464497089","3.54149508476","841.147233009","4.42813587189","845.575408936","1.57186412811","847.195630074","848.764065027","848.846884966","851.849882126","0","851.863948107","858.937578917",""
"sujeto_2c6c72ad","1","1","11","11","859.066216946","direct","3","1","3","¿Cuál es la menor temperatura 
registrada en Uruguay?","-5.4","-7.4","","0","0","1","competitive","left","1.38320398331","860.44946599","3.61679601669","864.22477603","4.34361982346","868.568437099","1.65638017654","870.259761095","871.941807032","872.010353088","875.012573957","0","875.027683973","878.760988951",""
"sujeto_2c6c72ad","1","1","12","12","878.895812988","inverse","2","1","2","¿Cuantos años hace que 
se fundó facebook?","18","17","","0","0","0","competitive","left","1.70056390762","880.596440077","3.29943609238","884.052405119","4.49793601036","888.550401926","1.50206398964","890.102921963","891.475654125","891.553873062","894.556845903","0","894.572057962","897.346697092",""
"sujeto_2c6c72ad","1","1","13","13","897.489808083","direct","1","1","4","¿Cuál animal es más
 pesado en promedio?","Rinoceronte","Hipopotamo","","0","0","0","competitive","right","2.08361101151","899.57348609","2.91638898849","902.69354105","3.74889802933","906.442481041","2.25110197067","908.745651007","909.824892998","909.897526026","912.900515079","0","912.914479017","916.755484104",""
"sujeto_2c6c72ad","1","1","14","14","916.882034063","inverse","1","1","2","¿Qué personaje de dragon ball 
murió más veces?","Chaoz","Krillin","","1","1","0","competitive","right","1.31435513496","918.196435928","3.68564486504","922.038585901","3.7638399601","925.802470922","2.2361600399","928.088505983","929.546312094","929.623538971","932.626523018","1","932.640722036","940.408639908",""
"sujeto_2c6c72ad","1","1","15","15","940.542171001","direct","3","1","2","La universidad de oxford. 
existe desde:","1096","1249","","1","1","0","competitive","right","0.964244842529","941.506469965","4.03575515747","945.700541973","3.45487499237","949.155482054","2.54512500763","951.750999928","952.799818039","952.868808031","955.871786118","1","955.885988951","962.576846123",""
"sujeto_2c6c72ad","1","1","16","16","962.704353094","inverse","3","1","1","¿Qué escritor latino ganó antes
 el premio nobel?"," García Marquez","Neruda","","0","0","1","competitive","left","1.86905002594","964.573444128","3.13094997406","967.895752907","3.94562911987","971.841423035","2.05437088013","973.94619298","975.686157942","975.763984919","978.766971111","0","978.781119108","982.241641998",""
"sujeto_2c6c72ad","1","1","17","17","982.399650097","direct","4","1","3","¿Cuántos dientes tiene un
 tiburón blanco?","6000","3000","","0","0","1","competitive","left","1.71775698662","984.117471933","3.28224301338","987.57291007","3.30951619148","990.882467031","2.69048380852","993.606406927","994.645406008","994.724411964","997.727382898","0","997.741359949","1002.54860401",""
"sujeto_2c6c72ad","1","1","18","18","1002.67625809","inverse","4","1","1","¿Cuánto mide el paralelo Ecuador?","40.000km","70.000km","","0","0","1","competitive","right","1.22813105583","1003.9044621","3.77186894417","1007.82933307","4.39206004143","1012.22145391","1.60793995857","1013.86563396","1015.8217659","1015.8996439","1018.90263605","0","1018.91677213","1022.51935196",""
"sujeto_2c6c72ad","1","1","19","19","1022.65207696","direct","4","1","2","¿Cuál fue el primer libro 
de Stephen King?","Carrie","The Stand","","1","1","1","competitive","left","2.3793258667","1025.03147793","2.6206741333","1027.84270597","3.09467697144","1030.9374249","2.90532302856","1033.87661004","1035.6205461","1035.69543004","1038.69662094","1","1038.71286297","1043.18728304",""
"sujeto_2c6c72ad","1","1","20","20","1043.33123112","inverse","2","1","3","¿Qué civilización practicaba
 la momificación?","Grecia","Egipto","right","0","0","1","competitive","right","1.96430110931","1045.29563689","3.03569889069","1048.50304604","2.52633500099","1051.02944112","3.47366499901","1054.53687811","1056.47617698","1056.55566502","1059.55661798","1","1059.57259703","1063.80138493",""
"sujeto_2c6c72ad","1","1","21","21","1063.94171309","direct","4","1","4","¿Cuántos millones de visitas
 recibe google por minuto?","3.0","4.5","","0","0","1","competitive","right","1.41463708878","1065.35642099","3.58536291122","1069.09568405","3.66571903229","1072.76144409","2.33428096771","1075.14782405","1076.66271806","1076.74836993","1079.75135708","0","1079.76624012","1086.88858604",""
"sujeto_2c6c72ad","1","1","22","22","1087.01795912","inverse","1","1","3","La máquina de fax. se inventó en:","1843","1960","","0","0","1","competitive","left","1.44741010666","1088.46543813","3.55258989334","1092.17186689","5.85449194908","1098.0263989","0.145508050919","1098.22546697","1099.46757197","1099.54182601","1102.54482198","0","1102.55899501","1105.79260993",""
"sujeto_2c6c72ad","1","1","23","23","1105.92773104","direct","2","1","4","En la verdadera historia de los
 300 espartanos. habían:","300 soldados","4300 soldados","","1","1","1","competitive","right","2.29063391685","1108.21841002","2.70936608315","1111.08582211","4.98152494431","1116.06740904","1.01847505569","1117.13750291","1118.39870501","1118.47058797","1121.4735589","1","1121.4877429","1125.28951097",""
"sujeto_2c6c72ad","1","1","24","24","1125.42309904","inverse","1","1","4","¿Cuántos milímetros crece
 el pelo por día?","0.4","0.04","","0","0","0","competitive","right","1.01525115967","1126.438416","3.98474884033","1130.57885599","3.10148882866","1133.68041205","2.89851117134","1136.62961197","1138.39029908","1138.46404505","1141.46701097","0","1141.48212695","1148.21721292",""
"sujeto_2c6c72ad","1","1","25","25","1148.34972095","direct","4","1","1","¿Cuánto mide la baldosa gris 
clásica de Montevideo?","22x22 cm.","20x20 cm.","","1","1","1","competitive","right","1.79969596863","1150.14948201","3.20030403137","1153.52185702","5.40652179718","1158.92842007","0.59347820282","1159.55799794","1161.55320811","1161.62529993","1164.62821198","1","1164.64310813","1170.18591094",""
"sujeto_2c6c72ad","1","1","26","26","1170.3110981","inverse","2","1","2","¿Cuántas películas de rápidos
 y furiosos hay?","10","11","","1","1","0","competitive","right","1.70528507233","1172.01642704","3.29471492767","1175.45335793","2.77902698517","1178.23245311","3.22097301483","1181.48544502","1182.8434341","1182.92040801","1185.92339301","1","1185.93840098","1187.9731009",""
"sujeto_2c6c72ad","1","1","27","27","1188.12300205","direct","3","1","1","¿Cuántos masters 1000
 ganó Del Potro?","1","2","","1","1","1","competitive","right","1.70040202141","1189.82344699","3.29959797859","1193.27824092","3.12513804436","1196.40341997","2.87486195564","1199.32856607","1201.08317113","1201.16279411","1204.16577506","1","1204.18094611","1211.57662797",""
"sujeto_2c6c72ad","1","1","28","28","1211.71564007","inverse","2","1","4","¿Cuántos meses dura el 
embarazo de una leona?","3 meses","4 meses","","0","0","1","competitive","right","1.52774906158","1213.243433","3.47225093842","1216.87344193","3.32693505287","1220.20041704","2.67306494713","1222.90767598","1224.01875305","1224.10872602","1227.11171007","0","1227.12565112","1233.84812903",""
"sujeto_2c6c72ad","1","1","29","29","1233.97704196","direct","1","1","1","¿En qué año fue creado
 el sandwich?","1762","1653","","1","1","0","competitive","right","1.71940302849","1235.69654703","3.28059697151","1239.14786506","3.98849105835","1243.13639712","2.01150894165","1245.19957399","1246.79811311","1246.86813211","1249.87112713","1","1249.88530612","1253.35594201",""
"sujeto_2c6c72ad","1","1","30","30","1253.50329399","inverse","4","1","2","El nombre de la moneda de Vietnam es:","Dinar","Dong","","0","0","1","competitive","left","1.53810095787","1255.04143906","3.46189904213","1258.64554","2.7258169651","1261.37141895","3.2741830349","1264.69525099","1266.12721801","1266.21432805","1269.21660495","0","1269.23077703","1275.39918804",""
"sujeto_2c6c72ad","1","1","31","31","1275.53282189","direct","2","1","1","¿cuantos aleteos puede dar 
un colibrí por segundo?","120","50","","0","0","0","competitive","left","2.90558791161","1278.43845391","2.09441208839","1280.70613313","2.83723902702","1283.54343295","3.16276097298","1286.75639892","1288.48877001","1288.55813193","1291.56110907","0","1291.576267","1295.78461695",""
"sujeto_2c6c72ad","1","1","32","32","1295.927248","inverse","4","1","3","¿Qué altura promedio tienen
 los hombres uruguayos?","1.73 m","1.72 m","","1","1","1","competitive","right","1.2241230011","1297.15141892","3.7758769989","1301.08342695","3.07793188095","1304.16140199","2.92206811905","1307.133672","1308.39607906","1308.46807003","1311.47106099","1","1311.48625302","1315.96218801",""
"sujeto_2c6c72ad","1","2","1","33","1437.8824501","direct","1","1","1","¿En qué año nació 
el actor Bradd Pitt?","1967","1963","","1","1","1","competitive","right","1.15091896057","1439.03343201","3.84908103943","1443.03732991","3.01509809494","1446.05246902","2.98490190506","1449.0879581","1450.1838119","1450.25697708","1453.25995493","1","1453.27399898","1459.20160508","1315.973979"
"sujeto_2c6c72ad","1","2","2","34","1459.374856","inverse","2","1","1","¿Cual es el segundo 
monte más alto?","Kanchenjunga","K2","","1","1","1","competitive","right","2.12058401108","1461.49548411","2.87941598892","1464.53016591","3.62026500702","1468.15047193","2.37973499298","1470.584589","1472.03701091","1472.11996007","1475.12294602","1","1475.13722396","1478.56712198",""
"sujeto_2c6c72ad","1","2","3","35","1478.72204804","direct","3","1","1","¿Cuándo finalizó la construcción
 del Palacio Legislativo?","1925","1917","","0","0","1","competitive","left","1.85745310783","1480.57960701","3.14254689217","1483.87743497","4.2919728756","1488.16944695","1.7080271244","1489.91265798","1491.55429697","1491.62950897","1494.63244009","0","1494.64662099","1500.34057307",""
"sujeto_2c6c72ad","1","2","4","36","1500.48253012","inverse","3","1","3","¿Cuántos integrantes tenía
 en su inicio  el cuarteto de nos?","3","4","","1","1","1","competitive","left","1.34388613701","1501.82646108","3.65611386299","1505.63913298","4.20931601524","1509.84851909","1.79068398476","1511.67297602","1512.80609012","1512.87364697","1515.87656808","1","1515.89059711","1521.53657293",""
"sujeto_2c6c72ad","1","2","5","37","1521.70957494","direct","2","1","3","¿Qué valor tiene el número pi?","3.14","4.18","left","0","0","1","competitive","left","1.1778678894","1522.88750696","3.8221321106","1526.86632299","2.00811505318","1528.87449813","3.99188494682","1532.89900208","1534.35317206","1534.43501306","1537.43661404","1","1537.45246291","1544.37345791",""
"sujeto_2c6c72ad","1","2","6","38","1544.50344706","inverse","2","1","2","¿Cuál es la esperanza de vida
 en Uruguay?","75","77","","1","1","0","competitive","right","1.31796717644","1545.82146192","3.68203282356","1549.64442801","2.64796900749","1552.29244208","3.35203099251","1555.67810202","1557.3318541","1557.4132781","1560.41624808","1","1560.43119407","1566.89420605",""
"sujeto_2c6c72ad","1","2","7","39","1567.0490799","direct","1","1","2","¿Cuantos pisos tiene la torre 
de las comunicaciones?","26","32","","1","1","0","competitive","left","1.54538011551","1568.59453106","3.45461988449","1572.20631289","3.58715510368","1575.79350996","2.41284489632","1578.25710607","1580.08589506","1580.15846801","1583.16144705","1","1583.17568612","1585.32061696",""
"sujeto_2c6c72ad","1","2","8","40","1585.49373102","inverse","2","1","4","¿En qué país sudamericano 
no hay McDonalds?","Bolivia","Venezuela","","0","0","1","competitive","left","1.12471079826","1586.61848593","3.87528920174","1590.6320529","3.03537797928","1593.66747212","2.96462202072","1596.68252993","1597.99190712","1598.06752801","1601.07049799","0","1601.08466101","1607.44436193",""
"sujeto_2c6c72ad","1","2","9","41","1607.60375309","direct","3","1","1","¿En qué año empieza
 la Edad Media?","476","512","","1","1","1","competitive","right","1.62071108818","1609.22456598","3.37928891182","1612.74425697","3.35614895821","1616.10044694","2.64385104179","1618.79470301","1620.19843006","1620.27974391","1623.282727","1","1623.296731","1626.28524113",""
"sujeto_2c6c72ad","1","2","10","42","1626.41532111","inverse","3","1","4","¿Hace cuántos años surgió
 el ser humano?","200mil","300mil","","0","0","0","competitive","left","1.73414802551","1628.14953303","3.26585197449","1631.5539279","2.65848517418","1634.21245503","3.34151482582","1637.60367393","1639.48969698","1639.57154799","1642.57452011","0","1642.58940411","1645.89987493",""
"sujeto_2c6c72ad","1","2","11","43","1646.02434707","direct","3","1","4","¿Cuántas cuadras tiene
 actualmente 18 de julio? ","36","33","","0","0","1","competitive","left","0.941090106964","1646.96550298","4.05890989304","1651.19656301","3.68783783913","1654.88446212","2.31216216087","1657.2480669","1658.9502871","1659.0322361","1662.03521609","0","1662.04940605","1666.77570105",""
"sujeto_2c6c72ad","1","2","12","44","1666.91843796","inverse","1","1","4","¿Qué juego de equipo se 
considera mas rápido?","Lacrosse","Badminton","","0","0","0","competitive","right","1.44700789452","1668.36548805","3.55299210548","1672.07427812","3.6261510849","1675.70046902","2.3738489151","1678.10809112","1679.35118413","1679.42660093","1682.42859006","0","1682.44347405","1690.43858695",""
"sujeto_2c6c72ad","1","2","13","45","1690.57769299","direct","1","1","3","¿Qué promedio de edad 
vive una jirafa? ","25","20","","0","0","1","competitive","right","1.69676303864","1692.27452207","3.30323696136","1695.73462892","2.68782901764","1698.42252707","3.31217098236","1701.78534889","1703.546875","1703.62011099","1706.62310195","0","1706.63721895","1712.5929389",""
"sujeto_2c6c72ad","1","2","14","46","1712.75618505","inverse","1","1","2","¿Cuántos grandes lagos hay?","7","5","","0","0","1","competitive","left","1.33827090263","1714.09452391","3.66172909737","1717.89505792","3.02138710022","1720.91650796","2.97861289978","1723.947335","1725.23944998","1725.3147831","1728.31657195","0","1728.33278799","1736.15257192",""
"sujeto_2c6c72ad","1","2","15","47","1736.28372002","direct","3","1","2","¿Cuántos discos de estudio
 grabó Johhny Cash? ","54","43","","1","1","0","competitive","right","1.52574181557","1737.80950689","3.47425818443","1741.42638993","3.29309892654","1744.71955204","2.70690107346","1747.46089506","1748.73949289","1748.81177807","1751.8147409","1","1751.82894206","1758.47657394",""
"sujeto_2c6c72ad","1","2","16","48","1758.61374593","inverse","4","1","1","¿Cuántos barrios tiene
 Montevideo? ","71","62","","0","0","1","competitive","left","1.62268900871","1760.23652291","3.37731099129","1763.75536704","3.26905703545","1767.02446508","2.73094296455","1769.80559397","1770.81262398","1770.89083409","1773.89382291","0","1773.90692592","1779.36895299",""
"sujeto_2c6c72ad","1","2","17","49","1779.50907397","direct","3","1","3","¿Qué edad tiene Homero Simpson?","36","42","","0","0","1","competitive","left","1.31435394287","1780.82347107","3.68564605713","1784.66550493","2.91791200638","1787.58347702","3.08208799362","1790.71608996","1792.09213996","1792.16699505","1795.1699729","0","1795.18504596","1799.57380795",""
"sujeto_2c6c72ad","1","2","18","50","1799.71911192","inverse","4","1","2","¿Cuántos países con monarquía 
hay en europa actualmente? ","6","10","","1","1","1","competitive","left","1.94738602638","1801.66657305","3.05261397362","1804.89293694","3.59950995445","1808.49254513","2.40049004555","1810.9434371","1812.38058901","1812.4609201","1815.46389008","1","1815.47908902","1821.63591003",""
"sujeto_2c6c72ad","1","2","19","51","1821.76401806","direct","2","1","3","¿Cuántos capítulos de
 Friends existen? ","236","228","","1","1","1","competitive","left","1.49143314362","1823.25549412","3.50856685638","1826.92024708","3.64017009735","1830.56049895","2.35982990265","1832.97182298","1834.27653599","1834.35644293","1837.35939693","1","1837.37257409","1839.74823999",""
"sujeto_2c6c72ad","1","2","20","52","1839.89122009","inverse","1","1","3","¿Cuántas óperas compuso Mozart? ","27","22","","1","1","1","competitive","left","0.959223985672","1840.85048604","4.04077601433","1845.04617691","2.23026990891","1847.27654195","3.76973009109","1851.07984209","1852.37197709","1852.44853711","1855.45151711","1","1855.46554708","1862.77701712",""
"sujeto_2c6c72ad","1","2","21","53","1862.94978404","direct","4","1","3","¿Cuántos mundiales de fútbol 
femenino ha realizado FIFA? ","9","7","","1","1","1","competitive","left","2.1117041111","1865.06153202","2.8882958889","1868.10900307","3.94245219231","1872.0515151","2.05754780769","1874.15959406","1875.40323305","1875.47705102","1878.48003793","1","1878.49391794","1884.59632492",""
"sujeto_2c6c72ad","1","2","22","54","1884.74569511","inverse","3","1","2","¿Cuál es la temperatura 
media anual en Montevideo? ","17.5","16.3","","0","0","1","competitive","left","1.08981108665","1885.83555293","3.91018891335","1889.91715598","3.12729096413","1893.04450607","2.87270903587","1895.95191193","1897.89047503","1897.97006106","1900.97305202","0","1900.98715901","1907.55658102",""
"sujeto_2c6c72ad","1","2","23","55","1907.68910909","direct","2","1","2","¿En qué año se estrenó el
 videojuego The Sims? ","2000","2002","","0","0","0","competitive","right","1.06245994568","1908.75162506","3.93754005432","1912.84769297","2.95173883438","1915.79947305","3.04826116562","1918.89810705","1920.76012611","1920.83276105","1923.83573294","0","1923.85102797","1931.24464107",""
"sujeto_2c6c72ad","1","2","24","56","1931.36855292","inverse","2","1","1","¿Cuál es la canción con 
mas covers? ","Yesterday","Stand by me","","0","0","0","competitive","right","0.87991809845","1932.248523","4.12008190155","1936.52685905","2.88653922081","1939.41343808","3.11346077919","1942.57718301","1943.97574806","1944.04524112","1947.04821801","0","1947.06241894","1951.23260093",""
"sujeto_2c6c72ad","1","2","25","57","1951.36387992","direct","1","1","4","¿Cuánto duró la guerra
 de los 100 años?","116","123","","0","0","0","competitive","left","1.07462000847","1952.43856692","3.92537999153","1956.51992798","2.63549590111","1959.15548301","3.36450409889","1962.57089496","1964.05173492","1964.13963795","1967.14260793","0","1967.15669608","1969.47644806",""
"sujeto_2c6c72ad","1","2","26","58","1969.60767412","inverse","4","1","4","¿Qué color tiene la  bandera de Brasil?","Amarillo","Naranja","left","0","0","1","competitive","left","0.878760099411","1970.48647904","4.12123990059","1974.77639103","4.18103289604","1978.95748305","1.81896710396","1980.81318212","1982.37968802","1982.46330595","1985.46628213","1","1985.48152804","1988.51429892",""
"sujeto_2c6c72ad","1","2","27","59","1988.64962792","direct","4","1","3","¿Qué carabela de 
Colon no volvió del viaje?","Santa María","La pinta","","0","0","1","competitive","left","1.12988805771","1989.77962899","3.87011194229","1993.82339311","4.9240591526","1998.74749207","1.0759408474","1999.85823798","2001.34857607","2001.42450309","2004.42743897","0","2004.44266605","2006.54058409",""
"sujeto_2c6c72ad","1","2","28","60","2006.67800903","inverse","4","1","4","¿Cuántos huesos tiene
 un adulto humano?","217","206","","0","0","1","competitive","right","1.54145312309","2008.21952796","3.45854687691","2011.84888005","3.38256120682","2015.23150206","2.61743879318","2017.89937305","2019.17035007","2019.25117111","2022.25257802","0","2022.26840901","2030.10458708",""
"sujeto_2c6c72ad","1","2","29","61","2030.2365799","direct","1","1","1","¿Qué país africano fue 
fundado por esclavos?","Liberia","Chad","","0","0","0","competitive","right","1.20189404488","2031.43851709","3.79810595512","2035.37813997","3.87429904938","2039.2524991","2.12570095062","2041.42855597","2043.42021799","2043.49591804","2046.49889207","0","2046.51385403","2054.50470591",""
"sujeto_2c6c72ad","1","2","30","62","2054.6491859","inverse","4","1","2","¿A cuánto asciende la cima
 del monte Everest?","7.990 mts","8.848 mts","","0","0","1","competitive","right","0.915328979492","2055.56459308","4.08467102051","2059.80418611","3.71928191185","2063.52353191","2.28071808815","2065.85702491","2067.04187989","2067.12425804","2070.1272521","0","2070.1415081","2077.32462907",""
"sujeto_2c6c72ad","1","2","31","63","2077.45977092","direct","4","1","1","¿Cuál es el país mas chico?","Sealand","Luxemburgo","","1","1","1","competitive","right","2.03173899651","2079.49155593","2.96826100349","2082.60374904","4.06371378899","2086.66750813","1.93628621101","2088.65292811","2090.51646304","2090.58713508","2093.59012794","1","2093.60549998","2096.72778511",""
"sujeto_2c6c72ad","1","2","32","64","2096.8572669","inverse","2","1","4","¿Cuántas pirámides hay en Egipto?","10000","11000","","1","1","1","competitive","right","1.04117202759","2097.89850807","3.95882797241","2102.01160502","3.38683795929","2105.39850307","2.61316204071","2108.06292701","2109.09652209","2109.18117499","2112.18414998","1","2112.19725895","2117.30630493",""
"sujeto_2c6c72ad","1","3","1","65","2225.37436104","direct","2","1","2","¿Cuál es el quinto país con 
mas extensión?","Canadá","Brasil","","1","1","0","competitive","right","1.40009307861","2226.77451491","3.59990692139","2230.52815795","3.41336393356","2233.94159198","2.58663606644","2236.57643199","2237.90861511","2237.97733903","2240.9803009","1","2240.99563003","2248.722013","2117.31768298"
"sujeto_2c6c72ad","1","3","2","66","2248.89667702","inverse","1","1","2","¿Qué rasgo facial no tiene
 la Mona Lisa?","Cejas","Pómulos","","0","0","1","competitive","left","1.55384898186","2250.45057392","3.44615101814","2254.05709791","3.17543196678","2257.23260093","2.82456803322","2260.1076889","2261.85809994","2261.94282889","2264.94581509","0","2264.95995998","2271.23127294",""
"sujeto_2c6c72ad","1","3","3","67","2271.36113501","direct","4","1","3","¿Cuál es el país con 
mayor población?","Esados Unidos","China","right","0","0","1","competitive","right","2.58436989784","2273.94560599","2.41563010216","2276.53401995","2.25445699692","2278.78853106","3.74554300308","2282.58564711","2284.23165393","2284.30476594","2287.30773091","1","2287.32183194","2290.68919611",""
"sujeto_2c6c72ad","1","3","4","68","2290.85635209","inverse","1","1","1","La palabra dinosaurio significa","Lagarto Terrible","Lagarto Dragón","","1","1","0","competitive","","1.11411213875","2291.97050691","3.88588786125","2296.02881098","6","2302.02894211","0","2302.04420996","2303.21455312","2303.29774404","2306.30058694","0","2306.31451797","2309.17629194",""
"sujeto_2c6c72ad","1","3","5","69","2309.316154","direct","2","1","3","¿Qué es el membrillero?","Arbol","Arbusto","","0","0","0","competitive","left","0.998336076736","2310.31453109","4.00166392326","2314.46800804","2.87649416924","2317.34455705","3.12350583076","2320.50408792","2322.4582181","2322.53822613","2325.54122496","0","2325.55630398","2332.02031612",""
"sujeto_2c6c72ad","1","3","6","70","2332.17481804","inverse","3","1","3","¿Alrededor de qué planeta orbita 
el satélite Europa?","Jupiter","Saturno","","1","1","1","competitive","left","1.66170406342","2333.83659792","3.33829593658","2337.332165","4.06533813477","2341.39756393","1.93466186523","2343.38464689","2344.92943406","2345.00230193","2348.00527906","1","2348.01937795","2350.22456598",""
"sujeto_2c6c72ad","1","3","7","71","2350.35476995","direct","3","1","1","¿Donde fue el mundial de 
fútbol de 1954?","Suiza","Suecia","","1","1","1","competitive","left","1.65673303604","2352.01157498","3.34326696396","2355.49403","3.19444584846","2358.68852997","2.80555415154","2361.54266691","2362.79526997","2362.87691498","2365.87989902","1","2365.89484","2369.80661392",""
"sujeto_2c6c72ad","1","3","8","72","2369.92959809","inverse","1","1","4","¿Cuál de los 7 enanitos
no tenía barba?","Bashful","Mudito","","1","1","0","competitive","right","1.46587300301","2371.39551806","3.53412699699","2375.10191202","4.65555286407","2379.75752997","1.34444713593","2381.15301991","2382.73317504","2382.80446196","2385.80749202","1","2385.82142806","2390.75052691",""
"sujeto_2c6c72ad","1","3","9","73","2390.88951802","direct","3","1","2","¿Cual red social es
mas utilizada mundialmente?","Instagram","Facebook","","1","1","0","competitive","left","1.04200792313","2391.9316299","3.95799207687","2396.06280398","3.34065389633","2399.40350199","2.65934610367","2402.11343312","2404.03081608","2404.11561394","2407.11859512","1","2407.1328311","2410.06731606",""
"sujeto_2c6c72ad","1","3","10","74","2410.20110011","inverse","4","1","1","¿Cuándo se inició la copa
 América de fútbol?","1916","1923","","1","1","1","competitive","right","1.40438914299","2411.60555601","3.59561085701","2415.37268901","3.72079586983","2419.09352612","2.27920413017","2421.42433095","2423.32062507","2423.40867305","2426.41127801","1","2426.42564607","2429.08172703",""
"sujeto_2c6c72ad","1","3","11","75","2429.22721505","direct","3","1","4","¿Cuántos presidentes de EEUU
han muerto asesinados?","3","4","","0","0","1","competitive","left","1.34325814247","2430.57051611","3.65674185753","2434.38292003","2.98562288284","2437.368608","3.01437711716","2440.43338895","2441.91729999","2441.98540306","2444.98831892","0","2445.00221896","2448.64626312",""
"sujeto_2c6c72ad","1","3","12","76","2448.787709","inverse","2","1","4","¿Cuántas veces participó EEUU
 en la copa América?","4","5","","0","0","1","competitive","left","1.06474781036","2449.85252595","3.93525218964","2453.95723891","3.30322599411","2457.26052904","2.69677400589","2460.00840497","2461.4524529","2461.52689791","2464.52987289","0","2464.54407692","2470.66056991",""
"sujeto_2c6c72ad","1","3","13","77","2470.79532194","direct","4","1","1","¿Cuál de estos países 
no formaba la URSS?","Azeribayán","Afganistán","","0","0","1","competitive","right","1.53020000458","2472.3255651","3.46979999542","2475.95528412","4.15618014336","2480.11152506","1.84381985664","2482.00554895","2483.31860209","2483.38973212","2486.3926959","0","2486.40688205","2494.38902211",""
"sujeto_2c6c72ad","1","3","14","78","2494.52490497","inverse","1","1","1","¿En qué año se inauguró
 el teatro Solís?","1867","1856","","0","0","0","competitive","left","1.00257205963","2495.52754998","3.99742794037","2499.70008898","3.41338682175","2503.11351705","2.58661317825","2505.75012898","2506.80642605","2506.88553691","2509.8885181","0","2509.90173793","2516.54953098",""
"sujeto_2c6c72ad","1","3","15","79","2516.68724012","direct","1","1","4","¿A qué velocidad vuela 
el avión más rápido?","3529","3874","","0","0","0","competitive","right","2.37824511528","2519.06552792","2.62175488472","2521.8586421","3.53390097618","2525.39260912","2.46609902382","2527.89607906","2529.65159512","2529.73061705","2532.7335999","0","2532.74763107","2534.85663295",""
"sujeto_2c6c72ad","1","3","16","80","2534.98243403","inverse","3","1","4","¿De qué año es la primer 
película cinematográfica?","1897","1888","","0","0","0","competitive","right","0.925088882446","2535.90762496","4.07491111755","2540.15356612","4.4649169445","2544.6185441","1.5350830555","2546.20527411","2547.33826303","2547.40622401","2550.40921998","0","2550.42332697","2555.83309293",""
"sujeto_2c6c72ad","1","3","17","81","2555.97445607","direct","2","1","3","¿Cuántos países 
tiene nuestro planeta?","191","194","","1","1","1","competitive","right","1.34506702423","2557.31956697","3.65493297577","2561.14861608","4.64890503883","2565.79755998","1.35109496117","2567.19984412","2568.5570631","2568.63403201","2571.63703203","1","2571.65074301","2574.88904691",""
"sujeto_2c6c72ad","1","3","18","82","2575.036134","inverse","2","1","2","¿Cuántos habitantes
 tiene Buenos Aires?","2.9000.000","3650000","","0","0","0","competitive","right","0.897410869598","2575.9335959","4.1025891304","2580.19101","4.12049984932","2584.31155491","1.87950015068","2586.24194813","2587.63921189","2587.72712612","2590.73010993","0","2590.74419403","2596.57358503",""
"sujeto_2c6c72ad","1","3","19","83","2596.71239495","direct","2","1","1","¿Cuántos kilos forman una tonelada?","1000","1500","left","1","1","1","competitive","left","1.2891638279","2598.00163102","3.7108361721","2601.8522141","2.59129500389","2604.44354796","3.40870499611","2607.90261102","2609.78857112","2609.8715651","2612.87454009","1","2612.88855505","2618.84597111",""
"sujeto_2c6c72ad","1","3","20","84","2618.98989105","inverse","4","1","4","¿Cuántos estados tiene la 
República del Perú? ","24","23","","0","0","1","competitive","right","0.889652013779","2619.87958694","4.11034798622","2624.16074491","2.88077902794","2627.04156494","3.11922097206","2630.19629312","2631.21848106","2631.29733205","2634.30029297","0","2634.3144021","2639.25662494",""
"sujeto_2c6c72ad","1","3","21","85","2639.39935994","direct","3","1","3","¿En qué año nació Cristóbal Colón? ","1451","1447","","0","0","1","competitive","right","2.04520201683","2641.44461012","2.95479798317","2644.55667591","4.08387899399","2648.64061594","1.91612100601","2650.60890913","2652.45480394","2652.52607298","2655.52898598","0","2655.54411697","2659.77210712",""
"sujeto_2c6c72ad","1","3","22","86","2659.91168904","inverse","4","1","4","¿Cuánto mide la 
Montaña Aconcagua? ","6234","6962","","0","0","1","competitive","right","0.977845191956","2660.88957691","4.02215480804","2665.06817603","3.415350914","2668.48358798","2.584649086","2671.1187129","2672.40806293","2672.48729706","2675.49029398","0","2675.50428796","2682.68462205",""
"sujeto_2c6c72ad","1","3","23","87","2682.82207799","direct","2","1","4","¿Cuánto mide el punto
 más profundo del océano? ","12508","11003","","0","0","1","competitive","left","1.37247085571","2684.19459295","3.62752914429","2687.98094606","2.76958203316","2690.75058889","3.23041796684","2694.03002","2695.28052306","2695.36568594","2698.36861491","0","2698.38270092","2702.58896708",""
"sujeto_2c6c72ad","1","3","24","88","2702.71774697","inverse","1","1","3","¿Cuántos álbumes ha publicado 
el cantante Jaime Roos? ","41","34","","0","0","1","competitive","right","0.87081193924","2703.58863497","4.12918806076","2707.90713811","3.85438299179","2711.76156306","2.14561700821","2713.95802498","2715.44784498","2715.52618098","2718.52916002","0","2718.54324293","2724.73937392",""
"sujeto_2c6c72ad","1","3","25","89","2724.87783504","direct","4","1","3","¿En qué año nació el 
ex-presidente Jorge Battle? ","1921","1927","","1","1","1","competitive","right","2.61770582199","2727.4956069","2.38229417801","2730.03227711","4.54326891899","2734.57558608","1.45673108101","2736.06981897","2737.80046701","2737.8708849","2740.87262392","1","2740.88836598","2744.37439394",""
"sujeto_2c6c72ad","1","3","26","90","2744.5059309","inverse","1","1","3","¿Cuántas presidencias 
constitucionales  hubo en Uruguay? ","41","42","","0","0","1","competitive","left","1.67562007904","2746.18159389","3.32437992096","2749.67722511","4.30834197998","2753.98561192","1.69165802002","2755.71297503","2756.916749","2756.99750495","2760.00047493","0","2760.01456094","2765.79820609",""
"sujeto_2c6c72ad","1","3","27","91","2765.9329679","direct","1","1","2","¿Quién escribió mas sinfonías?","Mozart","Haydn","","1","1","0","competitive","left","2.13661599159","2768.06962895","2.86338400841","2771.07419109","3.64036607742","2774.71462607","2.35963392258","2777.12171102","2778.33918095","2778.42260599","2781.42558694","1","2781.43967199","2785.19107795",""
"sujeto_2c6c72ad","1","3","28","92","2785.37536693","inverse","4","1","2","¿En qué año nació Michael Jackson?","1958","1953","","1","1","1","competitive","left","0.917195081711","2786.29262996","4.08280491829","2790.53216696","2.91438007355","2793.44661403","3.08561992645","2796.56626511","2798.54450297","2798.6177299","2801.6207099","1","2801.63596392","2807.49829602",""
"sujeto_2c6c72ad","1","3","29","93","2807.637887","direct","3","1","2","¿En qué año entró en vigencia 
la ley antitabaco en Uruguay?","2005","2006","","1","1","1","competitive","right","1.79565787315","2809.43358707","3.20434212685","2812.81172299","4.62883901596","2817.44063091","1.37116098404","2818.86244011","2820.4571681","2820.529948","2823.53292394","1","2823.54714799","2828.88118911",""
"sujeto_2c6c72ad","1","3","30","94","2829.03176999","inverse","3","1","1","¿Cuándo se subió el 
primer video a youtube?","2004","2005","","0","0","1","competitive","left","1.21979689598","2830.25163698","3.78020310402","2834.18882298","3.76176095009","2837.95064712","2.23823904991","2840.23906612","2841.54461408","2841.62423301","2844.62723398","0","2844.64137506","2852.39661694",""
"sujeto_2c6c72ad","1","3","31","95","2852.52595997","direct","2","1","1","¿Cuántos habitantes tiene India?","1200 millones","1300 millones","","0","0","0","competitive","right","1.05760288239","2853.58363008","3.94239711761","2857.70055604","3.69996404648","2861.40056491","2.30003595352","2863.75171494","2865.72132492","2865.80292702","2868.80460191","0","2868.82059407","2874.86809897",""
"sujeto_2c6c72ad","1","3","32","96","2875.005059","inverse","4","1","2","¿A qué edad murió Bob Marley?","36","37","","0","0","1","competitive","right","3.38645100594","2878.39158297","1.61354899406","2880.17594504","3.73763298988","2883.91363692","2.26236701012","2886.22887397","2888.12672591","2888.21403313","2891.21661901","0","2891.23090696","2894.33336401",""
"sujeto_2c6c72ad","1","4","1","97","3010.66152501","direct","2","1","1","¿Cuantos años dirigió la selección 
uruguaya Tabarez?","15 años","13 años","","0","0","0","competitive","left","0.822004795074","3011.48359394","4.17799520493","3015.83226991","4.04527306557","3019.87760901","1.95472693443","3021.88241911","3023.07356691","3023.15026903","3026.15326405","0","3026.16747308","3033.23949194","2894.34473991"
"sujeto_2c6c72ad","1","4","2","98","3033.38659811","inverse","4","1","1","¿Cuantas teclas tiene un teclado 
de computadora generalmente? ","Entre 99 y 108","Entre 109 y 113","","1","1","1","competitive","left","1.22496891022","3034.61162901","3.77503108978","3038.54362798","5.10188388824","3043.64555192","0.898116111755","3044.59569311","3045.59843802","3045.6791389","3048.68211889","1","3048.696316","3051.06774998",""
"sujeto_2c6c72ad","1","4","3","99","3051.19784594","direct","1","1","1","¿Cuál Departamento tiene
 mayor superficie?","Río Negro","Soriano","","0","0","0","competitive","right","1.00375390053","3052.20167303","3.99624609947","3056.38588405","3.57263708115","3059.95858908","2.42736291885","3062.43709612","3064.15056801","3064.22144294","3067.2243979","0","3067.23939705","3071.56546712",""
"sujeto_2c6c72ad","1","4","4","100","3071.70783901","inverse","3","1","2","¿Cuál es el apellido de las 
hermanastras  de  cenicienta?","Tremaine","Truman","","0","0","1","competitive","left","1.41469097137","3073.12259698","3.58530902863","3076.85978508","3.73274707794","3080.59257412","2.26725292206","3082.91276598","3084.7822969","3084.86344099","3087.86458397","0","3087.88076496","3090.57669401",""
"sujeto_2c6c72ad","1","4","5","101","3090.71672797","direct","4","1","4","¿Cuál película ganó un
 Oscar a mejor película?","Alto Impacto","Cache","","0","0","1","competitive","left","1.01987600327","3091.73666906","3.98012399673","3095.90686607","3.66264605522","3099.56955194","2.33735394478","3101.95785904","3103.07781911","3103.15926099","3106.16226411","0","3106.17538095","3108.44000602",""
"sujeto_2c6c72ad","1","4","6","102","3108.57782292","inverse","1","1","3","¿A cuántos centímetros
equivale la medida pié?","25","30","","0","0","1","competitive","left","1.12674689293","3109.70461106","3.87325310707","3113.73246002","3.55106592178","3117.283566","2.44893407822","3119.78343391","3120.82338095","3120.90071392","3123.90366101","0","3123.9186821","3129.3195951",""
"sujeto_2c6c72ad","1","4","7","103","3129.45283508","direct","2","1","2","¿Qué departamento es mas grande?","Cerro Largo","Paysandú","","0","0","0","competitive","left","1.49671006203","3130.94961309","3.50328993797","3134.59366894","2.49385595322","3137.08756495","3.50614404678","3140.64122391","3142.24058199","3142.30913806","3145.3121171","0","3145.32633305","3149.43257213",""
"sujeto_2c6c72ad","1","4","8","104","3149.5621469","inverse","2","1","3","¿Quién pintó la Mona Lisa?","Picasso","Da Vinci","right","0","0","1","competitive","right","1.00245213509","3150.56466413","3.99754786491","3154.70278311","2.09878206253","3156.80162501","3.90121793747","3160.75310397","3162.35894608","3162.43941593","3165.44058108","1","3165.45570493","3167.61803508",""
"sujeto_2c6c72ad","1","4","9","105","3167.75845194","direct","4","1","3","¿Cuántos litros hay en un galon?","3.54","3.78","","1","1","1","competitive","right","0.90907907486","3168.66757393","4.09092092514","3172.92927313","3.20727610588","3176.13661695","2.79272389412","3178.97994494","3180.49782991","3180.58145809","3183.58440495","1","3183.59935308","3189.391711",""
"sujeto_2c6c72ad","1","4","10","106","3189.54990602","inverse","4","1","1","¿Cuántas teclas tiene
 un piano moderno?","80","88","","0","0","1","competitive","right","1.61567687988","3191.16562605","3.38432312012","3194.720402","3.71413612366","3198.43459797","2.28586387634","3200.77190495","3201.78034592","3201.85680509","3204.85979509","0","3204.8739419","3211.67170405",""
"sujeto_2c6c72ad","1","4","11","107","3211.80843902","direct","4","1","3","¿Cuántos países hay en África?","54","62","","0","0","1","competitive","left","1.06313490868","3212.87162304","3.93686509132","3216.96817398","2.94436693192","3219.912606","3.05563306808","3223.002033","3224.69258595","3224.77017903","3227.77318001","0","3227.78846407","3235.59327698",""
"sujeto_2c6c72ad","1","4","12","108","3235.72311997","inverse","1","1","3","¿En qué siglo se crearon
 las primeras pistolas?","XV","XIII","","1","1","1","competitive","left","0.901464939117","3236.62465811","4.09853506088","3240.8812871","5.22125005722","3246.10258102","0.77874994278","3246.93331909","3248.88122511","3248.95023513","3251.953228","1","3251.96757007","3255.20064092",""
"sujeto_2c6c72ad","1","4","13","109","3255.35315013","direct","3","1","4","¿En qué año se estrenó 
la serie friends?","1994","1995","","0","0","1","competitive","right","1.01550793648","3256.36873412","3.98449206352","3260.52410412","3.09845805168","3263.62260199","2.90154194832","3266.57447505","3268.44979191","3268.52669692","3271.52969408","0","3271.54468989","3276.54861498",""
"sujeto_2c6c72ad","1","4","14","110","3276.6785779","inverse","3","1","4","¿En qué año nació Hitler?","1889","1887","","0","0","1","competitive","right","1.02309608459","3277.70178795","3.97690391541","3281.84928203","3.30429792404","3285.15364695","2.69570207596","3287.90139508","3289.01577306","3289.10296392","3292.10595608","0","3292.11988401","3297.1468811",""
"sujeto_2c6c72ad","1","4","15","111","3297.28777194","direct","1","1","4","¿Cuánto pesa un elefante Africano?","6000 kilos","5400 kilos","","0","0","0","competitive","right","2.45878887177","3299.74660993","2.54121112823","3302.44606304","3.33053398132","3305.77665806","2.66946601868","3308.49532795","3309.85127211","3309.92947412","3312.9324019","0","3312.94727898","3319.65436792",""
"sujeto_2c6c72ad","1","4","16","112","3319.79861999","inverse","1","1","2","¿Qué porcentaje de 
la población es zurda?","10%","7%","","1","1","0","competitive","right","1.65893983841","3321.45760202","3.34106016159","3324.94205499","3.82449388504","3328.76659298","2.17550611496","3330.99306703","3332.23614192","3332.31033492","3335.31261992","1","3335.32686591","3341.30467606",""
"sujeto_2c6c72ad","1","4","17","113","3341.44573712","direct","1","1","2","¿En qué año se estrenó
Volver al futuro?","1984","1985","","0","0","1","competitive","right","1.41581392288","3342.86159992","3.58418607712","3346.60215306","2.72137117386","3349.32356501","3.27862882614","3352.65287209","3354.21469998","3354.28762913","3357.29060912","0","3357.30457902","3364.39603591",""
"sujeto_2c6c72ad","1","4","18","114","3364.55663204","inverse","3","1","2","¿Cuántos jugadores hay en un 
equipo de baseball?","9","8","","1","1","0","competitive","left","1.1710050106","3365.72774196","3.8289949894","3369.748456","5.09613800049","3374.84465694","0.903861999512","3375.79946804","3377.41257906","3377.48330092","3380.48629904","1","3380.50027704","3385.47746301",""
"sujeto_2c6c72ad","1","4","19","115","3385.60155797","direct","2","1","1","¿Cuántos Oscar ganó
 la película titanic?","13","11","","1","1","1","competitive","left","2.2130548954","3387.81465507","2.7869451046","3390.75579691","3.36277699471","3394.11861396","2.63722300529","3396.79293704","3398.09500003","3398.17729092","3401.18028402","1","3401.19452906","3405.79718113",""
"sujeto_2c6c72ad","1","4","20","116","3405.94558311","inverse","4","1","4","¿En qué año comenzó
la segunda guerra mundial?","1939","1976","left","0","0","1","competitive","left","0.948023080826","3406.89367104","4.05197691917","3411.13503599","3.31051492691","3414.44562006","2.68948507309","3417.16885209","3418.96870208","3419.05388093","3422.05662608","1","3422.07193804","3426.05908298",""
"sujeto_2c6c72ad","1","4","21","117","3426.19028211","direct","2","1","4","¿Cuántos biomas hay en Uruguay?","5","4","","0","0","1","competitive","left","1.15631198883","3427.34665799","3.84368801117","3431.32924104","2.67831683159","3434.00762606","3.32168316841","3437.36290097","3439.16024995","3439.23068309","3442.23366404","0","3442.24871492","3448.49812508",""
"sujeto_2c6c72ad","1","4","22","118","3448.63368702","inverse","2","1","3","¿Cuándo murió Pablo Escobar?","1993","1997","","1","1","1","competitive","left","1.44791412354","3450.08164406","3.55208587646","3453.79064703","3.13292694092","3456.92361903","2.86707305908","3459.8411541","3461.62400103","3461.70955396","3464.71252203","1","3464.72751093","3470.43117094",""
"sujeto_2c6c72ad","1","4","23","119","3470.56221104","direct","1","1","4","¿Qué serie ha ganado mas premios?","Friends","Murphy Brown","","1","1","0","competitive","left","1.44137692451","3472.00363207","3.55862307549","3475.71880794","3.24477601051","3478.963624","2.75522398949","3481.75277805","3483.10519791","3483.18789601","3486.19088411","1","3486.20489192","3491.76649904",""
"sujeto_2c6c72ad","1","4","24","120","3491.90668392","inverse","4","1","2","¿Cuántas fichas tiene el dominó?","26","28","","1","1","1","competitive","right","2.41494202614","3494.321702","2.58505797386","3497.07937503","3.3852250576","3500.46463895","2.6147749424","3503.13088393","3504.1861999","3504.26547313","3507.26844192","1","3507.28264308","3512.52575707",""
"sujeto_2c6c72ad","1","4","25","121","3512.66791391","direct","2","1","4","¿Cuántos son los dientes de leche?","20","25","","0","0","1","competitive","right","1.09067201614","3513.75865293","3.90932798386","3517.84084392","3.46077394485","3521.30168104","2.53922605515","3523.87419796","3525.58457303","3525.65865993","3528.66163802","0","3528.67666912","3530.82237792",""
"sujeto_2c6c72ad","1","4","26","122","3530.96158504","inverse","3","1","3","¿Cuántos gramos son una onza?","22","28","","0","0","1","competitive","left","1.1250371933","3532.0867281","3.8749628067","3536.13177299","2.87379193306","3539.00562692","3.12620806694","3542.1828301","3544.17768502","3544.25117707","3547.25392103","0","3547.26886892","3553.55911398",""
"sujeto_2c6c72ad","1","4","27","123","3553.70437002","direct","3","1","1","¿Cuándo salió el primer album
 de los Beatles?","1963","1962","","1","1","1","competitive","left","1.15324282646","3554.85765696","3.84675717354","3558.8778491","4.65373897552","3563.53163195","1.34626102448","3564.92901993","3566.09265494","3566.17983794","3569.182832","1","3569.19700599","3572.96904397",""
"sujeto_2c6c72ad","1","4","28","124","3573.11585093","inverse","3","1","3","¿Quién fundó la empresa apple?","Carlos Slim","Steve Jobs","","1","1","1","competitive","right","0.892731904984","3574.00865102","4.10726809502","3578.28741193","3.46315789223","3581.75063109","2.53684210777","3584.3385489","3585.4532001","3585.52345109","3588.52641797","1","3588.54064798","3594.83848",""
"sujeto_2c6c72ad","1","4","29","125","3594.9756639","direct","4","1","2","¿Cuántos municipios hay
 en Montevideo?","8","7","","1","1","1","competitive","right","2.30994296074","3597.28565502","2.69005703926","3600.1432929","2.79527306557","3602.93863606","3.20472693443","3606.18368912","3608.09843397","3608.16881013","3611.17179394","1","3611.18568301","3613.2668221",""
"sujeto_2c6c72ad","1","4","30","126","3613.40391302","inverse","1","1","1","¿Cuántos kilómetros hay
 de Montevideo a Artigas?","632","599","","0","0","0","competitive","left","1.07030391693","3614.47434711","3.92969608307","3618.58928013","3.78129291534","3622.37063599","2.21870708466","3624.62499094","3626.10813498","3626.1762259","3629.17657399","0","3629.19382095","3635.24458098",""
"sujeto_2c6c72ad","1","4","31","127","3635.37877297","direct","2","1","2","¿En qué año nació 
Leonardo Da Vinci?","1452","1511","","1","1","0","competitive","left","1.7298810482","3637.10872293","3.2701189518","3640.5363369","3.99526309967","3644.53166103","2.00473690033","3646.57092094","3648.42451406","3648.50537992","3651.50836897","1","3651.5236249","3654.67003298",""
"sujeto_2c6c72ad","1","4","32","128","3654.80849099","inverse","3","1","1","¿A qué continente
 pertenece el país Gabón?","Africa","Oceanía","","0","0","1","competitive","left","0.905133962631","3655.71367407","4.09486603737","3659.96318913","4.23440694809","3664.1976409","1.76559305191","3666.01431704","3667.82597399","3667.89864492","3670.90161991","0","3670.91577005","3676.15259194",""
