"code","nro_aplicante","nro_bloque","nro_trial_bloque","nro_trial_global","show_game_type","choice_order","rival","pay_individual","pay_competitive","question","answer_left_text","answer_right_text","correct_answer","outcome_individual","outcome_competitive","outcome_rival","game_type","answer","social_time","rt_game_type","feedback_delay","show_question","answer_time","rt_answer_global","feedback_delay_2","show_jitter","jitter_time","show_outcome","outcome_time","outcome_participant_real","show_final_jitter","second_jitter_time","inicio_descanso"
"sujeto_efe9883f","1","1","1","1","580.731283903","direct","3","1","4","¿Cuántos centímetros corresponden
al talle 36 del calzado?","23","24","","0","0","1","competitive","left","4.0593059063","584.79063201","0.940694093704","585.904135942","4.60651493073","590.510716915","1.39348506927","591.955909014","592.984199047","593.055747986","596.058702946","0","596.073303938","598.235797882",""
"sujeto_efe9883f","1","1","2","2","598.375246048","inverse","3","1","2","¿Cuántas metros mide la Intendencia
Municipal de Montevideo? ","84","78","","0","0","1","competitive","left","2.27539491653","600.650678873","2.72460508347","603.529992819","3.97585010529","607.505902052","2.02414989471","609.562180042","611.440217018","611.513171911","614.513825893","0","614.530885935","616.623654842",""
"sujeto_efe9883f","1","1","3","3","616.766707897","direct","1","1","3","¿Cuántas La Pasiva
 hay en uruguay?","15","11","","1","1","1","competitive","left","2.55320000648","619.319973946","2.44679999352","621.92198205","4.59800505638","626.520030022","1.40199494362","627.957408905","629.569082022","629.641645908","632.644644976","1","632.658943892","636.937290907",""
"sujeto_efe9883f","1","1","4","4","637.077128887","inverse","3","1","3","¿De que color es la camiseta de uruguay?","blanca","celeste","right","1","1","1","competitive","right","3.47989487648","640.55705905","1.52010512352","642.233072042","3.2631020546","645.496217012","2.7368979454","648.267168999","649.471945047","649.553052902","652.556015968","1","652.569079876","656.023018837",""
"sujeto_efe9883f","1","1","5","5","656.154156923","direct","2","1","1","¿Cuánto metros mide
la torre Eiffel?","333","324","","1","1","1","competitive","right","3.51310396194","659.667302847","1.48689603806","661.326678991","3.29767203331","664.624409914","2.70232796669","667.361086845","668.882438898","668.961978912","671.964952946","1","671.980020046","679.016713858",""
"sujeto_efe9883f","1","1","6","6","679.147953987","inverse","3","1","4","¿Cuantas ciudades existen
 en todo el uruguay?","63","72","","0","0","1","competitive","right","1.56945204735","680.717442036","3.43054795265","684.303442001","5.25111699104","689.554633856","0.748883008957","690.355772972","691.410589933","691.489527941","694.492444992","0","694.506551027","702.133144855",""
"sujeto_efe9883f","1","1","7","7","702.27490592","direct","1","1","1","¿Cuantos estados tiene África?","52","54","","1","1","0","competitive","left","1.32273387909","703.597682953","3.67726612091","707.43429184","4.09145402908","711.525806904","1.90854597092","713.468637943","715.332612038","715.402729988","718.405661821","1","718.419900894","724.180924892",""
"sujeto_efe9883f","1","1","8","8","724.321835995","inverse","4","1","4","¿En qué año nació
 Stephen Hawking?","1952","1942","","0","0","1","competitive","left","3.43004202843","727.751940966","1.56995797157","729.493800879","3.01111984253","732.504981995","2.98888015747","735.530011892","736.973786831","737.048156023","740.051093817","0","740.06536603","746.164748907",""
"sujeto_efe9883f","1","1","9","9","746.317003012","direct","2","1","3","¿Cuánto años tenía Artigas
 cuando se fue a Paraguay?","56","57","","1","1","1","competitive","left","2.90708518028","749.224154949","2.09291481972","751.48990798","4.73621821404","756.226164818","1.26378178596","757.542595863","759.092083931","759.175421","762.177820921","1","762.193830967","768.24111104",""
"sujeto_efe9883f","1","1","10","10","768.378540039","inverse","1","1","2","¿Cuantos milímetros 
mide una hoja A2?","420x592","420x594","","0","0","1","competitive","right","1.71974897385","770.098333836","3.28025102615","773.535130978","4.35522413254","777.890398979","1.64477586746","779.585767984","781.15383482","781.236424923","784.239398956","0","784.254508018","791.325844049",""
"sujeto_efe9883f","1","1","11","11","791.472146034","direct","3","1","3","¿Cuál es la menor temperatura 
registrada en Uruguay?","-5.4","-7.4","","0","0","1","competitive","right","1.24635195732","792.718574047","3.75364804268","796.629722834","4.04470682144","800.674482822","1.95529317856","802.663817883","804.345867872","804.431395054","807.434381962","0","807.448676825","811.181977987",""
"sujeto_efe9883f","1","1","12","12","811.350179911","inverse","2","1","2","¿Cuantos años hace que 
se fundó facebook?","18","17","","0","0","0","competitive","right","2.79652094841","814.146800995","2.20347905159","816.524055958","4.9546289444","821.478726864","1.0453710556","822.575873852","823.948597908","824.026579857","827.029561043","0","827.043846846","829.818486929",""
"sujeto_efe9883f","1","1","13","13","829.945662022","direct","1","1","4","¿Cuál animal es más
 pesado en promedio?","Rinoceronte","Hipopotamo","","0","0","0","competitive","right","3.33813500404","833.283900023","1.66186499596","835.114550829","3.68327999115","838.797898054","2.31672000885","841.202174902","842.281416893","842.353270054","845.353818893","0","845.37080884","849.21179986",""
"sujeto_efe9883f","1","1","14","14","849.338395834","inverse","1","1","2","¿Qué personaje de dragon ball 
murió más veces?","Chaoz","Krillin","","1","1","0","competitive","left","2.38663291931","851.725108862","2.61336708069","854.508553982","3.68940496445","858.198015928","2.31059503555","860.559825897","862.017657995","862.093746901","865.096750975","1","865.110965967","872.883926868",""
"sujeto_efe9883f","1","1","15","15","873.013195038","direct","3","1","2","La universidad de oxford. 
existe desde:","1096","1249","","1","1","0","competitive","right","2.0660610199","875.079321861","2.9339389801","878.172480822","4.71878004074","882.891299009","1.28121995926","884.225319862","885.273828983","885.343034029","888.346035004","1","888.359230995","895.050112963",""
"sujeto_efe9883f","1","1","16","16","895.177937984","inverse","3","1","1","¿Qué escritor latino ganó antes
 el premio nobel?"," García Marquez","Neruda","","0","0","1","competitive","left","2.93746304512","898.115464926","2.06253695488","900.351553917","5.42989087105","905.781481981","0.570109128952","906.386566877","908.126569033","908.203117847","911.205854893","0","911.221158028","914.681681871",""
"sujeto_efe9883f","1","1","17","17","914.855772972","direct","4","1","3","¿Cuántos dientes tiene un
 tiburón blanco?","6000","3000","","0","0","1","competitive","right","1.78880810738","916.644649029","3.21119189262","920.028930902","3.48767900467","923.516674042","2.51232099533","926.078310966","927.117308855","927.196521044","930.199504852","0","930.213726997","935.023393869",""
"sujeto_efe9883f","1","1","18","18","935.166200876","inverse","4","1","1","¿Cuánto mide el paralelo Ecuador?","40.000km","70.000km","","0","0","1","competitive","right","0.891598939896","936.05784893","4.1084010601","940.320818901","3.2629878521","943.583873034","2.7370121479","946.355432034","948.311547041","948.39000082","951.392961979","0","951.407215834","955.00977397",""
"sujeto_efe9883f","1","1","19","19","955.159456968","direct","4","1","2","¿Cuál fue el primer libro 
de Stephen King?","Carrie","The Stand","","1","1","1","competitive","left","1.45650410652","956.616031885","3.54349589348","960.316293955","5.27865195274","965.595007896","0.721348047256","966.351559877","968.095669985","968.168268919","971.171223879","1","971.185405016","975.659849882",""
"sujeto_efe9883f","1","1","20","20","975.803918839","inverse","2","1","3","¿Qué civilización practicaba
 la momificación?","Grecia","Egipto","right","0","0","1","competitive","right","2.33111286163","978.135090828","2.66888713837","980.955621958","2.83351993561","983.789180994","3.16648006439","986.994483948","988.933789015","989.012910843","992.015898943","1","992.031004906","996.257825851",""
"sujeto_efe9883f","1","1","21","21","996.398879051","direct","4","1","4","¿Cuántos millones de visitas
 recibe google por minuto?","3.0","4.5","","0","0","1","competitive","right","3.40441989899","999.803344965","1.59558010101","1001.5540669","4.61725497246","1006.1713779","1.38274502754","1007.60651803","1009.12138104","1009.19017696","1012.19317102","0","1012.208076","1019.33076286",""
"sujeto_efe9883f","1","1","22","22","1019.49194694","inverse","1","1","3","La máquina de fax. se inventó en:","1843","1960","","0","0","1","competitive","left","2.01162099838","1021.50363398","2.98837900162","1024.66075683","3.72476792336","1028.38558793","2.27523207664","1030.69715905","1031.93927288","1032.01516795","1035.01783395","0","1035.03191185","1038.26821494",""
"sujeto_efe9883f","1","1","23","23","1038.41753793","direct","2","1","4","En la verdadera historia de los
 300 espartanos. habían:","300 soldados","4300 soldados","","1","1","1","competitive","left","1.50423693657","1039.92181993","3.49576306343","1043.57585382","5.51690506935","1049.09281898","0.483094930649","1049.62729502","1050.88853383","1050.96135283","1053.96433496","1","1053.97887397","1057.78064299",""
"sujeto_efe9883f","1","1","24","24","1057.91331983","inverse","1","1","4","¿Cuántos milímetros crece
 el pelo por día?","0.4","0.04","","0","0","0","competitive","right","1.33556008339","1059.24892402","3.66443991661","1063.07030392","4.22964096069","1067.30001187","1.77035903931","1069.10441494","1070.86513591","1070.9390769","1073.94181085","0","1073.95585704","1080.68983483",""
"sujeto_efe9883f","1","1","25","25","1080.82391095","direct","4","1","1","¿Cuánto mide la baldosa gris 
clásica de Montevideo?","22x22 cm.","20x20 cm.","","1","1","1","competitive","right","1.80119013786","1082.62517095","3.19880986214","1085.99855804","4.34155893326","1090.34018302","1.65844106674","1092.05018783","1094.04545498","1094.11787796","1097.12085485","1","1097.13569403","1102.67849493",""
"sujeto_efe9883f","1","1","26","26","1102.82026196","inverse","2","1","2","¿Cuántas películas de rápidos
 y furiosos hay?","10","11","","1","1","0","competitive","left","1.36702299118","1104.18732691","3.63297700882","1107.97604394","3.51526379585","1111.49136782","2.48473620415","1114.02571583","1115.38374496","1115.46074605","1118.46372604","1","1118.47807288","1120.51277995",""
"sujeto_efe9883f","1","1","27","27","1120.64691305","direct","3","1","1","¿Cuántos masters 1000
 ganó Del Potro?","1","2","","1","1","1","competitive","right","1.6675131321","1122.31448984","3.3324868679","1125.80356097","4.02891302109","1129.83253288","1.97108697891","1131.83687282","1133.59147286","1133.67167401","1136.67382002","1","1136.68909383","1144.08544087",""
"sujeto_efe9883f","1","1","28","28","1144.22614789","inverse","2","1","4","¿Cuántos meses dura el 
embarazo de una leona?","3 meses","4 meses","","0","0","1","competitive","right","0.964501857758","1145.19069195","4.03549814224","1149.41492391","5.34578204155","1154.76076889","0.65421795845","1155.46664786","1156.57772589","1156.65049195","1159.65344596","0","1159.66743183","1166.389889",""
"sujeto_efe9883f","1","1","29","29","1166.538131","direct","1","1","1","¿En qué año fue creado
 el sandwich?","1762","1653","","1","1","0","competitive","right","0.989722013474","1167.52791786","4.01027798653","1171.708884","4.76793503761","1176.476861","1.23206496239","1177.76168489","1179.360286","1179.44533205","1182.44580388","1","1182.46302795","1185.9336729",""
"sujeto_efe9883f","1","1","30","30","1186.06489491","inverse","4","1","2","El nombre de la moneda de Vietnam es:","Dinar","Dong","","0","0","1","competitive","left","1.36812591553","1187.43308592","3.63187408447","1191.22035384","4.50657701492","1195.72696686","1.49342298508","1197.27105904","1198.70180202","1198.7719419","1201.77490091","0","1201.79014683","1207.95859385",""
"sujeto_efe9883f","1","1","31","31","1208.0917449","direct","2","1","1","¿cuantos aleteos puede dar 
un colibrí por segundo?","120","50","","0","0","0","competitive","left","1.22737598419","1209.31916404","3.77262401581","1213.28245997","4.81762886047","1218.10014796","1.18237113953","1219.33327389","1221.06567287","1221.150424","1224.15340495","0","1224.16767192","1228.37994289",""
"sujeto_efe9883f","1","1","32","32","1228.51956582","inverse","4","1","3","¿Qué altura promedio tienen
 los hombres uruguayos?","1.73 m","1.72 m","","1","1","1","competitive","right","2.82073497772","1231.34034991","2.17926502228","1233.70914602","4.71420097351","1238.423388","1.28579902649","1239.76067996","1241.02310705","1241.09516001","1244.09813595","1","1244.11223102","1248.58582592",""
"sujeto_efe9883f","1","2","1","33","1404.91484284","direct","1","1","1","¿En qué año nació 
el actor Bradd Pitt?","1967","1963","","1","1","1","competitive","left","3.04797697067","1407.96286297","1.95202302933","1410.08431482","3.25556588173","1413.33994102","2.74443411827","1416.13647389","1417.23233604","1417.30436683","1420.30580902","1","1420.32112002","1426.24585104","1248.59767294"
"sujeto_efe9883f","1","2","2","34","1426.38961601","inverse","2","1","1","¿Cual es el segundo 
monte más alto?","Kanchenjunga","K2","","1","1","1","competitive","left","2.29241800308","1428.68208098","2.70758199692","1431.54694295","4.74213290215","1436.28914404","1.25786709785","1437.59861588","1439.04982996","1439.13211083","1442.13506293","1","1442.14913082","1445.57782483",""
"sujeto_efe9883f","1","2","3","35","1445.71745896","direct","3","1","1","¿Cuándo finalizó la construcción
 del Palacio Legislativo?","1925","1917","","0","0","1","competitive","left","1.21879005432","1446.93632603","3.78120994568","1450.86828685","4.23194909096","1455.10029292","1.76805090904","1456.92094803","1458.56264687","1458.63810182","1461.64106703","0","1461.65632892","1467.3538959",""
"sujeto_efe9883f","1","2","4","36","1467.49137402","inverse","3","1","3","¿Cuántos integrantes tenía
 en su inicio  el cuarteto de nos?","3","4","","1","1","1","competitive","right","1.19158506393","1468.68300295","3.80841493607","1472.65124702","5.39620995522","1478.04749584","0.603790044785","1478.70256186","1479.83559799","1479.91985297","1482.92178988","1","1482.93704605","1488.58683491",""
"sujeto_efe9883f","1","2","5","37","1488.72184801","direct","2","1","3","¿Qué valor tiene el número pi?","3.14","4.18","left","0","0","1","competitive","left","1.32872700691","1490.05063891","3.67127299309","1493.87879705","2.52383804321","1496.40269589","3.47616195679","1499.92962503","1501.38379598","1501.46549702","1504.46850491","1","1504.47695589","1511.39787698",""
"sujeto_efe9883f","1","2","6","38","1511.52764583","inverse","2","1","2","¿Cuál es la esperanza de vida
 en Uruguay?","75","77","","1","1","0","competitive","left","1.19210410118","1512.71982098","3.80789589882","1516.67371702","3.11797595024","1519.79172802","2.88202404976","1522.72463703","1524.37846589","1524.46009994","1527.46180391","1","1527.47677994","1533.93979502",""
"sujeto_efe9883f","1","2","7","39","1534.06207585","direct","1","1","2","¿Cuantos pisos tiene la torre 
de las comunicaciones?","26","32","","1","1","0","competitive","right","2.89994287491","1536.96206498","2.10005712509","1539.21671486","3.42127895355","1542.63804984","2.57872104645","1545.27003193","1547.09880304","1547.17221498","1550.17519999","1","1550.18913388","1552.33534694",""
"sujeto_efe9883f","1","2","8","40","1552.49130583","inverse","2","1","4","¿En qué país sudamericano 
no hay McDonalds?","Bolivia","Venezuela","","0","0","1","competitive","right","1.18886494637","1553.68023992","3.81113505363","1557.64503098","4.13717007637","1561.78225994","1.86282992363","1563.6946919","1565.00404096","1565.07916403","1568.08213186","0","1568.09629083","1574.4560349",""
"sujeto_efe9883f","1","2","9","41","1574.59802198","direct","3","1","1","¿En qué año empieza
 la Edad Media?","476","512","","1","1","1","competitive","left","2.04333305359","1576.64142203","2.95666694641","1579.75697494","3.40540289879","1583.16242194","2.59459710121","1585.80827498","1587.21201682","1587.29271197","1590.29568291","1","1590.30993605","1593.29849601",""
"sujeto_efe9883f","1","2","10","42","1593.44535899","inverse","3","1","4","¿Hace cuántos años surgió
 el ser humano?","200mil","300mil","","0","0","0","competitive","left","1.1891541481","1594.63456202","3.8108458519","1598.59921694","4.652312994","1603.25159597","1.347687006","1604.65208101","1606.53782582","1606.61843395","1609.62141585","0","1609.63640404","1612.94687891",""
"sujeto_efe9883f","1","2","11","43","1613.08852792","direct","3","1","4","¿Cuántas cuadras tiene
 actualmente 18 de julio? ","36","33","","0","0","1","competitive","left","0.999178171158","1614.08777189","4.00082182884","1618.25877094","4.38895392418","1622.64776993","1.61104607582","1624.3074379","1626.00968385","1626.09168386","1629.09463787","0","1629.10987282","1633.83383489",""
"sujeto_efe9883f","1","2","12","44","1633.97818899","inverse","1","1","4","¿Qué juego de equipo se 
considera mas rápido?","Lacrosse","Badminton","","0","0","0","competitive","left","1.53964400291","1635.51787996","3.46035599709","1639.13792801","4.81298708916","1643.95097494","1.18701291084","1645.18938303","1646.43248796","1646.52294898","1649.52591085","0","1649.5401969","1657.53535485",""
"sujeto_efe9883f","1","2","13","45","1657.69236588","direct","1","1","3","¿Qué promedio de edad 
vive una jirafa? ","25","20","","0","0","1","competitive","right","1.07391095161","1658.76634192","3.92608904839","1662.85025787","3.66583490372","1666.516155","2.33416509628","1668.90129805","1670.661834","1670.735605","1673.738554","0","1673.75277591","1679.70849085",""
"sujeto_efe9883f","1","2","14","46","1679.8374939","inverse","1","1","2","¿Cuántos grandes lagos hay?","7","5","","0","0","1","competitive","left","2.28278303146","1682.12034082","2.71721696854","1685.01234698","3.31591820717","1688.32831001","2.68408179283","1691.04586983","1692.33802605","1692.41376805","1695.41674685","0","1695.43113804","1703.25250983",""
"sujeto_efe9883f","1","2","15","47","1703.39945793","direct","3","1","2","¿Cuántos discos de estudio
 grabó Johhny Cash? ","54","43","","1","1","0","competitive","left","2.45348381996","1705.85301304","2.54651618004","1708.57330298","4.47621917725","1713.04956293","1.52378082275","1714.60940194","1715.88801098","1715.96078801","1718.96377492","1","1718.97779989","1725.62579298",""
"sujeto_efe9883f","1","2","16","48","1725.77870989","inverse","4","1","1","¿Cuántos barrios tiene
 Montevideo? ","71","62","","0","0","1","competitive","right","1.47896981239","1727.25778198","3.52103018761","1730.93446803","2.54023194313","1733.47476101","3.45976805687","1736.98473787","1737.99177098","1738.07097387","1741.07391787","0","1741.08818603","1746.55021882",""
"sujeto_efe9883f","1","2","17","49","1746.69130087","direct","3","1","3","¿Qué edad tiene Homero Simpson?","36","42","","0","0","1","competitive","right","1.18252301216","1747.87389803","3.81747698784","1751.84660482","3.11720991135","1754.96385384","2.88279008865","1757.89705205","1759.27310395","1759.34844685","1762.35142994","0","1762.36670303","1766.75545883",""
"sujeto_efe9883f","1","2","18","50","1766.90159392","inverse","4","1","2","¿Cuántos países con monarquía 
hay en europa actualmente? ","6","10","","1","1","1","competitive","left","1.64935803413","1768.55101395","3.35064196587","1772.05701303","4.70803904533","1776.76511192","1.29196095467","1778.092731","1779.53102589","1779.60920882","1782.60984182","1","1782.62682486","1788.78364396",""
"sujeto_efe9883f","1","2","19","51","1788.91145396","direct","2","1","3","¿Cuántos capítulos de
 Friends existen? ","236","228","","1","1","1","competitive","right","3.19180202484","1792.10332489","1.80819797516","1794.08525205","3.92793512344","1798.01324987","2.07206487656","1800.12035704","1801.4258709","1801.50479794","1804.50776982","1","1804.52192092","1806.89756298",""
"sujeto_efe9883f","1","2","20","52","1807.04010487","inverse","1","1","3","¿Cuántas óperas compuso Mozart? ","27","22","","1","1","1","competitive","right","1.09623908997","1808.13644385","3.90376091003","1812.22867084","3.88072609901","1816.10943794","2.11927390099","1818.26298285","1819.55513382","1819.63066602","1822.63362694","1","1822.64794683","1829.95934987",""
"sujeto_efe9883f","1","2","21","53","1830.09879899","direct","4","1","3","¿Cuántos mundiales de fútbol 
femenino ha realizado FIFA? ","9","7","","1","1","1","competitive","right","1.00577306747","1831.10464001","3.99422693253","1835.25735092","3.47023820877","1838.72763205","2.52976179123","1841.30728698","1842.55099797","1842.62573099","1845.62613297","1","1845.64252591","1851.74498701",""
"sujeto_efe9883f","1","2","22","54","1851.91069984","inverse","3","1","2","¿Cuál es la temperatura 
media anual en Montevideo? ","17.5","16.3","","0","0","1","competitive","left","1.30104994774","1853.21182203","3.69895005226","1857.0690279","3.81573796272","1860.88482594","2.18426203728","1863.11923504","1865.0578239","1865.13680792","1868.13975596","0","1868.15480995","1874.7217989",""
"sujeto_efe9883f","1","2","23","55","1874.85631585","direct","2","1","2","¿En qué año se estrenó el
 videojuego The Sims? ","2000","2002","","0","0","0","competitive","left","1.16063308716","1876.016994","3.83936691284","1880.01309586","3.70994091034","1883.72309685","2.29005908966","1886.04813504","1887.91013288","1887.98270202","1890.98568487","0","1890.99970484","1898.39274096",""
"sujeto_efe9883f","1","2","24","56","1898.53503394","inverse","2","1","1","¿Cuál es la canción con 
mas covers? ","Yesterday","Stand by me","","0","0","0","competitive","left","2.27111697197","1900.80621696","2.72888302803","1903.69096899","3.99119019508","1907.68219995","2.00880980492","1909.74165082","1911.14014983","1911.20956087","1914.20983005","0","1914.22733903","1918.39813805",""
"sujeto_efe9883f","1","2","25","57","1918.52844882","direct","1","1","4","¿Cuánto duró la guerra
 de los 100 años?","116","123","","0","0","0","competitive","left","2.41592597961","1920.94444394","2.58407402039","1923.68267393","3.13075494766","1926.81348896","2.86924505234","1929.7213819","1931.20180488","1931.27237701","1934.27529383","0","1934.28956985","1936.60929585",""
"sujeto_efe9883f","1","2","26","58","1936.7420969","inverse","4","1","4","¿Qué color tiene la  bandera de Brasil?","Amarillo","Naranja","left","0","0","1","competitive","left","1.03236484528","1937.77451205","3.96763515472","1941.91328692","4.37425518036","1946.28758597","1.62574481964","1947.94721198","1949.51375604","1949.59890604","1952.60185885","1","1952.61593604","1955.64872789",""
"sujeto_efe9883f","1","2","27","59","1955.78488803","direct","4","1","3","¿Qué carabela de 
Colon no volvió del viaje?","Santa María","La pinta","","0","0","1","competitive","right","1.08080005646","1956.86577082","3.91919994354","1960.95205903","5.6926651001","1966.64478588","0.307334899902","1966.98819685","1968.47926188","1968.55493689","1971.55794191","0","1971.57216692","1973.66984105",""
"sujeto_efe9883f","1","2","28","60","1973.80755782","inverse","4","1","4","¿Cuántos huesos tiene
 un adulto humano?","217","206","","0","0","1","competitive","right","1.08628606796","1974.89390802","3.91371393204","1978.98252487","2.94539403915","1981.92795897","3.05460596085","1985.01296687","1986.28399587","1986.36161089","1989.36459589","0","1989.37974882","1997.21744299",""
"sujeto_efe9883f","1","2","29","61","1997.34812093","direct","1","1","1","¿Qué país africano fue 
fundado por esclavos?","Liberia","Chad","","0","0","0","competitive","left","1.39892482758","1998.74710894","3.60107517242","2002.5111959","4.30692791939","2006.81818986","1.69307208061","2008.56213498","2010.55381083","2010.63052082","2013.63350296","0","2013.64797401","2021.63782001",""
"sujeto_efe9883f","1","2","30","62","2021.78193283","inverse","4","1","2","¿A cuánto asciende la cima
 del monte Everest?","7.990 mts","8.848 mts","","0","0","1","competitive","right","1.67430496216","2023.45630002","3.32569503784","2026.94056082","4.20273208618","2031.14335489","1.79726791382","2032.99150491","2034.17634892","2034.25938201","2037.26183391","0","2037.27680087","2044.46084499",""
"sujeto_efe9883f","1","2","31","63","2044.59762597","direct","4","1","1","¿Cuál es el país mas chico?","Sealand","Luxemburgo","","1","1","1","competitive","right","1.0727930069","2045.67046785","3.9272069931","2049.75171304","3.71879601479","2053.47056985","2.28120398521","2055.80302405","2057.66649103","2057.75511098","2060.75809789","1","2060.77196002","2063.89383388",""
"sujeto_efe9883f","1","2","32","64","2064.02375698","inverse","2","1","4","¿Cuántas pirámides hay en Egipto?","10000","11000","","1","1","1","competitive","left","2.36888408661","2066.39268804","2.63111591339","2069.19099784","3.63767194748","2072.82873583","2.36232805252","2075.23064995","2076.26424694","2076.34893799","2079.34983587","1","2079.36633682","2084.47541094",""
"sujeto_efe9883f","1","3","1","65","2196.17606497","direct","2","1","2","¿Cuál es el quinto país con 
mas extensión?","Canadá","Brasil","","1","1","0","competitive","right","1.65172815323","2197.82785201","3.34827184677","2201.34873891","4.43512988091","2205.78392887","1.56487011909","2207.39993191","2208.73322487","2208.81722784","2211.81780887","1","2211.83501792","2219.56140304","2084.48708105"
"sujeto_efe9883f","1","3","2","66","2219.70265698","inverse","1","1","2","¿Qué rasgo facial no tiene
 la Mona Lisa?","Cejas","Pómulos","","0","0","1","competitive","left","2.08838820457","2221.79112005","2.91161179543","2224.89275193","3.49730682373","2228.3901","2.50269317627","2230.92939901","2232.67978501","2232.76428485","2235.76726699","0","2235.78125095","2242.05258703",""
"sujeto_efe9883f","1","3","3","67","2242.18262696","direct","4","1","3","¿Cuál es el país con 
mayor población?","Esados Unidos","China","right","0","0","1","competitive","right","1.33957910538","2243.52231288","3.66042089462","2247.37039304","3.14185810089","2250.51231599","2.85814189911","2253.42243385","2255.06844282","2255.15671182","2258.15970182","1","2258.17471504","2261.542068",""
"sujeto_efe9883f","1","3","4","68","2261.72586989","inverse","1","1","1","La palabra dinosaurio significa","Lagarto Terrible","Lagarto Dragón","","1","1","0","competitive","right","1.21258497238","2262.93852997","3.78741502762","2266.88312602","4.32020115852","2271.20338297","1.67979884148","2272.93489599","2274.10524082","2274.18480086","2277.18580985","1","2277.20210004","2280.06394482",""
"sujeto_efe9883f","1","3","5","69","2280.20447087","direct","2","1","3","¿Qué es el membrillero?","Arbol","Arbusto","","0","0","0","competitive","left","2.49143505096","2282.695961","2.50856494904","2285.35926104","3.11633300781","2288.47563791","2.88366699219","2291.39338899","2293.34751487","2293.42865992","2296.42982602","0","2296.44599295","2302.91001701",""
"sujeto_efe9883f","1","3","6","70","2303.04817104","inverse","3","1","3","¿Alrededor de qué planeta orbita 
el satélite Europa?","Jupiter","Saturno","","1","1","1","competitive","right","1.73353791237","2304.78176403","3.26646208763","2308.2222209","5.32746696472","2313.54975891","0.672533035278","2314.256109","2315.80092287","2315.87347198","2318.87644792","1","2318.89050984","2321.09383583",""
"sujeto_efe9883f","1","3","7","71","2321.22627187","direct","3","1","1","¿Donde fue el mundial de 
fútbol de 1954?","Suiza","Suecia","","1","1","1","competitive","right","1.42280292511","2322.64915085","3.57719707489","2326.38068295","4.66816401482","2331.04890299","1.33183598518","2332.432338","2333.6848979","2333.76617694","2336.7691679","1","2336.78335595","2340.69513297",""
"sujeto_efe9883f","1","3","8","72","2340.83497095","inverse","1","1","4","¿Cuál de los 7 enanitos
no tenía barba?","Bashful","Mudito","","1","1","0","competitive","right","1.34108495712","2342.17610097","3.65891504288","2345.99120593","4.85789489746","2350.84916592","1.14210510254","2352.02554202","2353.60571885","2353.67618299","2356.67914104","1","2356.693506","2361.62260389",""
"sujeto_efe9883f","1","3","9","73","2361.74606204","direct","3","1","2","¿Cual red social es
mas utilizada mundialmente?","Instagram","Facebook","","1","1","0","competitive","left","3.27620410919","2365.022331","1.72379589081","2366.90208888","4.35711407661","2371.25924301","1.64288592339","2372.95444202","2374.87178802","2374.95498896","2377.95794702","1","2377.9719739","2380.90647888",""
"sujeto_efe9883f","1","3","10","74","2381.05693603","inverse","4","1","1","¿Cuándo se inició la copa
 América de fútbol?","1916","1923","","1","1","1","competitive","left","1.08645391464","2382.14343882","3.91354608536","2386.24108195","4.18735694885","2390.42847991","1.81264305115","2392.29331183","2394.18980694","2394.27792597","2397.28090596","1","2397.29518485","2399.95131183",""
"sujeto_efe9883f","1","3","11","75","2400.0803709","direct","3","1","4","¿Cuántos presidentes de EEUU
han muerto asesinados?","3","4","","0","0","1","competitive","left","1.12922787666","2401.20971584","3.87077212334","2405.23867488","3.58390808105","2408.82262492","2.41609191895","2411.28930902","2412.77322483","2412.85811186","2415.86110187","0","2415.87450099","2419.51858497",""
"sujeto_efe9883f","1","3","12","76","2419.65956402","inverse","2","1","4","¿Cuántas veces participó EEUU
 en la copa América?","4","5","","0","0","1","competitive","left","1.82715606689","2421.48679399","3.17284393311","2424.81556988","4.57918381691","2429.39481282","1.42081618309","2430.85069203","2432.29380894","2432.36775589","2435.37070584","0","2435.38571787","2441.50288796",""
"sujeto_efe9883f","1","3","13","77","2441.63725996","direct","4","1","1","¿Cuál de estos países 
no formaba la URSS?","Azeribayán","Afganistán","","0","0","1","competitive","right","1.17871689796","2442.816046","3.82128310204","2446.79212403","4.26576495171","2451.05794501","1.73423504829","2452.84496784","2454.15800405","2454.22945189","2457.23243284","0","2457.246454","2465.22859383",""
"sujeto_efe9883f","1","3","14","78","2465.36712885","inverse","1","1","1","¿En qué año se inauguró
 el teatro Solís?","1867","1856","","0","0","0","competitive","right","1.78301596642","2467.1502099","3.21698403358","2470.55477595","4.14741182327","2474.70225","1.85258817673","2476.60619593","2477.66173887","2477.74062991","2480.74359298","0","2480.75689387","2487.40468287",""
"sujeto_efe9883f","1","3","15","79","2487.54176688","direct","1","1","4","¿A qué velocidad vuela 
el avión más rápido?","3529","3874","","0","0","0","competitive","right","1.06561589241","2488.60746002","3.93438410759","2492.71786189","5.29052495956","2498.00843191","0.709475040436","2498.75279593","2500.50829196","2500.58621001","2503.58920598","0","2503.60445905","2505.71473289",""
"sujeto_efe9883f","1","3","16","80","2505.85594082","inverse","3","1","4","¿De qué año es la primer 
película cinematográfica?","1897","1888","","0","0","0","competitive","left","0.778532981873","2506.63453889","4.22146701813","2511.04429603","4.59028911591","2515.6346519","1.40971088409","2517.09596586","2518.22896504","2518.31313396","2521.31611705","0","2521.33012605","2526.73990083",""
"sujeto_efe9883f","1","3","17","81","2526.88040495","direct","2","1","3","¿Cuántos países 
tiene nuestro planeta?","191","194","","1","1","1","competitive","right","1.05428409576","2527.93475485","3.94571590424","2532.03760004","3.39615392685","2535.43382502","2.60384607315","2538.07235599","2539.4295969","2539.52425599","2542.52722287","1","2542.54126787","2545.77958488",""
"sujeto_efe9883f","1","3","18","82","2545.90889502","inverse","2","1","2","¿Cuántos habitantes
 tiene Buenos Aires?","2.9000.000","3650000","","0","0","0","competitive","right","1.16197705269","2547.07094693","3.83802294731","2551.0651679","4.03574895859","2555.10096097","1.96425104141","2557.11648798","2558.51377702","2558.58406997","2561.58704495","0","2561.60121894","2567.43060803",""
"sujeto_efe9883f","1","3","19","83","2567.56935","direct","2","1","1","¿Cuántos kilos forman una tonelada?","1000","1500","left","1","1","1","competitive","left","1.05872106552","2568.62813687","3.94127893448","2572.72628188","4.57883405685","2577.305161","1.42116594315","2578.76135087","2580.64869595","2580.72759295","2583.73057294","1","2583.74486804","2589.7018249",""
"sujeto_efe9883f","1","3","20","84","2589.84520888","inverse","4","1","4","¿Cuántos estados tiene la 
República del Perú? ","24","23","","0","0","1","competitive","right","2.86004900932","2592.70535302","2.13995099068","2595.03781486","3.10647797585","2598.14433694","2.89352202415","2601.088938","2602.11113596","2602.19092584","2605.19387698","0","2605.20791793","2610.14986086",""
"sujeto_efe9883f","1","3","21","85","2610.30910087","direct","3","1","3","¿En qué año nació Cristóbal Colón? ","1451","1447","","0","0","1","competitive","right","1.1363158226","2611.44545889","3.8636841774","2615.49445796","3.53396177292","2619.02848387","2.46603822708","2621.54656005","2623.39243793","2623.46448684","2626.467448","0","2626.48275685","2630.710742",""
"sujeto_efe9883f","1","3","22","86","2630.86732793","inverse","4","1","4","¿Cuánto mide la 
Montaña Aconcagua? ","6234","6962","","0","0","1","competitive","right","0.898278951645","2631.76567698","4.10172104836","2636.0261519","3.75247597694","2639.77866983","2.24752402306","2642.07708192","2643.36584902","2643.46253991","2646.46553898","0","2646.47899604","2653.6617589",""
"sujeto_efe9883f","1","3","23","87","2653.79692388","direct","2","1","4","¿Cuánto mide el punto
 más profundo del océano? ","12508","11003","","0","0","1","competitive","left","1.61696195602","2655.41393089","3.38303804398","2658.97217083","4.34274101257","2663.3149519","1.65725898743","2665.00621891","2666.25771689","2666.33977389","2669.34180498","0","2669.35701394","2673.56015491",""
"sujeto_efe9883f","1","3","24","88","2673.69200587","inverse","1","1","3","¿Cuántos álbumes ha publicado 
el cantante Jaime Roos? ","41","34","","0","0","1","competitive","right","1.0630300045","2674.75510287","3.9369699955","2678.84792089","4.09817504883","2682.94615889","1.90182495117","2684.89942789","2686.38928485","2686.46704197","2689.47000885","0","2689.48504186","2695.67785192",""
"sujeto_efe9883f","1","3","25","89","2695.82033801","direct","4","1","3","¿En qué año nació el 
ex-presidente Jorge Battle? ","1921","1927","","1","1","1","competitive","left","1.86985421181","2697.69024491","3.13014578819","2701.00723791","3.66202688217","2704.66932702","2.33797311783","2707.04520583","2708.77586889","2708.8465209","2711.84950495","1","2711.86346197","2715.34951186",""
"sujeto_efe9883f","1","3","26","90","2715.48216295","inverse","1","1","3","¿Cuántas presidencias 
constitucionales  hubo en Uruguay? ","41","42","","0","0","1","competitive","right","1.05421590805","2716.53642488","3.94578409195","2720.63717794","4.56024718285","2725.19748402","1.43975281715","2726.67228389","2727.87600803","2727.95559788","2730.95858288","0","2730.97288203","2736.75651097",""
"sujeto_efe9883f","1","3","27","91","2736.89145088","direct","1","1","2","¿Quién escribió mas sinfonías?","Mozart","Haydn","","1","1","0","competitive","left","1.00516891479","2737.89667296","3.99483108521","2742.06499195","3.89365386963","2745.9587059","2.10634613037","2748.09936595","2749.31685901","2749.40008783","2752.40307593","1","2752.41736484","2756.1687839",""
"sujeto_efe9883f","1","3","28","92","2756.31889105","inverse","4","1","2","¿En qué año nació Michael Jackson?","1958","1953","","1","1","1","competitive","right","0.922873020172","2757.24183893","4.07712697983","2761.47424102","3.23154711723","2764.70584893","2.76845288277","2767.50908804","2769.48733282","2769.5611639","2772.56414294","1","2772.57834792","2778.43783689",""
"sujeto_efe9883f","1","3","29","93","2778.59683084","direct","3","1","2","¿En qué año entró en vigencia 
la ley antitabaco en Uruguay?","2005","2006","","1","1","1","competitive","left","1.23106598854","2779.82794094","3.76893401146","2783.764992","5.42493915558","2789.189991","0.575060844421","2789.80148983","2791.39621902","2791.46867299","2794.47164583","1","2794.48601294","2799.81781983",""
"sujeto_efe9883f","1","3","30","94","2799.95521092","inverse","3","1","1","¿Cuándo se subió el 
primer video a youtube?","2004","2005","","0","0","1","competitive","left","1.00001120567","2800.95528793","3.99998879433","2805.13160801","3.92548918724","2809.05713487","2.07451081276","2811.16529298","2812.47096586","2812.54989696","2815.55288291","0","2815.56719995","2823.32281995",""
"sujeto_efe9883f","1","3","31","95","2823.45235586","direct","2","1","1","¿Cuántos habitantes tiene India?","1200 millones","1300 millones","","0","0","0","competitive","right","1.31198382378","2824.76440382","3.68801617622","2828.62644982","3.651927948","2832.27841592","2.348072052","2834.67733598","2836.64583588","2836.72937989","2839.73235202","0","2839.74663687","2845.79383492",""
"sujeto_efe9883f","1","3","32","96","2845.93121004","inverse","4","1","2","¿A qué edad murió Bob Marley?","36","37","","0","0","1","competitive","left","1.29831910133","2847.22959304","3.70168089867","2851.1218679","2.6466460228","2853.76857591","3.3533539772","2857.15582705","2859.05368495","2859.1411159","2862.144104","0","2862.15817785","2865.26062894",""
"sujeto_efe9883f","1","4","1","97","2989.28098297","direct","2","1","1","¿Cuantos años dirigió la selección 
uruguaya Tabarez?","15 años","13 años","","0","0","0","competitive","left","3.93581104279","2993.21685982","1.06418895721","2994.44749594","4.4393928051","2998.88692904","1.5606071949","3000.49872088","3001.68986702","3001.766397","3004.76939297","0","3004.77752805","3011.84584904","2865.27216482"
"sujeto_efe9883f","1","4","2","98","3011.9782989","inverse","4","1","1","¿Cuantas teclas tiene un teclado 
de computadora generalmente? ","Entre 99 y 108","Entre 109 y 113","","1","1","1","competitive","left","0.800729990005","3012.77907586","4.19927000999","3017.15885305","5.13015508652","3022.28905082","0.869844913483","3023.21080303","3024.21357584","3024.29471803","3027.29769397","1","3027.31176686","3029.68320584",""
"sujeto_efe9883f","1","4","3","99","3029.81280398","direct","1","1","1","¿Cuál Departamento tiene
 mayor superficie?","Río Negro","Soriano","","0","0","0","competitive","left","2.64137411118","3032.45424199","2.35862588882","3034.98422599","3.91996502876","3038.90423584","2.08003497124","3041.033921","3042.74738789","3042.818506","3045.82149482","0","3045.83570385","3050.1617949",""
"sujeto_efe9883f","1","4","4","100","3050.30381489","inverse","3","1","2","¿Cuál es el apellido de las 
hermanastras  de  cenicienta?","Tremaine","Truman","","0","0","1","competitive","left","1.44647598267","3051.75033188","3.55352401733","3055.49581289","3.47459483147","3058.97044897","2.52540516853","3061.54585886","3063.41538692","3063.49624205","3066.49923682","0","3066.51357794","3069.20954204",""
"sujeto_efe9883f","1","4","5","101","3069.34818888","direct","4","1","4","¿Cuál película ganó un
 Oscar a mejor película?","Alto Impacto","Cache","","0","0","1","competitive","left","0.892330884933","3070.24058986","4.10766911507","3074.50507593","4.06546401978","3078.57058096","1.93453598022","3080.55632305","3081.67565084","3081.75777102","3084.76071095","0","3084.77473092","3087.03779292",""
"sujeto_efe9883f","1","4","6","102","3087.15954494","inverse","1","1","3","¿A cuántos centímetros
equivale la medida pié?","25","30","","0","0","1","competitive","left","0.948127985001","3088.10774183","4.051872015","3092.313761","4.16494011879","3096.47874498","1.83505988121","3098.36492205","3099.4049089","3099.48343682","3102.48642087","0","3102.50070882","3107.90165496",""
"sujeto_efe9883f","1","4","7","103","3108.0352509","direct","2","1","2","¿Qué departamento es mas grande?","Cerro Largo","Paysandú","","0","0","0","competitive","right","0.936637878418","3108.97195792","4.06336212158","3113.20904803","4.04985189438","3117.25896096","1.95014810562","3119.26058602","3120.86034703","3120.94532204","3123.94717598","0","3123.96045184","3128.07042003",""
"sujeto_efe9883f","1","4","8","104","3128.19522595","inverse","2","1","3","¿Quién pintó la Mona Lisa?","Picasso","Da Vinci","right","0","0","1","competitive","right","0.973788976669","3129.16908097","4.02621102333","3133.35341287","2.66569495201","3136.01914787","3.33430504799","3139.40368986","3141.00956082","3141.08810997","3144.09107494","1","3144.10610604","3146.26844192",""
"sujeto_efe9883f","1","4","9","105","3146.40693903","direct","4","1","3","¿Cuántos litros hay en un galon?","3.54","3.78","","1","1","1","competitive","right","0.749372959137","3147.15636182","4.25062704086","3151.57734489","3.28184485435","3154.85925484","2.71815514565","3157.61122799","3159.1290729","3159.21328402","3162.21627784","1","3162.23057389","3168.02293801",""
"sujeto_efe9883f","1","4","10","106","3168.14868999","inverse","4","1","1","¿Cuántas teclas tiene
 un piano moderno?","80","88","","0","0","1","competitive","right","0.656890153885","3168.80566382","4.34310984612","3173.3064599","4.39888501167","3177.70539093","1.60111498833","3179.358603","3180.36710191","3180.45935893","3183.46231484","0","3183.47670889","3190.27446699",""
"sujeto_efe9883f","1","4","11","107","3190.45031285","direct","4","1","3","¿Cuántos países hay en África?","54","62","","0","0","1","competitive","left","0.992838859558","3191.4432199","4.00716114044","3195.60194683","2.94756197929","3198.54954982","3.05243802071","3201.63529086","3203.32583189","3203.40395904","3206.40582991","0","3206.42194605","3214.226717",""
"sujeto_efe9883f","1","4","12","108","3214.38987899","inverse","1","1","3","¿En qué siglo se crearon
 las primeras pistolas?","XV","XIII","","1","1","1","competitive","left","0.833762168884","3215.22371793","4.16623783112","3219.54793191","3.58775997162","3223.13573599","2.41224002838","3225.59941483","3227.54732895","3227.63404799","3230.63700199","1","3230.65123391","3233.88434005",""
"sujeto_efe9883f","1","4","13","109","3234.01916003","direct","3","1","4","¿En qué año se estrenó 
la serie friends?","1994","1995","","0","0","1","competitive","right","1.2015349865","3235.22075891","3.7984650135","3239.17268991","3.54113793373","3242.71387196","2.45886206627","3245.2245419","3247.09983587","3247.17582202","3250.17777205","0","3250.19287395","3255.19890189",""
"sujeto_efe9883f","1","4","14","110","3255.361377","inverse","3","1","4","¿En qué año nació Hitler?","1889","1887","","0","0","1","competitive","right","0.867521047592","3256.22894382","4.13247895241","3260.51946592","4.14545702934","3264.66496205","1.85454297066","3266.55348587","3267.66777587","3267.73780084","3270.74080086","0","3270.75506902","3275.7820189",""
"sujeto_efe9883f","1","4","15","111","3275.90711403","direct","1","1","4","¿Cuánto pesa un elefante Africano?","6000 kilos","5400 kilos","","0","0","0","competitive","right","0.877911090851","3276.78508782","4.12208890915","3281.06265593","4.06543087959","3285.12812686","1.93456912041","3287.11466694","3288.47057986","3288.54848886","3291.55146694","0","3291.56575704","3298.27282095",""
"sujeto_efe9883f","1","4","16","112","3298.40091085","inverse","1","1","2","¿Qué porcentaje de 
la población es zurda?","10%","7%","","1","1","0","competitive","right","2.43831396103","3300.8392899","2.56168603897","3303.55767703","3.37750315666","3306.9352169","2.62249684334","3309.59345889","3310.83652282","3310.91090488","3313.91391802","1","3313.92791295","3319.90764904",""
"sujeto_efe9883f","1","4","17","113","3320.04621291","direct","1","1","2","¿En qué año se estrenó
Volver al futuro?","1984","1985","","0","0","1","competitive","left","1.36911487579","3321.41537189","3.63088512421","3325.20237184","3.58605194092","3328.78848505","2.41394805908","3331.2534349","3332.81522489","3332.8879509","3335.89091802","0","3335.90516996","3342.99657702",""
"sujeto_efe9883f","1","4","18","114","3343.12337899","inverse","3","1","2","¿Cuántos jugadores hay en un 
equipo de baseball?","9","8","","1","1","0","individual","right","1.05614113808","3344.17957687","3.94385886192","3348.29684496","4.09370088577","3352.3905859","1.90629911423","3354.33159089","3355.94580984","3355.98375893","3358.98672199","1","3359.00159287","3363.97883487",""
"sujeto_efe9883f","1","4","19","115","3364.11880994","direct","2","1","1","¿Cuántos Oscar ganó
 la película titanic?","13","11","","1","1","1","competitive","left","0.825852870941","3364.94472885","4.17414712906","3369.292377","3.05129313469","3372.34370899","2.94870686531","3375.34366202","3376.64569283","3376.72783685","3379.73081994","1","3379.74554396","3384.34821391",""
"sujeto_efe9883f","1","4","20","116","3384.48028398","inverse","4","1","4","¿En qué año comenzó
la segunda guerra mundial?","1939","1976","left","0","0","1","competitive","left","0.967560052872","3385.44792485","4.03243994713","3389.63609195","3.6517739296","3393.28790903","2.3482260704","3395.68738794","3397.48725486","3397.57210994","3400.57508683","1","3400.58931303","3404.57648182",""
"sujeto_efe9883f","1","4","21","117","3404.70770502","direct","2","1","4","¿Cuántos biomas hay en Uruguay?","5","4","","0","0","1","competitive","left","0.881294965744","3405.58906794","4.11870503426","3409.86168098","3.46733403206","3413.32905602","2.53266596794","3415.89732504","3417.69382095","3417.76534891","3420.76832795","0","3420.78349185","3427.03290486",""
"sujeto_efe9883f","1","4","22","118","3427.16854787","inverse","2","1","3","¿Cuándo murió Pablo Escobar?","1993","1997","","1","1","1","competitive","right","1.15462207794","3428.3232379","3.84537792206","3432.35485601","3.06632304192","3435.42124605","2.93367695808","3438.40661001","3440.18942904","3440.27439284","3443.27737689","1","3443.29161382","3448.99527192",""
"sujeto_efe9883f","1","4","23","119","3449.12716103","direct","1","1","4","¿Qué serie ha ganado mas premios?","Friends","Murphy Brown","","1","1","0","competitive","left","1.00510311127","3450.13232899","3.99489688873","3454.26992083","2.95537090302","3457.225348","3.04462909698","3460.32049298","3461.67286396","3461.75558686","3464.75856805","1","3464.77287197","3470.33382702",""
"sujeto_efe9883f","1","4","24","120","3470.47465682","inverse","4","1","2","¿Cuántas fichas tiene el dominó?","26","28","","1","1","1","competitive","right","0.89985704422","3471.37461996","4.10014295578","3475.66460085","4.4638478756","3480.1285069","1.5361521244","3481.70004082","3482.75530005","3482.83290505","3485.83587885","1","3485.85022402","3491.09333491",""
"sujeto_efe9883f","1","4","25","121","3491.218328","direct","2","1","4","¿Cuántos son los dientes de leche?","20","25","","0","0","1","competitive","right","1.30824804306","3492.52668095","3.69175195694","3496.39179683","4.51283597946","3500.90469384","1.48716402054","3502.4271059","3504.13747382","3504.21120882","3507.21419287","0","3507.22826004","3509.37397194",""
"sujeto_efe9883f","1","4","26","122","3509.51336288","inverse","3","1","3","¿Cuántos gramos son una onza?","22","28","","0","0","1","competitive","right","0.978396177292","3510.49180794","4.02160382271","3514.66848397","3.78027009964","3518.44881392","2.21972990036","3520.70248485","3522.69733691","3522.77048588","3525.77346182","0","3525.78843689","3532.0786829",""
"sujeto_efe9883f","1","4","27","123","3532.22295785","direct","3","1","1","¿Cuándo salió el primer album
 de los Beatles?","1963","1962","","1","1","1","competitive","right","0.891984939575","3533.11501098","4.10801506042","3537.38011789","4.54273700714","3541.92289186","1.45726299286","3543.41358089","3544.5772109","3544.64776492","3547.649822","1","3547.66400695","3551.43384504",""
"sujeto_efe9883f","1","4","28","124","3551.56592393","inverse","3","1","3","¿Quién fundó la empresa apple?","Carlos Slim","Steve Jobs","","1","1","1","competitive","right","2.39716291428","3553.963135","2.60283708572","3556.72223282","2.74779391289","3559.47008491","3.25220608711","3562.75831199","3563.87296104","3563.94363785","3566.94576192","1","3566.95983887","3573.25773692",""
"sujeto_efe9883f","1","4","29","125","3573.39499998","direct","4","1","2","¿Cuántos municipios hay
 en Montevideo?","8","7","","1","1","1","competitive","right","1.1762111187","3574.57127404","3.8237888813","3578.582726","2.32754015923","3580.91030502","3.67245984077","3584.61727691","3586.53206491","3586.62005687","3589.62304688","1","3589.63716698","3591.71830297",""
"sujeto_efe9883f","1","4","30","126","3591.85587382","inverse","1","1","1","¿Cuántos kilómetros hay
 de Montevideo a Artigas?","632","599","","0","0","0","competitive","left","1.23855209351","3593.09449387","3.76144790649","3597.01154399","3.17986297607","3600.19147301","2.82013702393","3603.06023288","3604.54337192","3604.62831688","3607.62982798","0","3607.64513302","3613.69725704",""
"sujeto_efe9883f","1","4","31","127","3613.82968402","direct","2","1","2","¿En qué año nació 
Leonardo Da Vinci?","1452","1511","","1","1","0","competitive","left","1.04482412338","3614.87457204","3.95517587662","3618.98952293","3.10999083519","3622.09957385","2.89000916481","3625.02395797","3626.877563","3626.958709","3629.96040082","1","3629.97551394","3633.12190795",""
"sujeto_efe9883f","1","4","32","128","3633.26088095","inverse","3","1","1","¿A qué continente
 pertenece el país Gabón?","Africa","Oceanía","","0","0","1","competitive","left","0.695798158646","3633.95672798","4.30420184135","3638.41568589","4.30402994156","3642.71977901","1.69597005844","3644.46772504","3646.27940702","3646.35164094","3649.35383391","0","3649.36989903","3654.60581803",""
