"code","nro_aplicante","nro_bloque","nro_trial_bloque","nro_trial_global","show_game_type","choice_order","rival","pay_individual","pay_competitive","question","answer_left_text","answer_right_text","correct_answer","outcome_individual","outcome_competitive","outcome_rival","game_type","answer","social_time","rt_game_type","feedback_delay","show_question","answer_time","rt_answer_global","feedback_delay_2","show_jitter","jitter_time","show_outcome","outcome_time","outcome_participant_real","show_final_jitter","second_jitter_time","inicio_descanso"
"sujeto_d04e11ed","1","1","1","1","16.2968440056","direct","3","1","4","¿Cuántos centímetros corresponden
al talle 36 del calzado?","23","24","","0","0","1","competitive","right","1.150578022","17.4474658966","3.849421978","21.4880859852","4.69418096542","26.1823658943","1.30581903458","27.5403120518","28.5686049461","28.6412899494","31.6437628269","0","31.6583719254","33.8208799362",""
"sujeto_d04e11ed","1","1","2","2","33.960297823","inverse","3","1","2","¿Cuántas metros mide la Intendencia
Municipal de Montevideo? ","84","78","","0","0","1","competitive","left","1.74228596687","35.7026510239","3.25771403313","39.1143260002","4.99225783348","44.1066439152","1.00774216652","45.1485328674","47.0265169144","47.0991270542","50.1021199226","0","50.1166210175","52.2092728615",""
"sujeto_d04e11ed","1","1","3","3","52.3521058559","direct","1","1","3","¿Cuántas La Pasiva
 hay en uruguay?","15","11","","1","1","1","competitive","right","1.26755785942","53.6197328568","3.73244214058","57.508713007","3.35809707642","60.8668708801","2.64190292358","63.5587358475","65.1704230309","65.2432069778","68.2461838722","1","68.2606589794","72.539003849",""
"sujeto_d04e11ed","1","1","4","4","72.6785290241","inverse","3","1","3","¿De que color es la camiseta de uruguay?","blanca","celeste","right","1","1","1","competitive","right","1.17074418068","73.849323988","3.82925581932","77.852175951","1.83068084717","79.6828999519","4.16931915283","83.9017510414","85.106523037","85.187844038","88.1907968521","1","88.2050828934","91.6589920521",""
"sujeto_d04e11ed","1","1","5","5","91.8065128326","direct","2","1","1","¿Cuánto metros mide
la torre Eiffel?","333","324","","1","1","1","competitive","right","1.13956809044","92.9461870193","3.86043190956","96.9601750374","1.99583911896","98.9560508728","4.00416088104","102.993373871","104.514760971","104.59630394","107.599292994","1","107.613775015","114.650468826",""
"sujeto_d04e11ed","1","1","6","6","114.798415899","inverse","3","1","4","¿Cuantas ciudades existen
 en todo el uruguay?","63","72","","0","0","1","competitive","right","1.24991798401","116.048385859","3.75008201599","119.974227905","4.25501298904","124.229300976","1.74498701096","126.025169849","127.079222918","127.159342051","130.162279844","0","130.176980019","137.803573847",""
"sujeto_d04e11ed","1","1","7","7","137.945189953","direct","1","1","1","¿Cuantos estados tiene África?","52","54","","1","1","0","competitive","right","0.952183008194","138.897421837","4.04781699181","143.101897001","4.13258910179","147.2345469","1.86741089821","149.153699875","151.017725945","151.087749958","154.090734005","1","154.106415987","159.867414951",""
"sujeto_d04e11ed","1","1","8","8","160.023794889","inverse","4","1","4","¿En qué año nació
 Stephen Hawking?","1952","1942","","0","0","1","competitive","left","1.59877896309","161.622637987","3.40122103691","165.197928905","3.23069500923","168.428661823","2.76930499077","171.24809885","172.692440033","172.766170025","175.769162893","0","175.783433914","181.882793903",""
"sujeto_d04e11ed","1","1","9","9","182.035660028","direct","2","1","3","¿Cuánto años tenía Artigas
 cuando se fue a Paraguay?","56","57","","1","1","1","competitive","left","0.925149917603","182.960883856","4.0748500824","187.204632998","3.24418306351","190.44888401","2.75581693649","193.24000001","194.789530993","194.874774933","197.877750874","1","197.892231941","203.939553976",""
"sujeto_d04e11ed","1","1","10","10","204.077769995","inverse","1","1","2","¿Cuantos milímetros 
mide una hoja A2?","420x592","420x594","","0","0","1","competitive","right","1.60922002792","205.687033892","3.39077997208","209.238236904","5.80779790878","215.046092987","0.192202091217","215.27274394","216.841184855","216.923380852","219.92633605","0","219.94083786","227.014468908",""
"sujeto_d04e11ed","1","1","11","11","227.158368826","direct","3","1","3","¿Cuál es la menor temperatura 
registrada en Uruguay?","-5.4","-7.4","","0","0","1","competitive","right","1.25387811661","228.412315845","3.74612188339","232.33362484","3.67959690094","236.013260841","2.32040309906","238.383752823","240.065799952","240.15158391","243.154546022","0","243.170167923","246.903424978",""
"sujeto_d04e11ed","1","1","12","12","247.053746939","inverse","2","1","2","¿Cuantos años hace que 
se fundó facebook?","18","17","","0","0","0","competitive","left","0.975587844849","248.029402018","4.02441215515","252.209120989","4.005215168","256.214372873","1.994784832","258.260784864","259.63352704","259.71151495","262.714478016","0","262.729698896","265.504345894",""
"sujeto_d04e11ed","1","1","13","13","265.63111496","direct","1","1","4","¿Cuál animal es más
 pesado en promedio?","Rinoceronte","Hipopotamo","","0","0","0","competitive","right","0.886548995972","266.517737865","4.11345100403","270.798092842","3.5907459259","274.388880968","2.4092540741","276.901417971","277.980689049","278.052613974","281.055610895","0","281.070067883","284.911059856",""
"sujeto_d04e11ed","1","1","14","14","285.054894924","inverse","1","1","2","¿Qué personaje de dragon ball 
murió más veces?","Chaoz","Krillin","","1","1","0","competitive","right","1.60029292107","286.655253887","3.39970707893","290.213856936","3.94946217537","294.163360834","2.05053782463","296.264771938","297.722591877","297.799677849","300.802660942","1","300.817332029","308.59027791",""
"sujeto_d04e11ed","1","1","15","15","308.734787941","direct","3","1","2","La universidad de oxford. 
existe desde:","1096","1249","","1","1","0","competitive","right","0.92294883728","309.657786846","4.07705116272","313.892588854","4.13235902786","318.024991035","1.86764097214","319.944238901","320.99305892","321.078654051","324.081590891","1","324.096298933","330.787137032",""
"sujeto_d04e11ed","1","1","16","16","330.930716038","inverse","3","1","1","¿Qué escritor latino ganó antes
 el premio nobel?"," García Marquez","Neruda","","0","0","1","competitive","left","0.821581125259","331.752342939","4.17841887474","336.088171959","4.38630318642","340.474535942","1.61369681358","342.139484882","343.879478931","343.957123041","346.960119963","0","346.97533989","350.435863972",""
"sujeto_d04e11ed","1","1","17","17","350.576545954","direct","4","1","3","¿Cuántos dientes tiene un
 tiburón blanco?","6000","3000","","0","0","1","competitive","left","1.44616580009","352.022754908","3.55383419991","355.727560997","4.78732204437","360.514942884","1.21267795563","361.780520916","362.819540977","362.897932053","365.900866985","0","365.915559053","370.725188971",""
"sujeto_d04e11ed","1","1","18","18","370.866508007","inverse","4","1","1","¿Cuánto mide el paralelo Ecuador?","40.000km","70.000km","","0","0","1","competitive","right","0.944604158401","371.81118989","4.0553958416","376.04322505","4.19110894203","380.234395027","1.80889105797","382.094878912","384.051002026","384.129215956","387.132236004","0","387.146719933","390.749321938",""
"sujeto_d04e11ed","1","1","19","19","390.881438017","direct","4","1","2","¿Cuál fue el primer libro 
de Stephen King?","Carrie","The Stand","","1","1","1","competitive","right","1.54418301582","392.425663948","3.45581698418","396.053972006","2.66974210739","398.723770857","3.33025789261","402.10405302","403.848170996","403.922442913","406.92540884","1","406.940718889","411.41382885",""
"sujeto_d04e11ed","1","1","20","20","411.558728933","inverse","2","1","3","¿Qué civilización practicaba
 la momificación?","Grecia","Egipto","right","0","0","1","competitive","right","0.981356859207","412.540186882","4.01864314079","416.714659929","2.6965470314","419.411267042","3.3034529686","422.764070034","424.70338583","424.780930996","427.783921957","1","427.799413919","432.028214931",""
"sujeto_d04e11ed","1","1","21","21","432.167414904","direct","4","1","4","¿Cuántos millones de visitas
 recibe google por minuto?","3.0","4.5","","0","0","1","competitive","right","0.99111199379","433.158596039","4.00888800621","437.324378967","4.23925685883","441.563700914","1.76074314117","443.375933886","444.890207052","444.976841927","447.979832888","0","447.994415998","455.117101908",""
"sujeto_d04e11ed","1","1","22","22","455.245781898","inverse","1","1","3","La máquina de fax. se inventó en:","1843","1960","","0","0","1","competitive","left","0.841263055801","456.087122917","4.1587369442","460.405107021","4.50200104713","464.907182932","1.49799895287","466.456866026","467.698009014","467.773582935","470.776506901","0","470.791069984","474.027390003",""
"sujeto_d04e11ed","1","1","23","23","474.175865889","direct","2","1","4","En la verdadera historia de los
 300 espartanos. habían:","300 soldados","4300 soldados","","1","1","1","competitive","right","0.8395819664","475.015496016","4.1604180336","479.348984003","4.30742907524","483.656450987","1.69257092476","485.400079966","486.661315918","486.733515024","489.736470938","1","489.751791954","493.553540945",""
"sujeto_d04e11ed","1","1","24","24","493.686810017","inverse","1","1","4","¿Cuántos milímetros crece
 el pelo por día?","0.4","0.04","","0","0","0","competitive","right","1.21289896965","494.899773836","3.78710103035","498.858894825","3.69698905945","502.555943012","2.30301094055","504.909960032","506.670708895","506.745069981","509.748028994","0","509.76245594","516.497560024",""
"sujeto_d04e11ed","1","1","25","25","516.6467309","direct","4","1","1","¿Cuánto mide la baldosa gris 
clásica de Montevideo?","22x22 cm.","20x20 cm.","","1","1","1","competitive","right","1.59154105186","518.23831892","3.40845894814","521.805191994","3.80713510513","525.612395048","2.19286489487","527.872009039","529.867255926","529.939717054","532.942693949","1","532.958291054","538.500287056",""
"sujeto_d04e11ed","1","1","26","26","538.625980854","inverse","2","1","2","¿Cuántas películas de rápidos
 y furiosos hay?","10","11","","1","1","0","competitive","right","1.00865197182","539.63467598","3.99134802818","543.783081055","2.53164410591","546.314767838","3.46835589409","549.833156824","551.191186905","551.268445969","554.271425962","1","554.286006927","556.320713043",""
"sujeto_d04e11ed","1","1","27","27","556.453943014","direct","3","1","1","¿Cuántos masters 1000
 ganó Del Potro?","1","2","","1","1","1","competitive","right","0.863060951233","557.317056894","4.13693904877","561.608773947","3.44731283188","565.056136847","2.55268716812","567.643326044","569.397217035","569.478694916","572.481688976","1","572.495957851","579.89228487",""
"sujeto_d04e11ed","1","1","28","28","580.030182838","inverse","2","1","4","¿Cuántos meses dura el 
embarazo de una leona?","3 meses","4 meses","","0","0","1","competitive","right","0.775239944458","580.805491924","4.22476005554","585.186095953","3.63937187195","588.825525999","2.36062812805","591.239603996","592.350700855","592.423786879","595.426767826","0","595.441171885","602.16364193",""
"sujeto_d04e11ed","1","1","29","29","602.311415911","direct","1","1","1","¿En qué año fue creado
 el sandwich?","1762","1653","","1","1","0","competitive","left","0.758427858353","603.06988883","4.24157214165","607.466716051","3.65515494347","611.121903896","2.34484505653","613.517987967","615.11656189","615.201850891","618.204860926","1","618.219651937","621.690245867",""
"sujeto_d04e11ed","1","1","30","30","621.838712931","inverse","4","1","2","El nombre de la moneda de Vietnam es:","Dinar","Dong","","0","0","1","competitive","right","0.955487966537","622.794270992","4.04451203346","627.009937048","3.29040908813","630.300385952","2.70959091187","633.061457872","634.493204832","634.579443932","637.582387924","0","637.597002983","643.765383959",""
"sujeto_d04e11ed","1","1","31","31","643.897686005","direct","2","1","1","¿cuantos aleteos puede dar 
un colibrí por segundo?","120","50","","0","0","0","competitive","left","1.66491818428","645.562669039","3.33508181572","649.072634935","3.10503983498","652.177717924","2.89496016502","655.12302804","656.855454922","656.940958977","659.943912029","0","659.959307909","664.171619892",""
"sujeto_d04e11ed","1","1","32","32","664.319499969","inverse","4","1","3","¿Qué altura promedio tienen
 los hombres uruguayos?","1.73 m","1.72 m","","1","1","1","competitive","right","0.704306125641","665.023892879","4.29569387436","669.480265856","3.19778108597","672.678088903","2.80221891403","675.532644987","676.795058012","676.866982937","679.869959831","1","679.885408878","684.361343861",""
"sujeto_d04e11ed","1","2","1","33","802.694092989","direct","1","1","1","¿En qué año nació 
el actor Bradd Pitt?","1967","1963","","1","1","1","competitive","left","0.904148101807","803.598284006","4.09585189819","807.872058868","3.59122395515","811.463321924","2.40877604485","813.922916889","815.018246889","815.090391874","818.093375921","1","818.10787797","824.03545785","684.376613855"
"sujeto_d04e11ed","1","2","2","34","824.175981045","inverse","2","1","1","¿Cual es el segundo 
monte más alto?","Kanchenjunga","K2","","1","1","1","competitive","right","0.86861205101","825.044663906","4.13138794899","829.35098505","4.17463493347","833.525658846","1.82536506653","835.385980844","836.838366985","836.919947863","839.922247887","1","839.937978983","843.367209911",""
"sujeto_d04e11ed","1","2","3","35","843.505974054","direct","3","1","1","¿Cuándo finalizó la construcción
 del Palacio Legislativo?","1925","1917","","0","0","1","competitive","left","0.854366064072","844.360407829","4.14563393593","848.678741932","4.12414717674","852.802924871","1.87585282326","854.730082035","856.371820927","856.44689393","859.449234962","0","859.464553833","865.16206193",""
"sujeto_d04e11ed","1","2","4","36","865.316246986","inverse","3","1","3","¿Cuántos integrantes tenía
 en su inicio  el cuarteto de nos?","3","4","","1","1","1","competitive","right","0.861052036285","866.177405834","4.13894796371","870.488324881","4.07296490669","874.561350822","1.92703509331","876.540452003","877.673502922","877.758163929","880.761185884","1","880.775467873","886.425300837",""
"sujeto_d04e11ed","1","2","5","37","886.577083826","direct","2","1","3","¿Qué valor tiene el número pi?","3.14","4.18","left","0","0","1","competitive","left","0.879439115524","887.456567049","4.12056088448","891.73250699","2.15509200096","893.887639046","3.84490799904","897.78270483","899.236922026","899.318490982","902.321481943","1","902.337297916","909.258285999",""
"sujeto_d04e11ed","1","2","6","38","909.403755903","inverse","2","1","2","¿Cuál es la esperanza de vida
 en Uruguay?","75","77","","1","1","0","competitive","right","0.850098848343","910.253918886","4.14990115166","914.562526941","2.46740198135","917.029993057","3.53259801865","920.613517046","922.267273903","922.348420858","925.351414919","1","925.366016865","931.82901001",""
"sujeto_d04e11ed","1","2","7","39","931.967438936","direct","1","1","2","¿Cuantos pisos tiene la torre 
de las comunicaciones?","26","32","","1","1","0","competitive","left","0.893214941025","932.860760927","4.10678505898","937.12519002","3.87510108948","941.000330925","2.12489891052","943.158938885","944.987756014","945.061065912","948.064033031","1","948.077779055","950.224009037",""
"sujeto_d04e11ed","1","2","8","40","950.363026857","inverse","2","1","4","¿En qué país sudamericano 
no hay McDonalds?","Bolivia","Venezuela","","0","0","1","competitive","left","0.98682808876","951.349931955","4.01317191124","955.534211874","3.81231498718","959.346586943","2.18768501282","961.570696831","962.880080938","962.953518867","965.95647788","0","965.971797943","972.33155489",""
"sujeto_d04e11ed","1","2","9","41","972.472885847","direct","3","1","1","¿En qué año empieza
 la Edad Media?","476","512","","1","1","1","competitive","right","0.994875907898","973.467808962","4.0051240921","977.628373861","3.86349797249","981.491912842","2.13650202751","983.663316011","985.066230059","985.147099018","988.150064945","1","988.164706945","991.153228045",""
"sujeto_d04e11ed","1","2","10","42","991.299831867","inverse","3","1","4","¿Hace cuántos años surgió
 el ser humano?","200mil","300mil","","0","0","0","competitive","right","0.896250009537","992.196219921","4.10374999046","996.473537922","3.6814930439","1000.15508103","2.3185069561","1002.52382684","1004.40990186","1004.49219489","1007.4951489","0","1007.5097909","1010.81883597",""
"sujeto_d04e11ed","1","2","11","43","1010.96115804","direct","3","1","4","¿Cuántas cuadras tiene
 actualmente 18 de julio? ","36","33","","0","0","1","competitive","right","0.948205947876","1011.90941596","4.05179405212","1016.11642194","4.98302412033","1021.09950495","1.01697587967","1022.16877294","1023.87103796","1023.95240998","1026.95537901","0","1026.96978784","1031.69608688",""
"sujeto_d04e11ed","1","2","12","44","1031.83834386","inverse","1","1","4","¿Qué juego de equipo se 
considera mas rápido?","Lacrosse","Badminton","","0","0","0","competitive","left","1.17224597931","1033.01066494","3.82775402069","1037.00943494","3.35424017906","1040.36371088","2.64575982094","1043.06131697","1044.30444384","1044.37896991","1047.38196301","0","1047.39646888","1055.39163303",""
"sujeto_d04e11ed","1","2","13","45","1055.53091884","direct","1","1","3","¿Qué promedio de edad 
vive una jirafa? ","25","20","","0","0","1","competitive","left","1.14604592323","1056.67701602","3.85395407677","1060.68892694","1.72916817665","1062.41818905","4.27083182335","1066.72232485","1068.48383999","1068.55764985","1071.56062293","0","1071.57565403","1077.53137493",""
"sujeto_d04e11ed","1","2","14","46","1077.67679191","inverse","1","1","2","¿Cuántos grandes lagos hay?","7","5","","0","0","1","competitive","left","0.902415037155","1078.579252","4.09758496284","1082.83498096","3.4993519783","1086.33439302","2.5006480217","1088.86947894","1090.16164899","1090.25363803","1093.25662398","0","1093.27116394","1101.09255791",""
"sujeto_d04e11ed","1","2","15","47","1101.23952699","direct","3","1","2","¿Cuántos discos de estudio
 grabó Johhny Cash? ","54","43","","1","1","0","competitive","right","1.27809619904","1102.51769495","3.72190380096","1106.39827299","3.98537611961","1110.38368893","2.01462388039","1112.44902587","1113.72726989","1113.80038404","1116.80322599","1","1116.81760097","1123.46853185",""
"sujeto_d04e11ed","1","2","16","48","1123.61836696","inverse","4","1","1","¿Cuántos barrios tiene
 Montevideo? ","71","62","","0","0","1","competitive","right","0.952485799789","1124.57093406","4.04751420021","1128.79362202","3.70139598846","1132.49507785","2.29860401154","1134.84463787","1135.85126305","1135.92863798","1138.93162394","0","1138.94585299","1144.40788698",""
"sujeto_d04e11ed","1","2","17","49","1144.54763699","direct","3","1","3","¿Qué edad tiene Homero Simpson?","36","42","","0","0","1","competitive","right","1.59547615051","1146.14317489","3.40452384949","1149.72131085","2.34692192078","1152.06827688","3.65307807922","1155.75447083","1157.13050795","1157.22311306","1160.226125","0","1160.24074292","1164.62949395",""
"sujeto_d04e11ed","1","2","18","50","1164.79140592","inverse","4","1","2","¿Cuántos países con monarquía 
hay en europa actualmente? ","6","10","","1","1","1","competitive","left","0.729027032852","1165.52047491","4.27097296715","1169.94764495","3.78589701653","1173.73358202","2.21410298347","1175.99868083","1177.43695593","1177.51674294","1180.51828885","1","1180.53487682","1186.69170189",""
"sujeto_d04e11ed","1","2","19","51","1186.83636093","direct","2","1","3","¿Cuántos capítulos de
 Friends existen? ","236","228","","1","1","1","competitive","right","0.858935117722","1187.69537091","4.14106488228","1191.99247503","3.20929408073","1195.20183301","2.79070591927","1198.0268569","1199.33243489","1199.41238785","1202.41537499","1","1202.42686701","1204.80252004",""
"sujeto_d04e11ed","1","2","20","52","1204.9438529","inverse","1","1","3","¿Cuántas óperas compuso Mozart? ","27","22","","1","1","1","competitive","left","0.798085927963","1205.74201488","4.20191407204","1210.11720991","2.20481681824","1212.32209802","3.79518318176","1216.16914296","1217.46131992","1217.53778696","1220.53855896","1","1220.55578804","1227.86726785",""
"sujeto_d04e11ed","1","2","21","53","1228.00690389","direct","4","1","3","¿Cuántos mundiales de fútbol 
femenino ha realizado FIFA? ","9","7","","1","1","1","competitive","right","1.11439585686","1229.12136602","3.88560414314","1233.17748284","3.71888995171","1236.89643192","2.28111004829","1239.22864604","1240.47233486","1240.54647684","1243.54947305","1","1243.56409001","1249.66655183",""
"sujeto_d04e11ed","1","2","22","54","1249.81528306","inverse","3","1","2","¿Cuál es la temperatura 
media anual en Montevideo? ","17.5","16.3","","0","0","1","competitive","left","0.84175491333","1250.65710282","4.15824508667","1254.97604799","4.02858710289","1259.0047009","1.97141289711","1261.011024","1262.94962382","1263.02684402","1266.02981496","0","1266.04433203","1272.61386204",""
"sujeto_d04e11ed","1","2","23","55","1272.74580789","direct","2","1","2","¿En qué año se estrenó el
 videojuego The Sims? ","2000","2002","","0","0","0","competitive","right","0.796082019806","1273.54196596","4.20391798019","1277.90475893","3.18411302567","1281.08893204","2.81588697433","1283.95516992","1285.81716895","1285.88983202","1288.89284205","0","1288.90839005","1296.30199099",""
"sujeto_d04e11ed","1","2","24","56","1296.44268584","inverse","2","1","1","¿Cuál es la canción con 
mas covers? ","Yesterday","Stand by me","","0","0","0","competitive","left","0.694515943527","1297.13724685","4.30548405647","1301.60070705","2.65150594711","1304.25227404","3.34849405289","1307.65094805","1309.04888201","1309.13670087","1312.13966203","0","1312.15401483","1316.324862",""
"sujeto_d04e11ed","1","2","25","57","1316.47175002","direct","1","1","4","¿Cuánto duró la guerra
 de los 100 años?","116","123","","0","0","0","competitive","left","1.12860202789","1317.6004169","3.87139797211","1321.62660098","3.05588912964","1324.68252993","2.94411087036","1327.678514","1329.15932298","1329.24738789","1332.25037003","0","1332.2645669","1334.58436584",""
"sujeto_d04e11ed","1","2","26","58","1334.71571994","inverse","4","1","4","¿Qué color tiene la  bandera de Brasil?","Amarillo","Naranja","left","0","0","1","competitive","left","0.854296922684","1335.57009602","4.14570307732","1339.87077498","2.28998398781","1342.16082191","3.71001601219","1345.92182493","1347.48836684","1347.57300091","1350.57600093","1","1350.59065199","1353.62344694",""
"sujeto_d04e11ed","1","2","27","59","1353.75889683","direct","4","1","3","¿Qué carabela de 
Colon no volvió del viaje?","Santa María","La pinta","","0","0","1","competitive","left","1.5079331398","1355.26689386","3.4920668602","1358.948241","3.78965902328","1362.73793888","2.21034097672","1364.99849987","1366.48956084","1366.56671","1369.56968999","0","1369.58393884","1371.68340302",""
"sujeto_d04e11ed","1","2","28","60","1371.83538198","inverse","4","1","4","¿Cuántos huesos tiene
 un adulto humano?","217","206","","0","0","1","competitive","left","0.787712097168","1372.62315989","4.21228790283","1377.00234795","2.14379811287","1379.14620805","3.85620188713","1383.03906083","1384.31008887","1384.38977098","1387.39275789","0","1387.40734386","1395.24505091",""
"sujeto_d04e11ed","1","2","29","61","1395.39195704","direct","1","1","1","¿Qué país africano fue 
fundado por esclavos?","Liberia","Chad","","0","0","0","competitive","right","0.854433059692","1396.24643493","4.14556694031","1400.58643603","4.69499111176","1405.28148389","1.30500888824","1406.6377809","1408.62938404","1408.70545387","1411.70839286","0","1411.72307491","1419.71391988",""
"sujeto_d04e11ed","1","2","30","62","1419.85763502","inverse","4","1","2","¿A cuánto asciende la cima
 del monte Everest?","7.990 mts","8.848 mts","","0","0","1","competitive","right","0.804059028625","1420.66175199","4.19594097137","1425.03317094","4.90364718437","1429.93687797","1.09635281563","1431.08466387","1432.26954484","1432.35161304","1435.35463595","0","1435.3683579","1442.55240989",""
"sujeto_d04e11ed","1","2","31","63","1442.68945599","direct","4","1","1","¿Cuál es el país mas chico?","Sealand","Luxemburgo","","1","1","1","competitive","right","1.40357208252","1444.09309006","3.59642791748","1447.86145687","4.47966098785","1452.34119487","1.52033901215","1453.91317487","1455.77672195","1455.86294293","1458.86596084","1","1458.88076782","1462.00303102",""
"sujeto_d04e11ed","1","2","32","64","1462.13246393","inverse","2","1","4","¿Cuántas pirámides hay en Egipto?","10000","11000","","1","1","1","competitive","right","0.745795965195","1462.87832093","4.25420403481","1467.28877997","2.94845104218","1470.23726797","3.05154895782","1473.33936095","1474.37296891","1474.45680404","1477.45977592","1","1477.474159","1482.5832119",""
"sujeto_d04e11ed","1","3","1","65","1585.99040389","direct","2","1","2","¿Cuál es el quinto país con 
mas extensión?","Canadá","Brasil","","1","1","0","competitive","left","0.895309925079","1586.88575792","4.10469007492","1591.15320587","3.20755290985","1594.36081696","2.79244709015","1597.20410705","1598.53742504","1598.62221098","1601.62519288","1","1601.63989782","1609.36626101","1482.59819603"
"sujeto_d04e11ed","1","3","2","66","1609.50792503","inverse","1","1","2","¿Qué rasgo facial no tiene
 la Mona Lisa?","Cejas","Pómulos","","0","0","1","competitive","left","1.11925315857","1610.62723303","3.88074684143","1614.66598201","3.53607606888","1618.20211887","2.46392393112","1620.71623993","1622.46663189","1622.55126595","1625.55423594","0","1625.56872582","1631.84004498",""
"sujeto_d04e11ed","1","3","3","67","1631.98738289","direct","4","1","3","¿Cuál es el país con 
mayor población?","Esados Unidos","China","right","0","0","1","competitive","right","1.28597187996","1633.273458","3.71402812004","1637.16065097","3.0996530056","1640.26036787","2.9003469944","1643.21147299","1644.85749292","1644.94649601","1647.94948292","1","1647.96386504","1651.33119988",""
"sujeto_d04e11ed","1","3","4","68","1651.46496105","inverse","1","1","1","La palabra dinosaurio significa","Lagarto Terrible","Lagarto Dragón","","1","1","0","competitive","right","1.28556799889","1652.750597","3.71443200111","1656.61901593","4.39747285843","1661.01652789","1.60252714157","1662.66981792","1663.84019303","1663.92154002","1666.92450094","1","1666.93903589","1669.80085897",""
"sujeto_d04e11ed","1","3","5","69","1669.956985","direct","2","1","3","¿Qué es el membrillero?","Arbol","Arbusto","","0","0","0","competitive","left","1.1547191143","1671.11174583","3.8452808857","1675.11427999","2.79550981522","1677.90983105","3.20449018478","1681.14833999","1683.10246396","1683.17741394","1686.18039298","0","1686.19465685","1692.65870094",""
"sujeto_d04e11ed","1","3","6","70","1692.79603696","inverse","3","1","3","¿Alrededor de qué planeta orbita 
el satélite Europa?","Jupiter","Saturno","","1","1","1","competitive","left","0.834922790527","1693.63103485","4.16507720947","1697.96000099","4.52808308601","1702.48812604","1.47191691399","1704.01112199","1705.55592394","1705.62816501","1708.63110685","1","1708.64637184","1710.85153985",""
"sujeto_d04e11ed","1","3","7","71","1711.01444483","direct","3","1","1","¿Donde fue el mundial de 
fútbol de 1954?","Suiza","Suecia","","1","1","1","competitive","left","0.941702127457","1711.95619583","4.05829787254","1716.18168592","3.46762490273","1719.64935803","2.53237509727","1722.23336601","1723.48590493","1723.56800103","1726.57100987","1","1726.58556485","1730.49727988",""
"sujeto_d04e11ed","1","3","8","72","1730.65350485","inverse","1","1","4","¿Cuál de los 7 enanitos
no tenía barba?","Bashful","Mudito","","1","1","0","competitive","right","0.948976039886","1731.60253096","4.05102396011","1735.82960606","3.60085701942","1739.43052387","2.39914298058","1741.87885594","1743.45897985","1743.54566288","1746.54865599","1","1746.56339788","1751.49247384",""
"sujeto_d04e11ed","1","3","9","73","1751.63108993","direct","3","1","2","¿Cual red social es
mas utilizada mundialmente?","Instagram","Facebook","","1","1","0","competitive","right","0.681671857834","1752.31284404","4.31832814217","1756.80752206","3.35321807861","1760.16078091","2.64678192139","1762.85804796","1764.77427888","1764.85959101","1767.86260295","1","1767.876858","1770.81136084",""
"sujeto_d04e11ed","1","3","10","74","1770.96210194","inverse","4","1","1","¿Cuándo se inició la copa
 América de fútbol?","1916","1923","","1","1","1","competitive","right","0.779733896255","1771.74190784","4.22026610374","1776.13108897","3.66589903831","1779.79702997","2.33410096169","1782.18412304","1784.08159494","1784.16855383","1787.17153883","1","1787.18597293","1789.84205484",""
"sujeto_d04e11ed","1","3","11","75","1789.98716998","direct","3","1","4","¿Cuántos presidentes de EEUU
han muerto asesinados?","3","4","","0","0","1","competitive","left","0.96201300621","1790.94925189","4.03798699379","1795.14426303","2.31388807297","1797.45821595","3.68611192703","1801.19402695","1802.67800999","1802.76247406","1805.76547098","0","1805.78001499","1809.42406297",""
"sujeto_d04e11ed","1","3","12","76","1809.58104897","inverse","2","1","4","¿Cuántas veces participó EEUU
 en la copa América?","4","5","","0","0","1","competitive","right","1.79629683495","1811.37740898","3.20370316505","1814.754426","3.45597219467","1818.21043801","2.54402780533","1820.80502987","1822.24917603","1822.32336783","1825.32631683","0","1825.340698","1831.45786285",""
"sujeto_d04e11ed","1","3","13","77","1831.593117","direct","4","1","1","¿Cuál de estos países 
no formaba la URSS?","Azeribayán","Afganistán","","0","0","1","competitive","left","0.948506116867","1832.54167295","4.05149388313","1836.76625299","3.78339409828","1840.54970598","2.21660590172","1842.81743789","1844.13052583","1844.21807289","1847.22102594","0","1847.23540998","1855.21759796",""
"sujeto_d04e11ed","1","3","14","78","1855.37062287","inverse","1","1","1","¿En qué año se inauguró
 el teatro Solís?","1867","1856","","0","0","0","competitive","left","0.900298833847","1856.27099395","4.09970116615","1860.52715802","4.32575917244","1864.8529799","1.67424082756","1866.56292987","1867.61921287","1867.69766283","1870.70065904","0","1870.7148819","1877.36269593",""
"sujeto_d04e11ed","1","3","15","79","1877.49911904","direct","1","1","4","¿A qué velocidad vuela 
el avión más rápido?","3529","3874","","0","0","0","competitive","right","0.746986150742","1878.24618196","4.25301384926","1882.67344284","3.20565795898","1885.87919283","2.79434204102","1888.72444892","1890.47998691","1890.55916595","1893.56211495","0","1893.57676387","1895.68601203",""
"sujeto_d04e11ed","1","3","16","80","1895.82818604","inverse","3","1","4","¿De qué año es la primer 
película cinematográfica?","1897","1888","","0","0","0","competitive","left","1.52109503746","1897.34934688","3.47890496254","1901.00058699","2.61076998711","1903.61139488","3.38923001289","1907.03333902","1908.16631985","1908.25245786","1911.25541687","0","1911.26877189","1916.67853785",""
"sujeto_d04e11ed","1","3","17","81","1916.82039785","direct","2","1","3","¿Cuántos países 
tiene nuestro planeta?","191","194","","1","1","1","competitive","right","0.97415804863","1917.79462504","4.02584195137","1921.97678685","3.96673893929","1925.94356203","2.03326106071","1928.02853703","1929.38571405","1929.46239805","1932.46542883","1","1932.47964883","1935.71790504",""
"sujeto_d04e11ed","1","3","18","82","1935.84851384","inverse","2","1","2","¿Cuántos habitantes
 tiene Buenos Aires?","2.9000.000","3650000","","0","0","0","competitive","right","1.91032195091","1937.75890803","3.08967804909","1941.03793883","4.79691910744","1945.83489799","1.20308089256","1947.0864079","1948.48369694","1948.55402994","1951.55695295","0","1951.571558","1957.40090895",""
"sujeto_d04e11ed","1","3","19","83","1957.53976798","direct","2","1","1","¿Cuántos kilos forman una tonelada?","1000","1500","left","1","1","1","competitive","right","1.0102481842","1958.55008793","3.9897518158","1962.6987319","0.0823218822479","1962.78111196","5.91767811775","1968.74783587","1970.63516784","1970.71783805","1973.72082186","0","1973.73545599","1979.69222283",""
"sujeto_d04e11ed","1","3","20","84","1979.8198669","inverse","4","1","4","¿Cuántos estados tiene la 
República del Perú? ","24","23","","0","0","1","competitive","right","0.763473987579","1980.58341789","4.23652601242","1984.97779894","2.48355007172","1987.46140885","3.51644992828","1991.02793193","1992.05016303","1992.12946486","1995.13246083","0","1995.14705896","2000.09233093",""
"sujeto_d04e11ed","1","3","21","85","2000.23101783","direct","3","1","3","¿En qué año nació Cristóbal Colón? ","1451","1447","","0","0","1","competitive","right","1.27748394012","2001.5085659","3.72251605988","2005.38765883","3.12883591652","2008.51653194","2.87116408348","2011.42161083","2013.26748586","2013.33973193","2016.34271502","0","2016.35796094","2020.58229494",""
"sujeto_d04e11ed","1","3","22","86","2020.72615695","inverse","4","1","4","¿Cuánto mide la 
Montaña Aconcagua? ","6234","6962","","0","0","1","competitive","left","0.803566932678","2021.52977204","4.19643306732","2025.89769006","2.76103997231","2028.65876794","3.23896002769","2031.93102789","2033.22039485","2033.29932785","2036.3023169","0","2036.31672597","2043.50038791",""
"sujeto_d04e11ed","1","3","23","87","2043.63798904","direct","2","1","4","¿Cuánto mide el punto
 más profundo del océano? ","12508","11003","","0","0","1","competitive","left","1.09902596474","2044.73706102","3.90097403526","2048.81116891","4.36594295502","2053.17717195","1.63405704498","2054.86172795","2056.11321497","2056.19672585","2059.19921494","0","2059.21400499","2063.42023897",""
"sujeto_d04e11ed","1","3","24","88","2063.56510091","inverse","1","1","3","¿Cuántos álbumes ha publicado 
el cantante Jaime Roos? ","41","34","","0","0","1","competitive","right","0.721174955368","2064.28634405","4.27882504463","2068.720999","3.80527997017","2072.52634001","2.19472002983","2074.77224994","2076.26218987","2076.34008503","2079.34312296","0","2079.35742402","2085.55354285",""
"sujeto_d04e11ed","1","3","25","89","2085.70850897","direct","4","1","3","¿En qué año nació el 
ex-presidente Jorge Battle? ","1921","1927","","1","1","1","competitive","left","0.835948228836","2086.5445559","4.16405177116","2090.88273692","4.13680291176","2095.01957989","1.86319708824","2096.93458986","2098.66531706","2098.75156784","2101.75447083","1","2101.77066898","2105.25430703",""
"sujeto_d04e11ed","1","3","26","90","2105.38741493","inverse","1","1","3","¿Cuántas presidencias 
constitucionales  hubo en Uruguay? ","41","42","","0","0","1","competitive","right","1.0972700119","2106.48474789","3.9027299881","2110.55842805","4.95533204079","2115.51382184","1.04466795921","2116.59356499","2117.79733396","2117.87666893","2120.87967587","0","2120.89436698","2126.67797399",""
"sujeto_d04e11ed","1","3","27","91","2126.81192994","direct","1","1","2","¿Quién escribió mas sinfonías?","Mozart","Haydn","","1","1","0","competitive","left","0.887045860291","2127.69904304","4.11295413971","2131.97051406","3.20551419258","2135.17606783","2.79448580742","2138.021806","2139.23922992","2139.32258987","2142.32557893","1","2142.34012198","2146.09124398",""
"sujeto_d04e11ed","1","3","28","92","2146.24127984","inverse","4","1","2","¿En qué año nació Michael Jackson?","1958","1953","","1","1","1","competitive","left","0.961908102036","2147.20326495","4.03809189796","2151.39838505","3.6338789463","2155.032305","2.3661210537","2157.44939899","2159.42762899","2159.50002789","2162.50303292","1","2162.51620102","2168.3784709",""
"sujeto_d04e11ed","1","3","29","93","2168.51725793","direct","3","1","2","¿En qué año entró en vigencia 
la ley antitabaco en Uruguay?","2005","2006","","1","1","1","competitive","right","0.970331907272","2169.48765683","4.02966809273","2173.69257689","5.8399438858","2179.532583","0.160056114197","2179.72895789","2181.32367396","2181.39469504","2184.39763403","1","2184.41297483","2189.7469449",""
"sujeto_d04e11ed","1","3","30","94","2189.88140392","inverse","3","1","1","¿Cuándo se subió el 
primer video a youtube?","2004","2005","","0","0","1","competitive","left","0.873249053955","2190.75469804","4.12675094604","2195.05238605","2.61736392975","2197.66981006","3.38263607025","2201.10286999","2202.40852094","2202.48882484","2205.49181199","0","2205.50548887","2213.26027799",""
"sujeto_d04e11ed","1","3","31","95","2213.40751886","direct","2","1","1","¿Cuántos habitantes tiene India?","1200 millones","1300 millones","","0","0","0","competitive","right","0.869345903397","2214.27692986","4.1306540966","2218.60058689","2.87837600708","2221.47902703","3.12162399292","2224.64701486","2226.61665487","2226.69885397","2229.70187283","0","2229.71649694","2235.76396704",""
"sujeto_d04e11ed","1","3","32","96","2235.91760302","inverse","4","1","2","¿A qué edad murió Bob Marley?","36","37","","0","0","1","competitive","left","0.678584098816","2236.59626198","4.32141590118","2241.07882404","2.7293920517","2243.80825186","3.2706079483","2247.11205292","2249.00991797","2249.09749389","2252.10050106","0","2252.11517787","2255.21765089",""
"sujeto_d04e11ed","1","4","1","97","2373.51085091","direct","2","1","1","¿Cuantos años dirigió la selección 
uruguaya Tabarez?","15 años","13 años","","0","0","0","competitive","left","1.24707794189","2374.75799084","3.75292205811","2378.66524887","5.24263691902","2383.90792298","0.757363080978","2384.70141196","2385.89257097","2385.96834493","2388.97131586","0","2388.98582196","2396.05781794","2255.23232794"
"sujeto_d04e11ed","1","4","2","98","2396.20457602","inverse","4","1","1","¿Cuantas teclas tiene un teclado 
de computadora generalmente? ","Entre 99 y 108","Entre 109 y 113","","1","1","1","competitive","right","1.7974011898","2398.00204587","3.2025988102","2401.37852001","5.83643007278","2407.2149899","0.163569927216","2407.431108","2408.43380785","2408.51457191","2411.51723385","1","2411.5315969","2413.90299797",""
"sujeto_d04e11ed","1","4","3","99","2414.05009389","direct","1","1","1","¿Cuál Departamento tiene
 mayor superficie?","Río Negro","Soriano","","0","0","0","competitive","left","0.943954944611","2414.99411583","4.05604505539","2419.2045269","4.02448105812","2423.22904706","1.97551894188","2425.23892784","2426.95235586","2427.03966284","2430.04267788","0","2430.05741787","2434.38351798",""
"sujeto_d04e11ed","1","4","4","100","2434.52601504","inverse","3","1","2","¿Cuál es el apellido de las 
hermanastras  de  cenicienta?","Tremaine","Truman","","0","0","1","competitive","left","1.52405309677","2436.05011106","3.47594690323","2439.69841599","3.89856314659","2443.59703588","2.10143685341","2445.74878097","2447.61827803","2447.70054984","2450.70353198","0","2450.71839595","2453.41427803",""
"sujeto_d04e11ed","1","4","5","101","2453.55245996","direct","4","1","4","¿Cuál película ganó un
 Oscar a mejor película?","Alto Impacto","Cache","","0","0","1","competitive","left","0.92865395546","2454.48122287","4.07134604454","2458.74126387","3.92682600021","2462.66817498","2.07317399979","2464.77599382","2465.89522696","2465.97723889","2468.98019099","0","2468.99449492","2471.25911498",""
"sujeto_d04e11ed","1","4","6","102","2471.39631891","inverse","1","1","3","¿A cuántos centímetros
equivale la medida pié?","25","30","","0","0","1","competitive","right","1.11887288094","2472.51527596","3.88112711906","2476.56719804","4.79499292374","2481.3622539","1.20500707626","2482.60195899","2483.64196992","2483.71925902","2486.72224903","0","2486.7368629","2492.13783884",""
"sujeto_d04e11ed","1","4","7","103","2492.28794789","direct","2","1","2","¿Qué departamento es mas grande?","Cerro Largo","Paysandú","","0","0","0","competitive","left","0.892370939255","2493.18039799","4.10762906075","2497.44483805","3.95642614365","2501.40132499","2.04357385635","2503.49658489","2505.09633803","2505.18036199","2508.18334198","0","2508.19791389","2512.3078959",""
"sujeto_d04e11ed","1","4","8","104","2512.46543789","inverse","2","1","3","¿Quién pintó la Mona Lisa?","Picasso","Da Vinci","right","0","0","1","competitive","right","0.840919971466","2513.30640483","4.15908002853","2517.62160897","3.09176015854","2520.71342897","2.90823984146","2523.67306805","2525.27893686","2525.35699391","2528.35828686","1","2528.37502003","2530.53733802",""
"sujeto_d04e11ed","1","4","9","105","2530.69258094","direct","4","1","3","¿Cuántos litros hay en un galon?","3.54","3.78","","1","1","1","competitive","left","0.884850978851","2531.57748294","4.11514902115","2535.86249304","2.8608341217","2538.72336197","3.1391658783","2541.89710593","2543.41421199","2543.49895883","2546.50194192","1","2546.51557899","2552.30794096",""
"sujeto_d04e11ed","1","4","10","106","2552.46739984","inverse","4","1","1","¿Cuántas teclas tiene
 un piano moderno?","80","88","","0","0","1","competitive","right","0.993048906326","2553.46051598","4.00695109367","2557.64296198","3.53746509552","2561.18046498","2.46253490448","2563.69297194","2564.70142484","2564.77833986","2567.78131104","0","2567.79489493","2574.59265494",""
"sujeto_d04e11ed","1","4","11","107","2574.72988391","direct","4","1","3","¿Cuántos países hay en África?","54","62","","0","0","1","competitive","right","1.64966893196","2576.37960505","3.35033106804","2579.90271997","4.25584506989","2584.15860605","1.74415493011","2585.95588684","2587.64643598","2587.72361302","2590.72658801","0","2590.74115086","2598.54023004",""
"sujeto_d04e11ed","1","4","12","108","2598.67544484","inverse","1","1","3","¿En qué siglo se crearon
 las primeras pistolas?","XV","XIII","","1","1","1","competitive","right","0.928231954575","2599.603755","4.07176804543","2603.833781","4.04994106293","2607.88378882","1.95005893707","2609.88481593","2611.83273005","2611.91897488","2614.92196894","1","2614.93618798","2618.16929483",""
"sujeto_d04e11ed","1","4","13","109","2618.30485892","direct","3","1","4","¿En qué año se estrenó 
la serie friends?","1994","1995","","0","0","1","competitive","right","0.756896972656","2619.06180406","4.24310302734","2623.45757604","3.4302110672","2626.88782883","2.5697889328","2629.49372697","2631.36822796","2631.44416904","2634.44715691","0","2634.46271801","2639.46824884",""
"sujeto_d04e11ed","1","4","14","110","2639.61378193","inverse","3","1","4","¿En qué año nació Hitler?","1889","1887","","0","0","1","competitive","right","0.848101854324","2640.46195102","4.15189814568","2644.77141404","2.85445308685","2647.62590885","3.14554691315","2650.82140803","2651.93574691","2652.02364802","2655.02666092","0","2655.04055905","2660.06757188",""
"sujeto_d04e11ed","1","4","15","111","2660.2252779","direct","1","1","4","¿Cuánto pesa un elefante Africano?","6000 kilos","5400 kilos","","0","0","0","competitive","left","0.867651939392","2661.09297585","4.13234806061","2665.41541791","2.90760803223","2668.32308793","3.09239196777","2671.46588588","2672.82181501","2672.90105605","2675.904037","0","2675.91743493","2682.62454796",""
"sujeto_d04e11ed","1","4","16","112","2682.7698009","inverse","1","1","2","¿Qué porcentaje de 
la población es zurda?","10%","7%","","1","1","0","competitive","right","0.644309997559","2683.41419196","4.35569000244","2687.92755985","2.75560998917","2690.68322301","3.24439001083","2693.97795892","2695.22105193","2695.29582596","2698.29882598","1","2698.31309485","2704.29285383",""
"sujeto_d04e11ed","1","4","17","113","2704.43255186","direct","1","1","2","¿En qué año se estrenó
Volver al futuro?","1984","1985","","0","0","1","competitive","right","0.928673028946","2705.36126995","4.07132697105","2709.60188603","3.31539511681","2712.9173429","2.68460488319","2715.65509701","2717.21695995","2717.28878188","2720.29176998","0","2720.30642986","2727.39788389",""
"sujeto_d04e11ed","1","4","18","114","2727.54136801","inverse","3","1","2","¿Cuántos jugadores hay en un 
equipo de baseball?","9","8","","1","1","0","competitive","right","0.9039311409","2728.44534302","4.0960688591","2732.73330998","3.52099394798","2736.25434089","2.47900605202","2738.78483796","2740.39819193","2740.46877193","2743.47172403","1","2743.48636985","2748.46357203",""
"sujeto_d04e11ed","1","4","19","115","2748.60473895","direct","2","1","1","¿Cuántos Oscar ganó
 la película titanic?","13","11","","1","1","1","competitive","right","0.856733798981","2749.46153283","4.14326620102","2753.77743888","2.89200687408","2756.66950989","3.10799312592","2759.82852006","2761.13055706","2761.21269894","2764.21564794","1","2764.22938395","2768.8320539",""
"sujeto_d04e11ed","1","4","20","116","2768.97963905","inverse","4","1","4","¿En qué año comenzó
la segunda guerra mundial?","1939","1976","left","0","0","1","competitive","left","1.16792607307","2770.14763093","3.83207392693","2774.15514684","3.85146307945","2778.00666785","2.14853692055","2780.20681691","2782.00668788","2782.09104085","2785.09403086","1","2785.10850286","2789.09430194",""
"sujeto_d04e11ed","1","4","21","117","2789.24362993","direct","2","1","4","¿Cuántos biomas hay en Uruguay?","5","4","","0","0","1","competitive","right","0.982043981552","2790.22575092","4.01795601845","2794.41266298","4.22999215126","2798.64271498","1.77000784874","2800.44925284","2802.246562","2802.33306599","2805.33605695","0","2805.35064483","2811.60001397",""
"sujeto_d04e11ed","1","4","22","118","2811.75218987","inverse","2","1","3","¿Cuándo murió Pablo Escobar?","1993","1997","","1","1","1","competitive","right","0.96963596344","2812.72189283","4.03036403656","2816.94436693","4.02638101578","2820.9707849","1.97361898422","2822.97676086","2824.75962186","2824.84491301","2827.84724903","1","2827.86244702","2833.56525803",""
"sujeto_d04e11ed","1","4","23","119","2833.69653797","direct","1","1","4","¿Qué serie ha ganado mas premios?","Friends","Murphy Brown","","1","1","0","competitive","left","0.799432039261","2834.49603701","4.20056796074","2838.87251997","3.1294260025","2842.00201201","2.8705739975","2844.92271805","2846.275141","2846.35815501","2849.36117196","1","2849.37486506","2854.93650794",""
"sujeto_d04e11ed","1","4","24","120","2855.09311485","inverse","4","1","2","¿Cuántas fichas tiene el dominó?","26","28","","1","1","1","competitive","right","1.11493206024","2856.20810986","3.88506793976","2860.25049901","2.73866701126","2862.98923683","3.26133298874","2866.30012393","2867.35543394","2867.43494987","2870.43796396","1","2870.45218587","2875.69524789",""
"sujeto_d04e11ed","1","4","25","121","2875.83751202","direct","2","1","4","¿Cuántos son los dientes de leche?","20","25","","0","0","1","competitive","left","1.03274798393","2876.8703239","3.96725201607","2880.99092388","4.69834089279","2885.68932295","1.30165910721","2887.02708983","2888.73743892","2888.81140184","2891.81420684","0","2891.82944989","2893.97517705",""
"sujeto_d04e11ed","1","4","26","122","2894.11433101","inverse","3","1","3","¿Cuántos gramos son una onza?","22","28","","0","0","1","competitive","right","1.42733597755","2895.54174304","3.57266402245","2899.27019405","2.7722120285","2902.04244804","3.2277879715","2905.32074285","2907.31560397","2907.38923192","2910.39222693","0","2910.40680194","2916.69158602",""
"sujeto_d04e11ed","1","4","27","123","2916.84197688","direct","3","1","1","¿Cuándo salió el primer album
 de los Beatles?","1963","1962","","1","1","1","competitive","right","0.916590929031","2917.75863504","4.08340907097","2922.01554203","2.60102009773","2924.6166029","3.39897990227","2928.06565189","2929.22930884","2929.30117798","2932.30415487","1","2932.31826591","2936.09032297",""
"sujeto_d04e11ed","1","4","28","124","2936.23593187","inverse","3","1","3","¿Quién fundó la empresa apple?","Carlos Slim","Steve Jobs","","1","1","1","competitive","right","1.14573502541","2937.38173294","3.85426497459","2941.39222002","2.85544705391","2944.247751","3.14455294609","2947.44301701","2948.55768585","2948.62690091","2951.6298449","1","2951.64517188","2957.94290686",""
"sujeto_d04e11ed","1","4","29","125","2958.07987285","direct","4","1","2","¿Cuántos municipios hay
 en Montevideo?","8","7","","1","1","1","competitive","left","0.967547893524","2959.04747796","4.03245210648","2963.24950886","4.07534790039","2967.324898","1.92465209961","2969.28426886","2971.19900203","2971.28609395","2974.28905702","1","2974.30359983","2976.38473201",""
"sujeto_d04e11ed","1","4","30","126","2976.52143383","inverse","1","1","1","¿Cuántos kilómetros hay
 de Montevideo a Artigas?","632","599","","0","0","0","competitive","left","0.955233097076","2977.47678995","4.04476690292","2981.69635987","3.6775970459","2985.37399793","2.3224029541","2987.73078394","2989.21390486","2989.29837799","2992.30137396","0","2992.31599092","2998.36810303",""
"sujeto_d04e11ed","1","4","31","127","2998.51784086","direct","2","1","2","¿En qué año nació 
Leonardo Da Vinci?","1452","1511","","1","1","0","competitive","left","0.82133603096","2999.33926487","4.17866396904","3003.69136691","4.2718038559","3007.96321297","1.7281961441","3009.74307203","3011.59670305","3011.67645693","3014.67944193","1","3014.69485593","3017.84127188",""
"sujeto_d04e11ed","1","4","32","128","3017.97947383","inverse","3","1","1","¿A qué continente
 pertenece el país Gabón?","Africa","Oceanía","","0","0","1","competitive","left","0.90286397934","3018.88240099","4.09713602066","3023.15006685","3.89620804787","3027.04633689","2.10379195213","3029.20308805","3031.0147779","3031.10419488","3034.10717106","0","3034.12150693","3039.35941696",""
