"code","nro_aplicante","nro_bloque","nro_trial_bloque","nro_trial_global","show_game_type","choice_order","rival","pay_individual","pay_competitive","question","answer_left_text","answer_right_text","correct_answer","outcome_individual","outcome_competitive","outcome_rival","game_type","answer","social_time","rt_game_type","feedback_delay","show_question","answer_time","rt_answer_global","feedback_delay_2","show_jitter","jitter_time","show_outcome","outcome_time","outcome_participant_real","show_final_jitter","second_jitter_time","inicio_descanso"
"sujeto_32e036e7","1","1","1","1","17.047306776","direct","3","1","4","¿Cuántos centímetros corresponden
al talle 36 del calzado?","23","24",,"0","0","1","competitive","right","1.69096112251","18.7383129597","3.30903887749","22.2211239338","5.55827713013","27.7794699669","0.441722869873","28.2562558651","29.2845408916","29.3564929962","32.3594098091","0","32.3744409084","34.5369668007",
"sujeto_32e036e7","1","1","2","2","34.6748809814","inverse","3","1","2","¿Cuántas metros mide la Intendencia
Municipal de Montevideo? ","84","78",,"0","0","1","competitive","right","2.19858002663","36.873513937","2.80141997337","39.8292448521","5.17843580246","45.0077168941","0.82156419754","45.8659229279","47.7429919243","47.817032814","50.8200278282","0","50.8342659473","52.927025795",
"sujeto_32e036e7","1","1","3","3","53.0686519146","direct","1","1","3","¿Cuántas La Pasiva
 hay en uruguay?","15","11",,"1","1","1","competitive","right","2.36767578125","55.4363768101","2.63232421875","58.2398920059","3.71512103081","61.955067873","2.28487896919","64.2740910053","65.8857460022","65.9586119652","68.96159482","1","68.9762787819","73.2546198368",
"sujeto_32e036e7","1","1","4","4","73.3776299953","inverse","3","1","3","¿De que color es la camiseta de uruguay?","blanca","celeste","right","1","1","1","competitive",,"0.945673942566","74.3233778477","4.05432605743","78.5338928699","6","84.5340149403","0","84.5494267941","85.7541818619","85.8368668556","88.8398778439","0","88.8544268608","92.3083758354",
"sujeto_32e036e7","1","1","5","5","92.4400877953","direct","2","1","1","¿Cuánto metros mide
la torre Eiffel?","333","324",,"1","1","1","competitive","left","1.08460211754","93.5247659683","3.91539788246","97.5949988365","2.61769485474","100.212733984","3.38230514526","103.647266865","105.168636799","105.246216774","108.24921298","1","108.264479876","115.301184893",
"sujeto_32e036e7","1","1","6","6","115.449458838","inverse","3","1","4","¿Cuantas ciudades existen
 en todo el uruguay?","63","72",,"0","0","1","competitive","right","1.20665192604","116.656183004","3.79334807396","120.590647936","4.3345181942","124.925205946","1.6654818058","126.641835928","127.696670771","127.775747776","130.778724909","0","130.793009996","138.419602871",
"sujeto_32e036e7","1","1","7","7","138.560817957","direct","1","1","1","¿Cuantos estados tiene África?","52","54",,"1","1","0","competitive","left","0.831562995911","139.392443895","4.16843700409","143.730944872","3.80152583122","147.532533884","2.19847416878","149.783458948","151.647482872","151.718385935","154.721376896","1","154.736033916","160.497064829",
"sujeto_32e036e7","1","1","8","8","160.654496908","inverse","4","1","4","¿En qué año nació
 Stephen Hawking?","1952","1942",,"0","0","1","competitive","right","0.582298994064","161.236859798","4.41770100594","165.813395977","2.99549794197","168.808954954","3.00450205803","171.847324848","173.29163599","173.366547823","176.369534969","0","176.384152889","182.483512878",
"sujeto_32e036e7","1","1","9","9","182.617915869","direct","2","1","3","¿Cuánto años tenía Artigas
 cuando se fue a Paraguay?","56","57",,"1","1","1","competitive","left","1.79708600044","184.415039778","3.20291399956","187.792254925","4.1148519516","191.907160997","1.8851480484","193.843099833","195.392591953","195.477608919","198.480596781","1","198.495092869","204.536680937",
"sujeto_32e036e7","1","1","10","10","204.681350946","inverse","1","1","2","¿Cuantos milímetros 
mide una hoja A2?","420x592","420x594",,"0","0","1","competitive",,"0.926097154617","205.607514858","4.07390284538","209.837203979","6","215.837346792","0","215.854213953","217.422593832","217.506551981","220.509465933","0","220.524263859","227.594953775",
"sujeto_32e036e7","1","1","11","11","227.724905968","direct","3","1","3","¿Cuál es la menor temperatura 
registrada en Uruguay?","-5.4","-7.4",,"0","0","1","competitive","left","0.853826999664","228.578800917","4.14617300034","232.879767895","2.64505004883","235.524913788","3.35494995117","238.91500783","240.59706378","240.68360281","243.685257912","0","243.70172596","247.434981823",
"sujeto_32e036e7","1","1","12","12","247.569614887","inverse","2","1","2","¿Cuantos años hace que 
se fundó facebook?","18","17",,"0","0","0","competitive","right","1.0794198513","248.649083853","3.9205801487","252.727275848","3.80179595947","256.529112816","2.19820404053","258.7776618","260.150348902","260.229113817","263.232052803","0","263.24672389","266.02132082",
"sujeto_32e036e7","1","1","13","13","266.147880793","direct","1","1","4","¿Cuál animal es más
 pesado en promedio?","Rinoceronte","Hipopotamo",,"0","0","0","competitive","right","0.942353963852","267.090278864","4.05764603615","271.302679777","3.68167996407","274.984425783","2.31832003593","277.354400873","278.433641911","278.521956921","281.524954796","0","281.539512873","285.380525827",
"sujeto_32e036e7","1","1","14","14","285.590922832","inverse","1","1","2","¿Qué personaje de dragon ball 
murió más veces?","Chaoz","Krillin",,"1","1","0","competitive","right","1.60255408287","287.193518877","3.39744591713","290.74712491","3.25750494003","294.004673958","2.74249505997","296.797904968","298.255703926","298.332598925","301.335558891","1","301.350153923","309.123094797",
"sujeto_32e036e7","1","1","15","15","309.267800808","direct","3","1","2","La universidad de oxford. 
existe desde:","1096","1249",,"1","1","0","competitive","right","1.0340359211","310.301909924","3.9659640789","314.424651861","4.12030386925","318.544998884","1.87969613075","320.475894928","321.524713993","321.60981679","324.612806797","1","324.627323866","331.318193913",
"sujeto_32e036e7","1","1","16","16","331.461740971","inverse","3","1","1","¿Qué escritor latino ganó antes
 el premio nobel?"," García Marquez","Neruda",,"0","0","1","competitive","right","0.860306978226","332.322091818","4.13969302177","336.620310783","4.78291296959","341.403284788","1.21708703041","342.6726408","344.412648916","344.490512848","347.493438959","0","347.506704807","350.967171907",
"sujeto_32e036e7","1","1","17","17","351.125808954","direct","4","1","3","¿Cuántos dientes tiene un
 tiburón blanco?","6000","3000",,"0","0","1","competitive","right","1.09547400475","352.221328974","3.90452599525","356.281581879","3.99678587914","360.278407812","2.00321412086","362.332386971","363.371338844","363.449709892","366.4526999","0","366.467040777","371.274996996",
"sujeto_32e036e7","1","1","18","18","371.419041872","inverse","4","1","1","¿Cuánto mide el paralelo Ecuador?","40.000km","70.000km",,"0","0","1","competitive","left","0.836399078369","372.255546808","4.16360092163","376.573618889","3.2889380455","379.862593889","2.7110619545","382.625602961","384.581685781","384.660225868","387.662939787","0","387.678228855","391.280753851",
"sujeto_32e036e7","1","1","19","19","391.429886818","direct","4","1","2","¿Cuál fue el primer libro 
de Stephen King?","Carrie","The Stand",,"1","1","1","competitive","right","0.920892000198","392.350897789","4.0791079998","396.598137856","2.67376494408","399.271945953","3.32623505592","402.650173903","404.394292831","404.468068838","407.471058846","1","407.485700846","411.960150957",
"sujeto_32e036e7","1","1","20","20","412.104347944","inverse","2","1","3","¿Qué civilización practicaba
 la momificación?","Grecia","Egipto","right","0","0","1","competitive","right","0.641721010208","412.74611187","4.35827898979","417.262609959","2.8694319725","420.132106781","3.1305680275","423.313447952","425.252743959","425.332562923","428.335538864","1","428.350174904","432.578980923",
"sujeto_32e036e7","1","1","21","21","432.717963934","direct","4","1","4","¿Cuántos millones de visitas
 recibe google por minuto?","3.0","4.5",,"0","0","1","competitive","right","0.837332963943","433.555365801","4.16266703606","437.890476942","3.91882014275","441.809354782","2.08117985725","443.941333771","445.456199884","445.543658972","448.546652794","0","448.559907913","455.682594776",
"sujeto_32e036e7","1","1","22","22","455.807659864","inverse","1","1","3","La máquina de fax. se inventó en:","1843","1960",,"0","0","1","competitive","left","0.759837865829","456.567546844","4.24016213417","460.952659845","3.58477687836","464.537472963","2.41522312164","467.003890991","468.246005774","468.321229935","471.322993994","0","471.339274883","474.572594881",
"sujeto_32e036e7","1","1","23","23","474.723864794","direct","2","1","4","En la verdadera historia de los
 300 espartanos. habían:","300 soldados","4300 soldados",,"1","1","1","competitive","right","0.747840881348","475.471771002","4.25215911865","479.896559954","4.89209604263","484.788720846","1.10790395737","485.947424889","487.208626986","487.281468868","490.284469843","1","490.299117804","494.100894928",
"sujeto_32e036e7","1","1","24","24","494.250754833","inverse","1","1","4","¿Cuántos milímetros crece
 el pelo por día?","0.4","0.04",,"0","0","0","competitive","right","0.86311006546","495.113938808","4.13688993454","499.42261982","2.76830887794","502.190984964","3.23169112206","505.474134922","507.234813929","507.30851078","510.310935974","0","510.326711893","517.061830997",
"sujeto_32e036e7","1","1","25","25","517.211443901","direct","4","1","1","¿Cuánto mide la baldosa gris 
clásica de Montevideo?","22x22 cm.","20x20 cm.",,"1","1","1","competitive","right","0.789685964584","518.001173973","4.21031403542","522.384918928","3.68723106384","526.072208881","2.31276893616","528.435769796","530.431010962","530.503996849","533.507001877","1","533.521373987","539.064137936",
"sujeto_32e036e7","1","1","26","26","539.189163923","inverse","2","1","2","¿Cuántas películas de rápidos
 y furiosos hay?","10","11",,"1","1","0","competitive","left","0.745105028152","539.934334993","4.25489497185","544.361774921","2.78251099586","547.144321918","3.21748900414","550.413711786","551.77093482","551.848113775","554.851130962","1","554.866344929","556.901051998",
"sujeto_32e036e7","1","1","27","27","557.051425934","direct","3","1","1","¿Cuántos masters 1000
 ganó Del Potro?","1","2",,"1","1","1","competitive","right","1.01200699806","558.063480854","3.98799300194","562.204642773","3.96782398224","566.172505856","2.03217601776","568.256104946","570.009927988","570.090503931","573.093427896","1","573.10579896","580.502168894",
"sujeto_32e036e7","1","1","28","28","580.639488935","inverse","2","1","4","¿Cuántos meses dura el 
embarazo de una leona?","3 meses","4 meses",,"0","0","1","competitive","right","0.843196153641","581.482759953","4.15680384636","585.801174879","4.14646983147","589.947683811","1.85353016853","591.852630854","592.963644981","593.037307978","596.040299892","0","596.054817915","602.771469831",
"sujeto_32e036e7","1","1","29","29","602.905895948","direct","1","1","1","¿En qué año fue creado
 el sandwich?","1762","1653",,"1","1","0","competitive","right","0.767811059952","603.673792839","4.23218894005","608.080202818","3.47772192955","611.557986975","2.52227807045","614.114417791","615.712982893","615.799431801","618.802426815","1","618.816787958","622.28742981",
"sujeto_32e036e7","1","1","30","30","622.434468985","inverse","4","1","2","El nombre de la moneda de Vietnam es:","Dinar","Dong",,"0","0","1","competitive","left","0.71857213974","623.153088808","4.28142786026","627.604278803","3.43374705315","631.038091898","2.56625294685","633.657117844","635.089121819","635.174661875","638.177652836","0","638.191922903","644.3603549",
"sujeto_32e036e7","1","1","31","31","644.493436813","direct","2","1","1","¿cuantos aleteos puede dar 
un colibrí por segundo?","120","50",,"0","0","0","competitive","left","0.907761096954","645.401241779","4.09223890305","649.668660879","3.49357485771","653.162293911","2.50642514229","655.70282197","657.435225964","657.52075696","660.523745775","0","660.538200855","664.750479937",
"sujeto_32e036e7","1","1","32","32","664.890071869","inverse","4","1","3","¿Qué altura promedio tienen
 los hombres uruguayos?","1.73 m","1.72 m",,"1","1","1","competitive","left","0.785290002823","665.675431967","4.21470999718","670.062019825","2.79035305977","672.85243988","3.20964694023","676.113352776","677.375790834","677.448124886","680.451108932","1","680.465786934","684.939010859",
"sujeto_32e036e7","1","2","1","33","829.178047895","direct","1","1","1","¿En qué año nació 
el actor Bradd Pitt?","1967","1963",,"1","1","1","competitive","left","0.966529130936","830.144683838","4.03347086906","834.344007969","3.61655592918","837.96062398","2.38344407082","840.395765781","841.491606951","841.564072847","844.567055941","1","844.581624985","850.509231806","684.950613976"
"sujeto_32e036e7","1","2","2","34","850.649102926","inverse","2","1","1","¿Cual es el segundo 
monte más alto?","Kanchenjunga","K2",,"1","1","1","competitive","right","0.892022132874","851.541172981","4.10797786713","855.79104495","3.94666600227","859.737749815","2.05333399773","861.826761961","863.279153824","863.360869884","866.363871813","1","866.379138947","869.809042931",
"sujeto_32e036e7","1","2","3","35","869.947100878","direct","3","1","1","¿Cuándo finalizó la construcción
 del Palacio Legislativo?","1925","1917",,"0","0","1","competitive","left","0.835777044296","870.782935858","4.1642229557","875.119323969","3.338586092","878.45795083","2.661413908","881.169990778","882.811652899","882.887831926","885.889963865","0","885.905661821","891.603221893",
"sujeto_32e036e7","1","2","4","36","891.740274906","inverse","3","1","3","¿Cuántos integrantes tenía
 en su inicio  el cuarteto de nos?","3","4",,"1","1","1","competitive","left","0.76872587204","892.509071827","4.23127412796","896.913946867","3.02899003029","899.943001986","2.97100996971","902.947369814","904.080482006","904.14941597","907.152402878","1","907.167085886","912.816893816",
"sujeto_32e036e7","1","2","5","37","912.951628923","direct","2","1","3","¿Qué valor tiene el número pi?","3.14","4.18","left","0","0","1","competitive","left","0.721755027771","913.673428774","4.27824497223","918.108417988","2.01566004753","920.124115944","3.98433995247","924.158204794","925.612206936","925.694068909","928.697041988","1","928.711230993","935.627007961",
"sujeto_32e036e7","1","2","6","38","935.764776945","inverse","2","1","2","¿Cuál es la esperanza de vida
 en Uruguay?","75","77",,"1","1","0","competitive","left","0.835381031036","936.600203991","4.16461896896","940.934227943","3.02599716187","943.960263968","2.97400283813","946.986167908","948.640019894","948.721264839","951.724192858","1","951.738482952","958.201469898",
"sujeto_32e036e7","1","2","7","39","958.340279818","direct","1","1","2","¿Cuantos pisos tiene la torre 
de las comunicaciones?","26","32",,"1","1","0","competitive","left","0.671952009201","959.012267828","4.3280479908","963.513923883","3.29537701607","966.809337854","2.70462298393","969.547778845","971.376587868","971.449081898","974.452073812","1","974.466667891","976.612876892",
"sujeto_32e036e7","1","2","8","40","976.752065897","inverse","2","1","4","¿En qué país sudamericano 
no hay McDonalds?","Bolivia","Venezuela",,"0","0","1","competitive","right","0.746842861176","977.498958826","4.25315713882","981.908582926","4.02491116524","985.933554888","1.97508883476","987.959704876","989.269062996","989.34333992","992.346345901","0","992.361069918","998.72079587",
"sujeto_32e036e7","1","2","9","41","998.860856771","direct","3","1","1","¿En qué año empieza
 la Edad Media?","476","512",,"1","1","1","competitive","right","0.765736818314","999.626655817","4.23426318169","1004.01967597","3.32690000534","1007.34661388","2.67309999466","1010.05324197","1011.45697594","1011.53889179","1014.54190087","1","1014.55611396","1017.54465699",
"sujeto_32e036e7","1","2","10","42","1017.67354798","inverse","3","1","4","¿Hace cuántos años surgió
 el ser humano?","200mil","300mil",,"0","0","0","competitive","left","0.824234008789","1018.49783492","4.17576599121","1022.84193683","3.77368998528","1026.61566186","2.22631001472","1028.89410877","1030.78010082","1030.86246896","1033.86548591","0","1033.88006997","1037.190588",
"sujeto_32e036e7","1","2","11","43","1037.33148885","direct","3","1","4","¿Cuántas cuadras tiene
 actualmente 18 de julio? ","36","33",,"0","0","1","competitive","left","0.751383066177","1038.082932","4.24861693382","1042.5058248","4.13093209267","1046.63681483","1.86906790733","1048.557616","1050.25986099","1050.34164691","1053.344661","0","1053.36022687","1058.08653283",
"sujeto_32e036e7","1","2","12","44","1058.22793484","inverse","1","1","4","¿Qué juego de equipo se 
considera mas rápido?","Lacrosse","Badminton",,"0","0","0","competitive","right","0.69602394104","1058.92402577","4.30397605896","1063.400316","2.84366989136","1066.24404597","3.15633010864","1069.43431091","1070.67743993","1070.75225592","1073.75520086","0","1073.76936698","1081.76452279",
"sujeto_32e036e7","1","2","13","45","1081.90529394","direct","1","1","3","¿Qué promedio de edad 
vive una jirafa? ","25","20",,"0","0","1","competitive","right","0.977761983871","1082.88312578","4.02223801613","1087.06282783","2.64329886436","1089.70618677","3.35670113564","1093.09685087","1094.85835385","1094.932024","1097.93496895","0","1097.94927382","1103.90449286",
"sujeto_32e036e7","1","2","14","46","1104.05176497","inverse","1","1","2","¿Cuántos grandes lagos hay?","7","5",,"0","0","1","competitive","right","0.6934030056","1104.74521089","4.3065969944","1109.20363188","2.52648806572","1111.73016","3.47351193428","1115.23826385","1116.53042293","1116.60574389","1119.60873985","0","1119.6233058","1127.44468689",
"sujeto_32e036e7","1","2","15","47","1127.57506585","direct","3","1","2","¿Cuántos discos de estudio
 grabó Johhny Cash? ","54","43",,"1","1","0","competitive","right","0.79244685173","1128.36758184","4.20755314827","1132.73626494","3.47437119484","1136.21070194","2.52562880516","1138.77046394","1140.04910088","1140.12201786","1143.12500501","1","1143.13954282","1149.79046988",
"sujeto_32e036e7","1","2","16","48","1149.94113278","inverse","4","1","1","¿Cuántos barrios tiene
 Montevideo? ","71","62",,"0","0","1","competitive","left","0.644898891449","1150.58609986","4.35510110855","1155.1160419","3.35517001152","1158.4712708","2.64482998848","1161.16609693","1162.17311788","1162.25107193","1165.25406599","0","1165.26852894","1170.730515",
"sujeto_32e036e7","1","2","17","49","1170.86982179","direct","3","1","3","¿Qué edad tiene Homero Simpson?","36","42",,"0","0","1","competitive","right","0.92765712738","1171.79752088","4.07234287262","1176.02715898","2.65146899223","1178.678689","3.34853100777","1182.07740593","1183.45348191","1183.53122997","1186.53418279","0","1186.54644084","1190.93520784",
"sujeto_32e036e7","1","2","18","50","1191.081429","inverse","4","1","2","¿Cuántos países con monarquía 
hay en europa actualmente? ","6","10",,"1","1","1","competitive","left","0.69248509407","1191.77395797","4.30751490593","1196.23651981","3.23153686523","1199.468117","2.76846313477","1202.28825378","1203.72596598","1203.80655289","1206.80953693","1","1206.82382798","1212.980654",
"sujeto_32e036e7","1","2","19","51","1213.12557483","direct","2","1","3","¿Cuántos capítulos de
 Friends existen? ","236","228",,"1","1","1","competitive","right","0.823848962784","1213.94951296","4.17615103722","1218.27806377","2.87247991562","1221.15060282","3.12752008438","1224.33001184","1225.63552999","1225.71538877","1228.71841288","1","1228.73304486","1231.10862899",
"sujeto_32e036e7","1","2","20","52","1231.25068593","inverse","1","1","3","¿Cuántas óperas compuso Mozart? ","27","22",,"1","1","1","competitive","right","0.695102214813","1231.94587398","4.30489778519","1236.40956187","2.76433587074","1239.17395496","3.23566412926","1242.44296098","1243.73508883","1243.81100392","1246.81392884","1","1246.828619","1254.14006186",
"sujeto_32e036e7","1","2","21","53","1254.2805388","direct","4","1","3","¿Cuántos mundiales de fútbol 
femenino ha realizado FIFA? ","9","7",,"1","1","1","competitive","right","0.824753046036","1255.10535789","4.17524695396","1259.43773198","3.52766513824","1262.96545696","2.47233486176","1265.47162199","1266.71529794","1266.7901938","1269.79318786","1","1269.80743599","1275.90447998",
"sujeto_32e036e7","1","2","22","54","1276.04283094","inverse","3","1","2","¿Cuál es la temperatura 
media anual en Montevideo? ","17.5","16.3",,"0","0","1","competitive","right","0.749824047089","1276.79270196","4.25017595291","1281.21486282","3.97602701187","1285.19095087","2.02397298813","1287.25068188","1289.18928885","1289.26838684","1292.27137494","0","1292.28565884","1298.85520196",
"sujeto_32e036e7","1","2","23","55","1298.98730588","direct","2","1","2","¿En qué año se estrenó el
 videojuego The Sims? ","2000","2002",,"0","0","0","competitive","right","0.774811983109","1299.76219082","4.22518801689","1304.14379382","4.48548698425","1308.62932491","1.51451301575","1310.19533491","1312.05736184","1312.12877798","1315.13176394","0","1315.14735889","1322.54101992",
"sujeto_32e036e7","1","2","24","56","1322.68246078","inverse","2","1","1","¿Cuál es la canción con 
mas covers? ","Yesterday","Stand by me",,"0","0","0","competitive","right","0.744151115417","1323.42665601","4.25584888458","1327.84110689","4.00254011154","1331.84368777","1.99745988846","1333.892694","1335.29123878","1335.37690091","1338.37900281","0","1338.39465785","1342.56550193",
"sujeto_32e036e7","1","2","25","57","1342.71262789","direct","1","1","4","¿Cuánto duró la guerra
 de los 100 años?","116","123",,"0","0","0","competitive","left","0.798702955246","1343.51138186","4.20129704475","1347.86851382","4.05052495003","1351.91907692","1.94947504997","1353.91953278","1355.40033388","1355.47093892","1358.4739449","0","1358.48755693","1360.8072989",
"sujeto_32e036e7","1","2","26","58","1360.95625496","inverse","4","1","4","¿Qué color tiene la  bandera de Brasil?","Amarillo","Naranja","left","0","0","1","competitive","left","0.859965085983","1361.81626296","4.14003491402","1366.11041999","3.70292496681","1369.81338286","2.29707503319","1372.16270494","1373.72925997","1373.81356978","1376.81652689","1","1376.830791","1379.86355186",
"sujeto_32e036e7","1","2","27","59","1379.99967194","direct","4","1","3","¿Qué carabela de 
Colon no volvió del viaje?","Santa María","La pinta",,"0","0","1","competitive","right","0.811937093735","1380.81165981","4.18806290627","1385.15497398","3.80871796608","1388.96375299","2.19128203392","1391.18885589","1392.67992091","1392.75694799","1395.75994492","0","1395.77463794","1397.8741138",
"sujeto_32e036e7","1","2","28","60","1398.027174","inverse","4","1","4","¿Cuántos huesos tiene
 un adulto humano?","217","206",,"0","0","1","competitive","right","0.819756031036","1398.84699678","4.18024396896","1403.19859195","2.54639792442","1405.74504995","3.45360207558","1409.23116493","1410.50216484","1410.58337593","1413.58594489","0","1413.60163593","1421.43929601",
"sujeto_32e036e7","1","2","29","61","1421.58500886","direct","1","1","1","¿Qué país africano fue 
fundado por esclavos?","Liberia","Chad",,"0","0","0","competitive","right","0.898242950439","1422.48331499","4.10175704956","1426.7436738","3.37368011475","1430.11739397","2.62631988525","1432.79438186","1434.78594398","1434.86324692","1437.86624694","0","1437.88097787","1445.87182593",
"sujeto_32e036e7","1","2","30","62","1446.01578379","inverse","4","1","2","¿A cuánto asciende la cima
 del monte Everest?","7.990 mts","8.848 mts",,"0","0","1","competitive","left","0.915874004364","1446.93172193","4.08412599564","1451.17090988","4.15084981918","1455.32180285","1.84915018082","1457.22350192","1458.40836477","1458.4907968","1461.49377489","0","1461.50806093","1468.69211483",
"sujeto_32e036e7","1","2","31","63","1468.82649684","direct","4","1","1","¿Cuál es el país mas chico?","Sealand","Luxemburgo",,"1","1","1","competitive","right","0.786514997482","1469.61307478","4.21348500252","1473.98433185","3.17874598503","1477.16312099","2.82125401497","1480.01762486","1481.88112593","1481.95273781","1484.95571589","1","1484.97027397","1488.09256887",
"sujeto_32e036e7","1","2","32","64","1488.22236681","inverse","2","1","4","¿Cuántas pirámides hay en Egipto?","10000","11000",,"1","1","1","competitive","right","0.75200009346","1488.9744699","4.24799990654","1493.39626479","2.66314697266","1496.05947781","3.33685302734","1499.42902899","1500.46263385","1500.54790688","1503.55089188","1","1503.56552696","1508.67460895",
"sujeto_32e036e7","1","3","1","65","1622.61057401","direct","2","1","2","¿Cuál es el quinto país con 
mas extensión?","Canadá","Brasil",,"1","1","0","competitive","left","0.842575073242","1623.453192","4.15742492676","1627.7669239","4.70219182968","1632.469172","1.29780817032","1633.81797099","1635.1509409","1635.23602486","1638.239012","1","1638.25328898","1645.97964096","1508.6859889"
"sujeto_32e036e7","1","3","2","66","1646.12094378","inverse","1","1","2","¿Qué rasgo facial no tiene
 la Mona Lisa?","Cejas","Pómulos",,"0","0","1","competitive","left","0.68249297142","1646.80350494","4.31750702858","1651.27752995","4.76898312569","1656.046556","1.23101687431","1657.33017898","1659.08057499","1659.16453481","1662.16749978","0","1662.18169785","1668.45303893",
"sujeto_32e036e7","1","3","3","67","1668.59962487","direct","4","1","3","¿Cuál es el país con 
mayor población?","Esados Unidos","China","right","0","0","1","competitive","right","0.765118837357","1669.36478877","4.23488116264","1673.75237083","3.82335805893","1677.57578897","2.17664194107","1679.8057189","1681.45170784","1681.5230639","1684.5260129","1","1684.54061079","1687.90794778",
"sujeto_32e036e7","1","3","4","68","1688.04239178","inverse","1","1","1","La palabra dinosaurio significa","Lagarto Terrible","Lagarto Dragón",,"1","1","0","competitive","right","0.830577135086","1688.87301898","4.16942286491","1693.20114994","4.22976899147","1697.43097401","1.77023100853","1699.25287294","1700.42322087","1700.50373483","1703.50673485","1","1703.52044892","1706.38227987",
"sujeto_32e036e7","1","3","5","69","1706.522017","direct","2","1","3","¿Qué es el membrillero?","Arbol","Arbusto",,"0","0","0","competitive","left","0.643166065216","1707.16524792","4.35683393478","1711.67653298","3.91370415688","1715.59030581","2.08629584312","1717.710109","1719.66417599","1719.7441349","1722.74691486","0","1722.764117","1729.228158",
"sujeto_32e036e7","1","3","6","70","1729.36585879","inverse","3","1","3","¿Alrededor de qué planeta orbita 
el satélite Europa?","Jupiter","Saturno",,"1","1","1","competitive","right","0.875535011292","1730.24144197","4.12446498871","1734.52024484","3.89821100235","1738.41851592","2.10178899765","1740.57280397","1742.11763883","1742.19013882","1745.19313478","1","1745.2083869","1747.41354895",
"sujeto_32e036e7","1","3","7","71","1747.54234195","direct","3","1","1","¿Donde fue el mundial de 
fútbol de 1954?","Suiza","Suecia",,"1","1","1","competitive","right","0.830285072327","1748.37267995","4.16971492767","1752.699471","3.55320811272","1756.25274396","2.44679188728","1758.74965286","1760.00228","1760.08445287","1763.0874579","1","1763.102072","1767.01388383",
"sujeto_32e036e7","1","3","8","72","1767.15409279","inverse","1","1","4","¿Cuál de los 7 enanitos
no tenía barba?","Bashful","Mudito",,"1","1","0","competitive","right","0.548769950867","1767.70292282","4.45123004913","1772.309062","3.79983186722","1776.10895181","2.20016813278","1778.36083078","1779.94100189","1780.01222301","1783.01521683","1","1783.02861881","1787.95772386",
"sujeto_32e036e7","1","3","9","73","1788.09534287","direct","3","1","2","¿Cual red social es
mas utilizada mundialmente?","Instagram","Facebook",,"1","1","0","competitive","right","0.71973991394","1788.81512594","4.28026008606","1793.27016497","3.71400403976","1796.98420882","2.28599596024","1799.32166886","1801.23798299","1801.32314181","1804.32606697","1","1804.34026384","1807.27476978",
"sujeto_32e036e7","1","3","10","74","1807.40855289","inverse","4","1","1","¿Cuándo se inició la copa
 América de fútbol?","1916","1923",,"1","1","1","competitive","left","0.94170498848","1808.35032797","4.05829501152","1812.56374788","3.9115447998","1816.47533679","2.0884552002","1818.61475778","1820.5122149","1820.59942889","1823.6019249","1","1823.61766601","1826.27377486",
"sujeto_32e036e7","1","3","11","75","1826.40247178","direct","3","1","4","¿Cuántos presidentes de EEUU
han muerto asesinados?","3","4",,"0","0","1","competitive","right","0.913182020187","1827.315732","4.08681797981","1831.55688286","2.9586148262","1834.51554179","3.0413851738","1837.60753393","1839.09147382","1839.17633295","1842.17929387","0","1842.19389677","1845.83801699",
"sujeto_32e036e7","1","3","12","76","1845.97791481","inverse","2","1","4","¿Cuántas veces participó EEUU
 en la copa América?","4","5",,"0","0","1","competitive","right","0.724784851074","1846.70274401","4.27521514893","1851.13312483","4.03854608536","1855.17171288","1.96145391464","1857.18513083","1858.62924981","1858.70291996","1861.70590878","0","1861.72018695","1867.83736777",
"sujeto_32e036e7","1","3","13","77","1867.97169089","direct","4","1","1","¿Cuál de estos países 
no formaba la URSS?","Azeribayán","Afganistán",,"0","0","1","competitive","left","1.12243795395","1869.0941968","3.87756204605","1873.14073992","3.02518415451","1876.16596293","2.97481584549","1879.17588878","1880.48894382","1880.57753086","1883.58051991","0","1883.59510088","1891.57724285",
"sujeto_32e036e7","1","3","14","78","1891.71375394","inverse","1","1","1","¿En qué año se inauguró
 el teatro Solís?","1867","1856",,"0","0","0","competitive","right","1.51639699936","1893.23021483","3.48360300064","1896.87522578","3.19892311096","1900.07420683","2.80107688904","1902.92604899","1903.9823699","1904.06089091","1907.06388283","0","1907.0774529","1913.725245",
"sujeto_32e036e7","1","3","15","79","1913.86286187","direct","1","1","4","¿A qué velocidad vuela 
el avión más rápido?","3529","3874",,"0","0","0","competitive","left","0.804522037506","1914.66742778","4.19547796249","1919.03639793","2.54997396469","1921.58640981","3.45002603531","1925.08647585","1926.84200478","1926.92156386","1929.92450094","0","1929.94012594","1932.05036879",
"sujeto_32e036e7","1","3","16","80","1932.1912539","inverse","3","1","4","¿De qué año es la primer 
película cinematográfica?","1897","1888",,"0","0","0","competitive","left","0.707243204117","1932.89855886","4.29275679588","1937.34606981","3.46447587013","1940.810606","2.53552412987","1943.39713979","1944.53014684","1944.61529493","1947.61826587","0","1947.6326189","1953.04239297",
"sujeto_32e036e7","1","3","17","81","1953.16951799","direct","2","1","3","¿Cuántos países 
tiene nuestro planeta?","191","194",,"1","1","1","competitive","right","0.70223402977","1953.87181878","4.29776597023","1958.33599186","4.50175380707","1962.83780885","1.49824619293","1964.38897586","1965.74593687","1965.82290792","1968.82589293","1","1968.84049296","1972.0787828",
"sujeto_32e036e7","1","3","18","82","1972.22487092","inverse","2","1","2","¿Cuántos habitantes
 tiene Buenos Aires?","2.9000.000","3650000",,"0","0","0","competitive","left","0.628031015396","1972.85294795","4.3719689846","1977.38343287","3.0214908123","1980.4049859","2.9785091877","1983.434304","1984.83154178","1984.90211678","1987.90446186","0","1987.92011595","1993.74951196",
"sujeto_32e036e7","1","3","19","83","1993.88765097","direct","2","1","1","¿Cuántos kilos forman una tonelada?","1000","1500","left","1","1","1","competitive","left","0.837515115738","1994.72527289","4.16248488426","1999.04481888","2.16428899765","2001.20914483","3.83571100235","2005.07870293","2006.96605182","2007.047575","2010.05057192","1","2010.06490898","2016.02234483",
"sujeto_32e036e7","1","3","20","84","2016.18177199","inverse","4","1","4","¿Cuántos estados tiene la 
República del Perú? ","24","23",,"0","0","1","competitive","right","0.748517990112","2016.93035698","4.25148200989","2021.34030199","3.47202897072","2024.81239581","2.52797102928","2027.39138794","2028.41297889","2028.49269891","2031.49569488","0","2031.50994682","2036.45526886",
"sujeto_32e036e7","1","3","21","85","2036.59476089","direct","3","1","3","¿En qué año nació Cristóbal Colón? ","1451","1447",,"0","0","1","competitive","left","0.66977596283","2037.26460385","4.33022403717","2041.76665187","3.25376796722","2045.02048087","2.74623203278","2047.81638694","2049.66230083","2049.73432994","2052.73733377","0","2052.75289989","2056.98090196",
"sujeto_32e036e7","1","3","22","86","2057.12040401","inverse","4","1","4","¿Cuánto mide la 
Montaña Aconcagua? ","6234","6962",,"0","0","1","competitive","right","0.630239963531","2057.75069284","4.36976003647","2062.29529285","3.91240882874","2066.20776081","2.08759117126","2068.34568691","2069.63506389","2069.713449","2072.71640182","0","2072.72981787","2079.91348195",
"sujeto_32e036e7","1","3","23","87","2080.04682684","direct","2","1","4","¿Cuánto mide el punto
 más profundo del océano? ","12508","11003",,"0","0","1","competitive","left","1.1070098877","2081.1539259","3.8929901123","2085.20653796","2.65131878853","2087.85792899","3.34868121147","2091.25726795","2092.50876284","2092.59268594","2095.59569478","0","2095.60915494","2099.81542277",
"sujeto_32e036e7","1","3","24","88","2099.96092582","inverse","1","1","3","¿Cuántos álbumes ha publicado 
el cantante Jaime Roos? ","41","34",,"0","0","1","competitive","right","0.570222854614","2100.53121781","4.42977714539","2105.13160396","3.75048017502","2108.88215089","2.24951982498","2111.18505883","2112.67491984","2112.7527349","2115.75441599","0","2115.76968098","2121.96584797",
"sujeto_32e036e7","1","3","25","89","2122.104985","direct","4","1","3","¿En qué año nació el 
ex-presidente Jorge Battle? ","1921","1927",,"1","1","1","competitive","left","0.809287071228","2122.91437483","4.19071292877","2127.27360082","3.77162599564","2131.04526687","2.22837400436","2133.32685494","2135.05751586","2135.14463496","2138.14758301","1","2138.16220999","2141.64793181",
"sujeto_32e036e7","1","3","26","90","2141.78059793","inverse","1","1","3","¿Cuántas presidencias 
constitucionales  hubo en Uruguay? ","41","42",,"0","0","1","competitive","right","1.00278019905","2142.78344083","3.99721980095","2146.93880677","3.93659806252","2150.87544799","2.06340193748","2152.98979282","2154.19353795","2154.2741859","2157.27718687","0","2157.2917819","2163.07540178",
"sujeto_32e036e7","1","3","27","91","2163.22707486","direct","1","1","2","¿Quién escribió mas sinfonías?","Mozart","Haydn",,"1","1","0","competitive","right","0.723515987396","2163.95063281","4.2764840126","2168.38406396","3.44151616096","2171.82564688","2.55848383904","2174.43471193","2175.6522069","2175.73550582","2178.73598099","1","2178.75335979","2182.50477695",
"sujeto_32e036e7","1","3","28","92","2182.65454578","inverse","4","1","2","¿En qué año nació Michael Jackson?","1958","1953",,"1","1","1","competitive","right","0.666218042374","2183.32083178","4.33378195763","2187.82596898","2.76671290398","2190.59274292","3.23328709602","2193.87864399","2195.8568778","2195.94613981","2198.94911385","1","2198.96334982","2204.82567883",
"sujeto_32e036e7","1","3","29","93","2204.96530485","direct","3","1","2","¿En qué año entró en vigencia 
la ley antitabaco en Uruguay?","2005","2006",,"1","1","1","competitive","right","0.843641042709","2205.80902386","4.15635895729","2210.12011981","4.69883489609","2214.81901884","1.30116510391","2216.1718688","2217.76595592","2217.8394959","2220.84248686","1","2220.85713577","2226.19110394",
"sujeto_32e036e7","1","3","30","94","2226.32519794","inverse","3","1","1","¿Cuándo se subió el 
primer video a youtube?","2004","2005",,"0","0","1","competitive","left","0.647901058197","2226.9731729","4.3520989418","2231.4834168","2.85174703598","2234.33520293","3.14825296402","2237.53336978","2238.83896279","2238.9186089","2241.92160392","0","2241.93628883","2249.69194484",
"sujeto_32e036e7","1","3","31","95","2249.83731198","direct","2","1","1","¿Cuántos habitantes tiene India?","1200 millones","1300 millones",,"0","0","0","competitive","right","0.756518125534","2250.59399199","4.24348187447","2254.99549699","3.20576810837","2258.20130396","2.79423189163","2261.04610896","2263.01574492","2263.09819579","2266.10116386","0","2266.11442494","2272.16194081",
"sujeto_32e036e7","1","3","32","96","2272.2989068","inverse","4","1","2","¿A qué edad murió Bob Marley?","36","37",,"0","0","1","competitive","left","0.709476947784","2273.00844789","4.29052305222","2277.45675182","2.36375784874","2279.82055187","3.63624215126","2283.49091482","2285.38875985","2285.47657681","2288.47955585","0","2288.49375391","2291.59622288",
"sujeto_32e036e7","1","4","1","97","2411.12337184","direct","2","1","1","¿Cuantos años dirigió la selección 
uruguaya Tabarez?","15 años","13 años",,"0","0","0","competitive","right","0.812021970749","2411.93545794","4.18797802925","2416.27936697","3.50207209587","2419.78150392","2.49792790413","2422.33088994","2423.522053","2423.598171","2426.60117388","0","2426.61553097","2433.68755198","2291.60808396"
"sujeto_32e036e7","1","4","2","98","2433.83727884","inverse","4","1","1","¿Cuantas teclas tiene un teclado 
de computadora generalmente? ","Entre 99 y 108","Entre 109 y 113",,"1","1","1","competitive","right","0.677388906479","2434.514714","4.32261109352","2438.9899869","5.13665986061","2444.12671685","0.863340139389","2445.04185796","2446.04461288","2446.12530398","2449.12829494","1","2449.14271379","2451.51414895",
"sujeto_32e036e7","1","4","3","99","2451.64426589","direct","1","1","1","¿Cuál Departamento tiene
 mayor superficie?","Río Negro","Soriano",,"0","0","0","competitive","right","0.589520931244","2452.23389482","4.41047906876","2456.80007291","3.51067614555","2460.3108089","2.48932385445","2462.8351779","2464.54862499","2464.63639998","2467.63890386","0","2467.65360379","2471.97967386",
"sujeto_32e036e7","1","4","4","100","2472.12207794","inverse","3","1","2","¿Cuál es el apellido de las 
hermanastras  de  cenicienta?","Tremaine","Truman",,"0","0","1","competitive","right","0.675817012787","2472.79793978","4.32418298721","2477.2777288","4.93721795082","2482.2149868","1.06278204918","2483.32944489","2485.19893694","2485.280267","2488.28291297","0","2488.29825783","2490.99417877",
"sujeto_32e036e7","1","4","5","101","2491.13253284","direct","4","1","4","¿Cuál película ganó un
 Oscar a mejor película?","Alto Impacto","Cache",,"0","0","1","competitive","left","0.66349196434","2491.79609179","4.33650803566","2496.30320287","3.7148308754","2500.01807284","2.2851691246","2502.35493493","2503.47434783","2503.55927086","2506.56223989","0","2506.57254887","2508.83718085",
"sujeto_32e036e7","1","4","6","102","2508.97447681","inverse","1","1","3","¿A cuántos centímetros
equivale la medida pié?","25","30",,"0","0","1","competitive","left","0.755677938461","2509.73019791","4.24432206154","2514.13069487","3.34244990349","2517.47320485","2.65755009651","2520.1646359","2521.20464492","2521.28298688","2524.2859838","0","2524.30057096","2529.70153785",
"sujeto_32e036e7","1","4","7","103","2529.83503199","direct","2","1","2","¿Qué departamento es mas grande?","Cerro Largo","Paysandú",,"0","0","0","competitive","left","0.705420970917","2530.54049587","4.29457902908","2534.99178791","2.61258506775","2537.60441685","3.38741493225","2541.04208589","2542.64186788","2542.72689581","2545.72893882","0","2545.74423099","2549.85415888",
"sujeto_32e036e7","1","4","8","104","2549.99520183","inverse","2","1","3","¿Quién pintó la Mona Lisa?","Picasso","Da Vinci","right","0","0","1","competitive","right","0.523266077042","2550.51851392","4.47673392296","2555.14949083","2.92093491554","2558.07046485","3.07906508446","2561.20135784","2562.807235","2562.88652682","2565.88945389","1","2565.90376687","2568.06609797",
"sujeto_32e036e7","1","4","9","105","2568.20556784","direct","4","1","3","¿Cuántos litros hay en un galon?","3.54","3.78",,"1","1","1","competitive","right","0.766978979111","2568.97259092","4.23302102089","2573.37806988","2.61141586304","2575.98951983","3.38858413696","2579.41134381","2580.92922783","2581.01340795","2584.01596189","1","2584.031564","2589.82295895",
"sujeto_32e036e7","1","4","10","106","2589.96628881","inverse","4","1","1","¿Cuántas teclas tiene
 un piano moderno?","80","88",,"0","0","1","competitive","right","0.69747710228","2590.66390181","4.30252289772","2595.123209","3.39741587639","2598.52065992","2.60258412361","2601.17404985","2602.18256688","2602.25875783","2605.26092482","0","2605.27522397","2612.06754589",
"sujeto_32e036e7","1","4","11","107","2612.20978785","direct","4","1","3","¿Cuántos países hay en África?","54","62",,"0","0","1","competitive","left","0.716073989868","2612.92591596","4.28392601013","2617.3681848","2.17068910599","2619.53895497","3.82931089401","2623.41797495","2625.10853791","2625.18534899","2628.18833399","0","2628.20371389","2636.00297499",
"sujeto_32e036e7","1","4","12","108","2636.13813186","inverse","1","1","3","¿En qué siglo se crearon
 las primeras pistolas?","XV","XIII",,"1","1","1","competitive","right","0.881876945496","2637.02005291","4.1181230545","2641.31207895","3.87296509743","2645.1851089","2.12703490257","2647.36503887","2649.31294084","2649.39962482","2652.40260696","1","2652.41688085","2655.64996696",
"sujeto_32e036e7","1","4","13","109","2655.78535485","direct","3","1","4","¿En qué año se estrenó 
la serie friends?","1994","1995",,"0","0","1","competitive","right","0.733783006668","2656.51918292","4.26621699333","2660.95758486","3.9976170063","2664.95526695","2.0023829937","2667.00808096","2668.8834219","2668.95986295","2671.96287179","0","2671.97702885","2676.98308277",
"sujeto_32e036e7","1","4","14","110","2677.12870693","inverse","3","1","4","¿En qué año nació Hitler?","1889","1887",,"0","0","1","competitive","left","0.631644010544","2677.76040483","4.36835598946","2682.28474283","2.64861488342","2684.9334178","3.35138511658","2688.31812787","2689.43250394","2689.52088499","2692.52390099","0","2692.537637","2697.56462789",
"sujeto_32e036e7","1","4","15","111","2697.70630693","direct","1","1","4","¿Cuánto pesa un elefante Africano?","6000 kilos","5400 kilos",,"0","0","0","competitive","right","0.769092082977","2698.47550678","4.23090791702","2702.87944698","3.91696214676","2706.79646897","2.08303785324","2708.93031883","2710.28595781","2710.36462092","2713.36756277","0","2713.38239598","2720.08941197",
"sujeto_32e036e7","1","4","16","112","2720.2332418","inverse","1","1","2","¿Qué porcentaje de 
la población es zurda?","10%","7%",,"1","1","0","competitive","right","0.848309993744","2721.08159494","4.15169000626","2725.38781095","2.78975915909","2728.17760897","3.21024084091","2731.43968487","2732.68276501","2732.758425","2735.76141596","1","2735.77574897","2741.75548887",
"sujeto_32e036e7","1","4","17","113","2741.89373493","direct","1","1","2","¿En qué año se estrenó
Volver al futuro?","1984","1985",,"0","0","1","competitive","left","0.762043952942","2742.65583181","4.23795604706","2747.05216599","2.72354602814","2749.77577782","3.27645397186","2753.10235286","2754.66418386","2754.73750687","2757.74047589","0","2757.75508881","2764.84656286",
"sujeto_32e036e7","1","4","18","114","2764.973279","inverse","3","1","2","¿Cuántos jugadores hay en un 
equipo de baseball?","9","8",,"1","1","0","competitive","right","0.688591957092","2765.66195083","4.31140804291","2770.16447878","3.77740812302","2773.941926","2.22259187698","2776.19870687","2777.81296396","2777.89962387","2780.90261698","1","2780.91726089","2785.89450598",
"sujeto_32e036e7","1","4","19","115","2786.03533983","direct","2","1","1","¿Cuántos Oscar ganó
 la película titanic?","13","11",,"1","1","1","competitive","right","1.04266691208","2787.07806993","3.95733308792","2791.19211578","4.22689795494","2795.41908097","1.77310204506","2797.22616887","2798.52823782","2798.61028099","2801.612607","1","2801.628124","2806.23080277",
"sujeto_32e036e7","1","4","20","116","2806.36232495","inverse","4","1","4","¿En qué año comenzó
la segunda guerra mundial?","1939","1976","left","0","0","1","competitive","left","0.42184305191","2806.78421378","4.57815694809","2811.53289199","2.60121893883","2814.13414979","3.39878106117","2817.58546782","2819.38529587","2819.47038889","2822.47332692","1","2822.48757386","2826.47473478",
"sujeto_32e036e7","1","4","21","117","2826.63919377","direct","2","1","4","¿Cuántos biomas hay en Uruguay?","5","4",,"0","0","1","competitive","right","0.752063035965","2827.391325","4.24793696404","2831.79622078","2.99408698082","2834.79034686","3.00591301918","2837.82998395","2839.6269958","2839.69854283","2842.701509","0","2842.71625781","2848.96566486",
"sujeto_32e036e7","1","4","22","118","2849.10121489","inverse","2","1","3","¿Cuándo murió Pablo Escobar?","1993","1997",,"1","1","1","competitive","left","0.612179994583","2849.71344495","4.38782000542","2854.25740194","3.23900604248","2857.4964478","2.76099395752","2860.30846","2862.09127593","2862.17677999","2865.17971897","1","2865.19499278","2870.89861894",
"sujeto_32e036e7","1","4","23","119","2871.04615688","direct","1","1","4","¿Qué serie ha ganado mas premios?","Friends","Murphy Brown",,"1","1","0","competitive","left","0.908373832703","2871.954597","4.0916261673","2876.20313692","3.9974322319","2880.20060682","2.0025677681","2882.25440478","2883.60678291","2883.6883018","2886.6912899","1","2886.70550489","2892.26713991",
"sujeto_32e036e7","1","4","24","120","2892.40654588","inverse","4","1","2","¿Cuántas fichas tiene el dominó?","26","28",,"1","1","1","competitive","right","0.647156000137","2893.05376887","4.35284399986","2897.56191683","3.60469007492","2901.16666293","2.39530992508","2903.61447001","2904.66975594","2904.74946189","2907.75246286","1","2907.76665092","2913.00974393",
"sujeto_32e036e7","1","4","25","121","2913.13665199","direct","2","1","4","¿Cuántos son los dientes de leche?","20","25",,"0","0","1","competitive","right","0.790297031403","2913.92699885","4.2097029686","2918.29149795","3.2092499733","2921.50078678","2.7907500267","2924.32547688","2926.03582883","2926.110111","2929.11303282","0","2929.12763286","2931.27336097",
"sujeto_32e036e7","1","4","26","122","2931.41294694","inverse","3","1","3","¿Cuántos gramos son una onza?","22","28",,"0","0","1","competitive","left","0.779669046402","2932.19269085","4.2203309536","2936.56774092","4.05720615387","2940.62500787","1.94279384613","2942.61899281","2944.613832","2944.68685579","2947.68981695","0","2947.70435596","2953.99460983",
"sujeto_32e036e7","1","4","27","123","2954.15511084","direct","3","1","1","¿Cuándo salió el primer album
 de los Beatles?","1963","1962",,"1","1","1","competitive","right","0.816972017288","2954.9721539","4.18302798271","2959.31316495","3.35789704323","2962.67112398","2.64210295677","2965.36351395","2966.5271039","2966.61506486","2969.61798596","1","2969.63232589","2973.40432978",
"sujeto_32e036e7","1","4","28","124","2973.54376698","inverse","3","1","3","¿Quién fundó la empresa apple?","Carlos Slim","Steve Jobs",,"1","1","1","competitive","right","0.708420991898","2974.25223184","4.2915790081","2978.70081186","3.62841296196","2982.32928491","2.37158703804","2984.73716998","2985.85183477","2985.92126894","2988.92420983","1","2988.93878293","2995.23377085",
"sujeto_32e036e7","1","4","29","125","2995.39035678","direct","4","1","2","¿Cuántos municipios hay
 en Montevideo?","8","7",,"1","1","1","competitive","left","0.641919136047","2996.03233981","4.35808086395","3000.55029178","2.90493607521","3003.45528293","3.09506392479","3006.60159993","3008.51498294","3008.60263181","3011.60558891","1","3011.6201818","3013.70127082",
"sujeto_32e036e7","1","4","30","126","3013.83856893","inverse","1","1","1","¿Cuántos kilómetros hay
 de Montevideo a Artigas?","632","599",,"0","0","0","competitive","left","1.44486618042","3015.28347898","3.55513381958","3018.99411893","3.69735002518","3022.6915288","2.30264997482","3025.04477596","3026.52793288","3026.61303282","3029.61595082","0","3029.63028479","3035.68115187",
"sujeto_32e036e7","1","4","31","127","3035.81213593","direct","2","1","2","¿En qué año nació 
Leonardo Da Vinci?","1452","1511",,"1","1","0","competitive","right","0.664386034012","3036.47658682","4.33561396599","3040.98773384","4.12282991409","3045.11060691","1.87717008591","3047.03914881","3048.89276481","3048.97444081","3051.97742987","1","3051.99180198","3055.13820982",
"sujeto_32e036e7","1","4","32","128","3055.27651787","inverse","3","1","1","¿A qué continente
 pertenece el país Gabón?","Africa","Oceanía",,"0","0","1","competitive","left","1.00917196274","3056.28574586","3.99082803726","3060.43022394","0.0964200496674","3060.52671099","5.90357995033","3066.49620485","3068.30789089","3068.3823719","3071.38537693","0","3071.40007401","3076.63797688",
