"code","nro_aplicante","nro_bloque","nro_trial_bloque","nro_trial_global","show_game_type","choice_order","rival","pay_individual","pay_competitive","question","answer_left_text","answer_right_text","correct_answer","outcome_individual","outcome_competitive","outcome_rival","game_type","answer","social_time","rt_game_type","feedback_delay","show_question","answer_time","rt_answer_global","feedback_delay_2","show_jitter","jitter_time","show_outcome","outcome_time","outcome_participant_real","show_final_jitter","second_jitter_time","inicio_descanso"
"sujeto_077f2b56","1","1","1","1","557.265009165","direct","3","1","4","¿Cuántos centímetros corresponden
al talle 36 del calzado?","23","24","","0","0","1","competitive","left","1.92234611511","559.187397003","3.07765388489","562.422829151","4.30157613754","566.724473","1.69842386246","568.473917007","569.502233982","569.575267076","572.575551987","0","572.591472149","574.754003048",""
"sujeto_077f2b56","1","1","2","2","574.893254995","inverse","3","1","2","¿Cuántas metros mide la Intendencia
Municipal de Montevideo? ","84","78","","0","0","1","competitive","left","2.34418797493","577.237504005","2.65581202507","580.032139063","4.74930882454","584.781507969","1.25069117546","586.081055164","587.959098101","588.032469988","591.035397053","0","591.049602032","593.142384052",""
"sujeto_077f2b56","1","1","3","3","593.26791811","direct","1","1","3","¿Cuántas La Pasiva
 hay en uruguay?","15","11","","1","1","1","competitive","left","1.83569812775","595.103659153","3.16430187225","598.458842993","4.70678091049","603.165666103","1.29321908951","604.49269104","606.104403973","606.176403999","609.179375172","1","609.19456315","613.472903013",""
"sujeto_077f2b56","1","1","4","4","613.612432957","inverse","3","1","3","¿De que color es la camiseta de uruguay?","blanca","celeste","right","1","1","1","competitive","right","1.92939996719","615.541890144","3.07060003281","618.786261082","3.64656305313","622.432862043","2.35343694687","624.819837093","626.024625063","626.104575157","629.107566118","1","629.12144804","632.575368166",""
"sujeto_077f2b56","1","1","5","5","632.723535061","direct","2","1","1","¿Cuánto metros mide
la torre Eiffel?","333","324","","1","1","1","competitive","right","2.17456102371","634.898162127","2.82543897629","637.879511118","3.31261706352","641.192188978","2.68738293648","643.911919117","645.433263063","645.513975143","648.516983986","1","648.530889988","655.56754899",""
"sujeto_077f2b56","1","1","6","6","655.699129105","inverse","3","1","4","¿Cuantas ciudades existen
 en todo el uruguay?","63","72","","0","0","1","competitive","left","1.63928508759","657.338458061","3.36071491241","660.858185053","5.65533804893","666.513586044","0.344661951065","666.892775059","667.947555065","668.026450157","671.029427052","0","671.043596029","678.670189142",""
"sujeto_077f2b56","1","1","7","7","678.81180501","direct","1","1","1","¿Cuantos estados tiene África?","52","54","","1","1","0","competitive","right","1.26198291779","680.073863983","3.73801708221","683.969397068","3.91746687889","687.886908054","2.08253312111","690.020512104","691.884536982","691.954678059","694.957627058","1","694.972877026","700.733883142",""
"sujeto_077f2b56","1","1","8","8","700.874459028","inverse","4","1","4","¿En qué año nació
 Stephen Hawking?","1952","1942","","0","0","1","competitive","left","1.14070796967","702.015233994","3.85929203033","706.065233946","4.23492693901","710.300205946","1.76507306099","712.116382122","713.560662031","713.633841991","716.636815071","0","716.65094018","722.750276089",""
"sujeto_077f2b56","1","1","9","9","722.885969162","direct","2","1","3","¿Cuánto años tenía Artigas
 cuando se fue a Paraguay?","56","57","","1","1","1","competitive","right","1.22944998741","724.115543127","3.77055001259","728.059688091","5.88583016396","733.945559025","0.114169836044","734.111624002","735.661139011","735.745682001","738.747550964","1","738.762412071","744.807526112",""
"sujeto_077f2b56","1","1","10","10","744.947379112","inverse","1","1","2","¿Cuantos milímetros 
mide una hoja A2?","420x592","420x594","","0","0","1","competitive","right","1.11241602898","746.059860945","3.88758397102","750.135727167","5.8081099987","755.943901062","0.191890001297","756.172592163","757.741034985","757.822380066","760.825361013","0","760.839569092","767.913208008",""
"sujeto_077f2b56","1","1","11","11","768.057830095","direct","3","1","3","¿Cuál es la menor temperatura 
registrada en Uruguay?","-5.4","-7.4","","0","0","1","competitive","left","1.13527202606","769.193146944","3.86472797394","773.216972113","4.16714715958","777.384178162","1.83285284042","779.268144131","780.9501791","781.035644054","784.038620949","0","784.052829027","787.78611517",""
"sujeto_077f2b56","1","1","12","12","787.921414137","inverse","2","1","2","¿Cuantos años hace que 
se fundó facebook?","18","17","","0","0","0","competitive","left","1.11195206642","789.033434153","3.88804793358","793.094722986","4.51866102219","797.613424063","1.48133897781","799.145622015","800.518313169","800.596755028","803.599704027","0","803.613996983","806.388609171",""
"sujeto_077f2b56","1","1","13","13","806.515516996","direct","1","1","4","¿Cuál animal es más
 pesado en promedio?","Rinoceronte","Hipopotamo","","0","0","0","competitive","right","1.18751692772","807.703145027","3.81248307228","811.738243103","5.94038414955","817.678668022","0.0596158504486","817.773116112","818.852370024","818.939859152","821.942845106","0","821.956907988","825.797919989",""
"sujeto_077f2b56","1","1","14","14","825.925012112","inverse","1","1","2","¿Qué personaje de dragon ball 
murió más veces?","Chaoz","Krillin","","1","1","0","competitive","right","0.779880046844","826.70494318","4.22011995316","831.080003023","5.05094385147","836.130992174","0.949056148529","837.132017136","838.589822054","838.665519953","841.667608976","1","841.682858944","849.452373981",""
"sujeto_077f2b56","1","1","15","15","849.635074139","direct","3","1","2","La universidad de oxford. 
existe desde:","1096","1249","","1","1","0","competitive","right","1.31005311012","850.945175171","3.68994688988","854.777523041","4.41873788834","859.196303129","1.58126211166","860.82862401","861.877449989","861.962258101","864.965219021","1","864.979585171","871.670405149",""
"sujeto_077f2b56","1","1","16","16","871.797326088","inverse","3","1","1","¿Qué escritor latino ganó antes
 el premio nobel?"," García Marquez","Neruda","","0","0","1","competitive","","1.0325357914","872.829931974","3.9674642086","876.971515179","6","882.971658945","0","882.987029076","884.727012157","884.80799818","887.810973167","0","887.824215174","891.284739971",""
"sujeto_077f2b56","1","1","17","17","891.409754038","direct","4","1","3","¿Cuántos dientes tiene un
 tiburón blanco?","6000","3000","","0","0","1","competitive","right","0.847921848297","892.257753134","4.1520781517","896.564660072","3.99414587021","900.558845997","2.00585412979","902.600039005","903.639043093","903.717723131","906.720692158","0","906.734766006","911.544440985",""
"sujeto_077f2b56","1","1","18","18","911.686123133","inverse","4","1","1","¿Cuánto mide el paralelo Ecuador?","40.000km","70.000km","","0","0","1","competitive","right","0.60388302803","912.290060997","4.39611697197","916.841962099","5.29404020309","922.13606596","0.705959796906","922.878390074","924.834509134","924.911304951","927.911587","0","927.928775072","931.531352043",""
"sujeto_077f2b56","1","1","19","19","931.664411068","direct","4","1","2","¿Cuál fue el primer libro 
de Stephen King?","Carrie","The Stand","","1","1","1","competitive","right","1.05181288719","932.716269016","3.94818711281","936.837389946","3.48888492584","940.326318979","2.51111507416","942.887715101","944.631790161","944.706371069","947.709303141","1","947.722694159","952.19559598",""
"sujeto_077f2b56","1","1","20","20","952.324393988","inverse","2","1","3","¿Qué civilización practicaba
 la momificación?","Grecia","Egipto","right","0","0","1","competitive","right","1.01312494278","953.337589025","3.98687505722","957.48013711","4.44942712784","961.929625988","1.55057287216","963.532356977","965.471671104","965.549762964","968.552730083","1","968.566692114","972.79553318",""
"sujeto_077f2b56","1","1","21","21","972.935440063","direct","4","1","4","¿Cuántos millones de visitas
 recibe google por minuto?","3.0","4.5","","0","0","1","competitive","right","0.932344913483","973.867855072","4.06765508652","978.089128017","4.01470994949","982.103899956","1.98529005051","984.140705109","985.655580997","985.741971016","988.744965076","0","988.759258986","995.881924152",""
"sujeto_077f2b56","1","1","22","22","996.028423071","inverse","1","1","3","La máquina de fax. se inventó en:","1843","1960","","0","0","1","competitive","left","0.870590925217","996.899084091","4.12940907478","1001.20283699","4.47125601768","1005.67414308","1.52874398232","1007.25497818","1008.49706507","1008.57190108","1011.57490301","0","1011.58911705","1014.82542014",""
"sujeto_077f2b56","1","1","23","23","1014.95778012","direct","2","1","4","En la verdadera historia de los
 300 espartanos. habían:","300 soldados","4300 soldados","","1","1","1","competitive","right","1.10848712921","1016.06631398","3.89151287079","1020.13033009","4.69990897179","1024.83027697","1.30009102821","1026.18152213","1027.44274116","1027.51608109","1030.51907706","1","1030.53346801","1034.33159399",""
"sujeto_077f2b56","1","1","24","24","1034.46823001","inverse","1","1","4","¿Cuántos milímetros crece
 el pelo por día?","0.4","0.04","","0","0","0","competitive","right","0.89423584938","1035.36253405","4.10576415062","1039.62419009","3.91129922867","1043.53555799","2.08870077133","1045.65887308","1047.41957498","1047.49279213","1050.49577117","0","1050.51089311","1057.24598718",""
"sujeto_077f2b56","1","1","25","25","1057.37895513","direct","4","1","1","¿Cuánto mide la baldosa gris 
clásica de Montevideo?","22x22 cm.","20x20 cm.","","1","1","1","competitive","right","1.06778001785","1058.44680595","3.93221998215","1062.56706309","3.99578499794","1066.56291103","2.00421500206","1068.61955214","1070.61480498","1070.70398211","1073.70698404","1","1073.72102118","1079.26381612",""
"sujeto_077f2b56","1","1","26","26","1079.40658498","inverse","2","1","2","¿Cuántas películas de rápidos
 y furiosos hay?","10","11","","1","1","0","competitive","right","0.896413087845","1080.30304503","4.10358691216","1084.56402016","2.87694215775","1087.44100595","3.12305784225","1090.59795904","1091.95595908","1092.033319","1095.03561997","1","1095.05082202","1097.08552814",""
"sujeto_077f2b56","1","1","27","27","1097.21835399","direct","3","1","1","¿Cuántos masters 1000
 ganó Del Potro?","1","2","","1","1","1","competitive","right","1.25084209442","1098.46927214","3.74915790558","1102.391222","3.89502286911","1106.28628612","2.10497713089","1108.42531109","1110.17957497","1110.25921011","1113.25960398","1","1113.27661896","1120.67298412",""
"sujeto_077f2b56","1","1","28","28","1120.79445696","inverse","2","1","4","¿Cuántos meses dura el 
embarazo de una leona?","3 meses","4 meses","","0","0","1","competitive","left","0.621292114258","1121.41583014","4.37870788574","1125.96965218","4.65685796738","1130.62655497","1.34314203262","1132.00384903","1133.11488509","1133.18855596","1136.19152713","0","1136.20552611","1142.92757416",""
"sujeto_077f2b56","1","1","29","29","1143.07390714","direct","1","1","1","¿En qué año fue creado
 el sandwich?","1762","1653","","1","1","0","competitive","left","0.703876972198","1143.77783704","4.2961230278","1148.24493599","3.41989588737","1151.66490698","2.58010411263","1154.29659009","1155.89514995","1155.98256302","1158.98554516","1","1158.99951315","1162.4701581",""
"sujeto_077f2b56","1","1","30","30","1162.60138297","inverse","4","1","2","El nombre de la moneda de Vietnam es:","Dinar","Dong","","0","0","1","competitive","left","0.860552072525","1163.46201801","4.13944792747","1167.75751901","4.30349993706","1172.06106496","1.69650006294","1173.80887604","1175.24088001","1175.32745004","1178.33046317","0","1178.343683","1184.51209497",""
"sujeto_077f2b56","1","1","31","31","1184.67900395","direct","2","1","1","¿cuantos aleteos puede dar 
un colibrí por segundo?","120","50","","0","0","0","competitive","left","0.721120119095","1185.40017009","4.27887988091","1189.83531499","3.73993396759","1193.57528901","2.26006603241","1195.88668203","1197.61907005","1197.68783808","1200.69080615","0","1200.70522213","1204.91748905",""
"sujeto_077f2b56","1","1","32","32","1205.05670309","inverse","4","1","3","¿Qué altura promedio tienen
 los hombres uruguayos?","1.73 m","1.72 m","","1","1","1","competitive","left","0.569761037827","1205.62651801","4.43023896217","1210.23075414","4.18674898148","1214.41756606","1.81325101852","1216.28181601","1217.54425502","1217.61563611","1220.61860204","1","1220.63253307","1225.10758805",""
"sujeto_077f2b56","1","2","1","33","1350.83765507","direct","1","1","1","¿En qué año nació 
el actor Bradd Pitt?","1967","1963","","1","1","1","competitive","right","0.972180843353","1351.80990314","4.02781915665","1356.00721908","4.25472187996","1360.26198697","1.74527812004","1362.05844998","1363.15431309","1363.24203014","1366.24500108","1","1366.26018715","1372.18774104","1225.11913109"
"sujeto_077f2b56","1","2","2","34","1372.32785916","inverse","2","1","1","¿Cual es el segundo 
monte más alto?","Kanchenjunga","K2","","1","1","1","competitive","right","0.706282138824","1373.03418803","4.29371786118","1377.48272109","5.31345701218","1382.79622102","0.686542987823","1383.5197351","1384.97160816","1385.05281711","1388.05581403","1","1388.07080507","1391.50070715",""
"sujeto_077f2b56","1","2","3","35","1391.63912416","direct","3","1","1","¿Cuándo finalizó la construcción
 del Palacio Legislativo?","1925","1917","","0","0","1","competitive","left","1.05122900009","1392.69040012","3.94877099991","1396.79451895","4.85584712029","1401.65040708","1.14415287971","1402.84656","1404.48819995","1404.56376004","1407.56674314","0","1407.58088517","1413.27788401",""
"sujeto_077f2b56","1","2","4","36","1413.41614795","inverse","3","1","3","¿Cuántos integrantes tenía
 en su inicio  el cuarteto de nos?","3","4","","1","1","1","competitive","right","0.710434913635","1414.12666297","4.28956508636","1418.57258415","4.72395515442","1423.29659915","1.27604484558","1424.60808206","1425.74118209","1425.82517004","1428.82815099","1","1428.84147096","1434.49129701",""
"sujeto_077f2b56","1","2","5","37","1434.62742996","direct","2","1","3","¿Qué valor tiene el número pi?","3.14","4.18","left","0","0","1","competitive","left","0.833331108093","1435.46083808","4.16666889191","1439.80059314","2.58123898506","1442.38187218","3.41876101494","1445.85087299","1447.30506611","1447.38534808","1450.38759208","1","1450.40371799","1457.32470202",""
"sujeto_077f2b56","1","2","6","38","1457.471807","inverse","2","1","2","¿Cuál es la esperanza de vida
 en Uruguay?","75","77","","1","1","0","competitive","right","0.768187046051","1458.24007201","4.23181295395","1462.64452314","3.97744512558","1466.62201309","2.02255487442","1468.67967105","1470.33345699","1470.41466618","1473.41765308","1","1473.43166494","1479.8946991",""
"sujeto_077f2b56","1","2","7","39","1480.03311014","direct","1","1","2","¿Cuantos pisos tiene la torre 
de las comunicaciones?","26","32","","1","1","0","competitive","","0.963032960892","1480.99621511","4.03696703911","1485.18792009","6","1491.18804216","0","1491.20594215","1493.0347321","1493.10825014","1496.11121202","0","1496.12645006","1498.27157903",""
"sujeto_077f2b56","1","2","8","40","1498.39419007","inverse","2","1","4","¿En qué país sudamericano 
no hay McDonalds?","Bolivia","Venezuela","","0","0","1","competitive","left","1.37253093719","1499.76676798","3.62746906281","1503.53487015","4.5705280304","1508.10546803","1.4294719696","1509.58589315","1510.89525318","1510.96988511","1513.97287011","0","1513.98719001","1520.34691215",""
"sujeto_077f2b56","1","2","9","41","1520.48863602","direct","3","1","1","¿En qué año empieza
 la Edad Media?","476","512","","1","1","1","competitive","right","0.725878953934","1521.21456218","4.27412104607","1525.64607096","3.62749505043","1529.27363396","2.37250494957","1531.68018818","1533.08362913","1533.16507411","1536.16755605","1","1536.18266416","1539.17120194",""
"sujeto_077f2b56","1","2","10","42","1539.30021596","inverse","3","1","4","¿Hace cuántos años surgió
 el ser humano?","200mil","300mil","","0","0","0","competitive","left","0.88417506218","1540.18447709","4.11582493782","1544.48659897","4.51020693779","1548.99684596","1.48979306221","1550.52262211","1552.40760708","1552.49019408","1555.49317408","0","1555.50723815","1558.81770706",""
"sujeto_077f2b56","1","2","11","43","1558.95928812","direct","3","1","4","¿Cuántas cuadras tiene
 actualmente 18 de julio? ","36","33","","0","0","1","competitive","left","0.913699150085","1559.87303495","4.08630084991","1564.11564612","4.44130897522","1568.55701995","1.55869102478","1570.15073204","1571.852988","1571.93465114","1574.93763614","0","1574.95193696","1579.678231",""
"sujeto_077f2b56","1","2","12","44","1579.85370708","inverse","1","1","4","¿Qué juego de equipo se 
considera mas rápido?","Lacrosse","Badminton","","0","0","0","competitive","","0.925377845764","1580.77915096","4.07462215424","1585.02667403","6","1591.026793","0","1591.04205298","1592.28508997","1592.36269712","1595.36567998","0","1595.37944198","1603.37457609",""
"sujeto_077f2b56","1","2","13","45","1603.51416111","direct","1","1","3","¿Qué promedio de edad 
vive una jirafa? ","25","20","","0","0","1","competitive","left","0.850256204605","1604.36449504","4.14974379539","1608.67269802","3.57069683075","1612.24347711","2.42930316925","1614.72388697","1616.48536301","1616.55808616","1619.56108308","0","1619.57529998","1625.52755618",""
"sujeto_077f2b56","1","2","14","46","1625.66023302","inverse","1","1","2","¿Cuántos grandes lagos hay?","7","5","","0","0","1","competitive","left","0.599328994751","1626.25960708","4.40067100525","1630.814538","3.76106786728","1634.57566714","2.23893213272","1636.85059094","1638.142699","1638.21834016","1641.22132301","0","1641.23531914","1649.05665016",""
"sujeto_077f2b56","1","2","15","47","1649.20382214","direct","3","1","2","¿Cuántos discos de estudio
 grabó Johhny Cash? ","54","43","","1","1","0","competitive","right","0.904963970184","1650.10883212","4.09503602982","1654.36396098","4.09185099602","1658.45585012","1.90814900398","1660.39805913","1661.67668605","1661.74845409","1664.75145602","1","1664.76577616","1671.41561103",""
"sujeto_077f2b56","1","2","16","48","1671.58453798","inverse","4","1","1","¿Cuántos barrios tiene
 Montevideo? ","71","62","","0","0","1","competitive","right","1.38987898827","1672.97446418","3.61012101173","1676.74177217","4.41327309608","1681.15508509","1.58672690392","1682.77597904","1683.78303409","1683.86012602","1686.86308718","0","1686.87741017","1692.339432",""
"sujeto_077f2b56","1","2","17","49","1692.47868109","direct","3","1","3","¿Qué edad tiene Homero Simpson?","36","42","","0","0","1","competitive","right","0.779541969299","1693.25832915","4.2204580307","1697.66975904","3.07736587524","1700.74716711","2.92263412476","1703.70342898","1705.07949495","1705.15473413","1708.1577251","0","1708.17172313","1712.56047702",""
"sujeto_077f2b56","1","2","18","50","1712.70703316","inverse","4","1","2","¿Cuántos países con monarquía 
hay en europa actualmente? ","6","10","","1","1","1","competitive","left","1.44029712677","1714.14737797","3.55970287323","1717.87995601","4.98444604874","1722.86444211","1.01555395126","1723.93173003","1725.37002707","1725.44908214","1728.45209599","1","1728.46587801","1734.62269306",""
"sujeto_077f2b56","1","2","19","51","1734.7504971","direct","2","1","3","¿Cuántos capítulos de
 Friends existen? ","236","228","","1","1","1","competitive","left","0.79913020134","1735.54970002","4.20086979866","1739.92125201","4.03238987923","1743.95368195","1.96761012077","1745.95761395","1747.26318598","1747.34242105","1750.34543014","1","1750.35956717","1752.73521209",""
"sujeto_077f2b56","1","2","20","52","1752.86140704","inverse","1","1","3","¿Cuántas óperas compuso Mozart? ","27","22","","1","1","1","competitive","left","3.78530406952","1756.64678717","1.21469593048","1758.00107312","4.1017100811","1762.10285306","1.8982899189","1764.03572512","1765.32786012","1765.40295315","1768.40593314","1","1768.42030096","1775.7317481",""
"sujeto_077f2b56","1","2","21","53","1775.87230706","direct","4","1","3","¿Cuántos mundiales de fútbol 
femenino ha realizado FIFA? ","9","7","","1","1","1","competitive","left","0.641638994217","1776.51399207","4.35836100578","1781.02979302","3.98818683624","1785.01802516","2.01181316376","1787.08073497","1788.32445812","1788.39842105","1791.39957595","1","1791.41556501","1797.51801801",""
"sujeto_077f2b56","1","2","22","54","1797.66717196","inverse","3","1","2","¿Cuál es la temperatura 
media anual en Montevideo? ","17.5","16.3","","0","0","1","competitive","left","0.667026042938","1798.33424711","4.33297395706","1802.84000301","3.74017691612","1806.58021903","2.25982308388","1808.89200497","1810.83060908","1810.90911412","1813.9120841","0","1813.92703605","1820.49656796",""
"sujeto_077f2b56","1","2","23","55","1820.62938905","direct","2","1","2","¿En qué año se estrenó el
 videojuego The Sims? ","2000","2002","","0","0","0","competitive","right","0.813961029053","1821.44341707","4.18603897095","1825.78313708","5.00218701363","1830.78539014","0.997812986374","1831.836483","1833.69848204","1833.77034616","1836.77333307","0","1836.78750396","1844.18116403",""
"sujeto_077f2b56","1","2","24","56","1844.32279515","inverse","2","1","1","¿Cuál es la canción con 
mas covers? ","Yesterday","Stand by me","","0","0","0","competitive","left","0.683809041977","1845.00667596","4.31619095802","1849.49846411","4.24712395668","1853.74563313","1.75287604332","1855.55015707","1856.94871712","1857.03460312","1860.03755617","0","1860.05182695","1864.22263098",""
"sujeto_077f2b56","1","2","25","57","1864.35310197","direct","1","1","4","¿Cuánto duró la guerra
 de los 100 años?","116","123","","0","0","0","competitive","left","0.695740938187","1865.04892302","4.30425906181","1869.50864816","3.05014395714","1872.55883813","2.94985604286","1875.56002617","1877.04087806","1877.11169314","1880.11468101","0","1880.12904596","1882.44880104",""
"sujeto_077f2b56","1","2","26","58","1882.58067203","inverse","4","1","4","¿Qué color tiene la  bandera de Brasil?","Amarillo","Naranja","left","0","0","1","competitive","left","0.673216104507","1883.25393295","4.32678389549","1887.73371506","2.54228901863","1890.27606511","3.45771098137","1893.78594398","1895.35245609","1895.43698716","1898.43992305","1","1898.45479417","1901.48759699",""
"sujeto_077f2b56","1","2","27","59","1901.62238097","direct","4","1","3","¿Qué carabela de 
Colon no volvió del viaje?","Santa María","La pinta","","0","0","1","competitive","right","0.779732942581","1902.40218496","4.22026705742","1906.79448915","4.33262109756","1911.12717509","1.66737890244","1912.84598017","1914.33700895","1914.41330695","1917.41625094","0","1917.43152714","1919.53101301",""
"sujeto_077f2b56","1","2","28","60","1919.69964004","inverse","4","1","4","¿Cuántos huesos tiene
 un adulto humano?","217","206","","0","0","1","competitive","right","0.641736030579","1920.341434","4.35826396942","1924.85512209","3.47312116623","1928.32828498","2.52687883377","1930.90548301","1932.175565","1932.25731206","1935.26026011","0","1935.27424717","1943.11194706",""
"sujeto_077f2b56","1","2","29","61","1943.24246216","direct","1","1","1","¿Qué país africano fue 
fundado por esclavos?","Liberia","Chad","","0","0","0","competitive","left","0.610054016113","1943.85259104","4.38994598389","1948.4006691","4.00290799141","1952.40361905","1.99709200859","1954.45148802","1956.44312596","1956.51965618","1959.52262902","0","1959.53752518","1967.52756906",""
"sujeto_077f2b56","1","2","30","62","1967.67180109","inverse","4","1","2","¿A cuánto asciende la cima
 del monte Everest?","7.990 mts","8.848 mts","","0","0","1","competitive","right","0.636897087097","1968.30874705","4.3631029129","1972.84688115","4.84895205498","1977.69589996","1.15104794502","1978.89857197","1980.08343315","1980.16590595","1983.1676271","0","1983.18285799","1990.36690307",""
"sujeto_077f2b56","1","2","31","63","1990.50044203","direct","4","1","1","¿Cuál es el país mas chico?","Sealand","Luxemburgo","","1","1","1","competitive","left","0.923392057419","1991.423908","4.07660794258","1995.65588212","4.39602708817","2000.05198002","1.60397291183","2001.69192004","2003.55546713","2003.62593699","2006.62885308","1","2006.64425397","2009.76655006",""
"sujeto_077f2b56","1","2","32","64","2009.895226","inverse","2","1","4","¿Cuántas pirámides hay en Egipto?","10000","11000","","1","1","1","competitive","right","1.01682186127","2010.9121151","3.98317813873","2015.08533907","3.20782995224","2018.29324412","2.79217004776","2021.11997104","2022.15354204","2022.23765397","2025.2406261","1","2025.25491214","2030.36392713",""
"sujeto_077f2b56","1","3","1","65","2147.58631897","direct","2","1","2","¿Cuál es el quinto país con 
mas extensión?","Canadá","Brasil","","1","1","0","competitive","right","0.629273891449","2148.21567011","4.37072610855","2152.74051499","2.76171803474","2155.50227499","3.23828196526","2158.77498412","2160.10759211","2160.19323301","2163.19620204","1","2163.20951796","2170.93589711","2030.37535405"
"sujeto_077f2b56","1","3","2","66","2171.07795811","inverse","1","1","2","¿Qué rasgo facial no tiene
 la Mona Lisa?","Cejas","Pómulos","","0","0","1","competitive","left","0.878545045853","2171.95657301","4.12145495415","2176.23654413","3.55794882774","2179.79454017","2.44205117226","2182.28782511","2184.03824496","2184.12172508","2187.12471104","0","2187.13974714","2193.4075861",""
"sujeto_077f2b56","1","3","3","67","2193.54061007","direct","4","1","3","¿Cuál es el país con 
mayor población?","Esados Unidos","China","right","0","0","1","competitive","right","0.705093860626","2194.24575615","4.29490613937","2198.71169806","2.2979888916","2201.00975704","3.7020111084","2204.76288104","2206.40887308","2206.48188806","2209.48486996","1","2209.49987006","2212.86465311",""
"sujeto_077f2b56","1","3","4","68","2213.00065303","inverse","1","1","1","La palabra dinosaurio significa","Lagarto Terrible","Lagarto Dragón","","1","1","0","competitive","","1.23022794724","2214.23093414","3.76977205276","2218.1421411","6","2224.14229703","0","2224.15675116","2225.32704496","2225.41114902","2228.41163802","0","2228.42775702","2231.28958416",""
"sujeto_077f2b56","1","3","5","69","2231.44645309","direct","2","1","3","¿Qué es el membrillero?","Arbol","Arbusto","","0","0","0","competitive","left","0.807520151138","2232.25401902","4.19247984886","2236.60151005","4.40149903297","2241.00307298","1.59850096703","2242.65257215","2244.60666013","2244.68632007","2247.68930697","0","2247.70455599","2254.16759205",""
"sujeto_077f2b56","1","3","6","70","2254.30559897","inverse","3","1","3","¿Alrededor de qué planeta orbita 
el satélite Europa?","Jupiter","Saturno","","1","1","1","competitive","left","0.821602106094","2255.12727499","4.17839789391","2259.46310902","5.38615894318","2264.84930801","0.613841056824","2265.51544499","2267.06027508","2267.13230109","2270.13525295","1","2270.14973998","2272.35491705",""
"sujeto_077f2b56","1","3","7","71","2272.48444104","direct","3","1","1","¿Donde fue el mundial de 
fútbol de 1954?","Suiza","Suecia","","1","1","1","competitive","left","0.757958889008","2273.24245501","4.24204111099","2277.63906217","5.08227014542","2282.72137117","0.917729854584","2283.69141912","2284.94405818","2285.0244031","2288.027349","1","2288.04159212","2291.95335007",""
"sujeto_077f2b56","1","3","8","72","2292.1106081","inverse","1","1","4","¿Cuál de los 7 enanitos
no tenía barba?","Bashful","Mudito","","1","1","0","competitive","right","0.783889055252","2292.89456511","4.21611094475","2297.28243208","5.04712796211","2302.32963204","0.952872037888","2303.33421302","2304.91435909","2305.00162506","2308.00462413","1","2308.01907897","2312.948174",""
"sujeto_077f2b56","1","3","9","73","2313.08719611","direct","3","1","2","¿Cual red social es
mas utilizada mundialmente?","Instagram","Facebook","","1","1","0","competitive","right","0.929798126221","2314.01707411","4.07020187378","2318.24392414","5.33878397942","2323.58277798","0.661216020584","2324.27883196","2326.19621015","2326.27902818","2329.28200316","1","2329.29698801","2332.23150611",""
"sujeto_077f2b56","1","3","10","74","2332.36516309","inverse","4","1","1","¿Cuándo se inició la copa
 América de fútbol?","1916","1923","","1","1","1","competitive","right","1.02867984772","2333.39391208","3.97132015228","2337.51743412","3.47442579269","2340.99190497","2.52557420731","2343.56970215","2345.46716118","2345.55423903","2348.55720711","1","2348.57254195","2351.22867417",""
"sujeto_077f2b56","1","3","11","75","2351.37431002","direct","3","1","4","¿Cuántos presidentes de EEUU
han muerto asesinados?","3","4","","0","0","1","competitive","right","0.969703912735","2352.34408808","4.03029608727","2356.53083396","4.39623999596","2360.92711306","1.60376000404","2362.56555915","2364.04951096","2364.13301206","2367.13597012","0","2367.1502161","2370.79432511",""
"sujeto_077f2b56","1","3","12","76","2370.93530011","inverse","2","1","4","¿Cuántas veces participó EEUU
 en la copa América?","4","5","","0","0","1","competitive","left","1.61287212372","2372.54823995","3.38712787628","2376.12306809","3.72218608856","2379.845294","2.27781391144","2382.17542815","2383.61951518","2383.69321418","2386.69554996","0","2386.71057105","2392.82755709",""
"sujeto_077f2b56","1","3","13","77","2392.97814417","direct","4","1","1","¿Cuál de estos países 
no formaba la URSS?","Azeribayán","Afganistán","","0","0","1","competitive","left","0.665239095688","2393.64342999","4.33476090431","2398.15250397","5.30190491676","2403.45447302","0.698095083237","2404.20396805","2405.51705718","2405.58772206","2408.59068108","0","2408.60482216","2416.58696604",""
"sujeto_077f2b56","1","3","14","78","2416.72320604","inverse","1","1","1","¿En qué año se inauguró
 el teatro Solís?","1867","1856","","0","0","0","competitive","right","0.524488925934","2417.24777699","4.47551107407","2421.87877011","4.46187615395","2426.340693","1.53812384605","2427.91507816","2428.97140217","2429.04885411","2432.05185413","0","2432.06604409","2438.71385813",""
"sujeto_077f2b56","1","3","15","79","2438.85117817","direct","1","1","4","¿A qué velocidad vuela 
el avión más rápido?","3529","3874","","0","0","0","competitive","right","1.01665115356","2439.86794209","3.98334884644","2444.02616596","5.44464492798","2449.47085309","0.555355072021","2450.06194305","2451.81745815","2451.89501095","2454.89799595","0","2454.91232109","2457.02262211",""
"sujeto_077f2b56","1","3","16","80","2457.18118095","inverse","3","1","4","¿De qué año es la primer 
película cinematográfica?","1897","1888","","0","0","0","competitive","right","2.66177296638","2459.84301996","2.33822703362","2462.33221197","5.46769809723","2467.7999711","0.532301902771","2468.37189507","2469.504843","2469.588135","2472.59107494","0","2472.60609102","2478.01590705",""
"sujeto_077f2b56","1","3","17","81","2478.15718913","direct","2","1","3","¿Cuántos países 
tiene nuestro planeta?","191","194","","1","1","1","competitive","right","4.61689996719","2482.77413106","0.383100032806","2483.31230116","4.32183098793","2487.63417101","1.67816901207","2489.36588907","2490.72309208","2490.79914618","2493.80210996","1","2493.81702018","2497.05532098",""
"sujeto_077f2b56","1","3","18","82","2497.18512917","inverse","2","1","2","¿Cuántos habitantes
 tiene Buenos Aires?","2.9000.000","3650000","","0","0","0","competitive","left","0.533182144165","2497.71835995","4.46681785583","2502.35658097","4.80878305435","2507.16542816","1.19121694565","2508.39189911","2509.78915","2509.87573504","2512.8787291","0","2512.89296699","2518.72233915",""
"sujeto_077f2b56","1","3","19","83","2518.86080217","direct","2","1","1","¿Cuántos kilos forman una tonelada?","1000","1500","left","1","1","1","competitive","left","0.67774105072","2519.53859496","4.32225894928","2524.01780796","2.98372101784","2527.00160098","3.01627898216","2530.06900811","2531.95634604","2532.03664804","2535.03960395","1","2535.05486703","2541.01229405",""
"sujeto_077f2b56","1","3","20","84","2541.1566391","inverse","4","1","4","¿Cuántos estados tiene la 
República del Perú? ","24","23","","0","0","1","competitive","left","0.603183031082","2541.75987315","4.39681696892","2546.31292915","4.15173912048","2550.46473098","1.84826087952","2552.36416411","2553.38634515","2553.46514797","2556.46813107","0","2556.48217702","2561.42360616",""
"sujeto_077f2b56","1","3","21","85","2561.56671095","direct","3","1","3","¿En qué año nació Cristóbal Colón? ","1451","1447","","0","0","1","competitive","right","0.788125038147","2562.35488915","4.21187496185","2566.72435904","3.39445495605","2570.11887217","2.60554504395","2572.75806618","2574.60398006","2574.6761241","2577.67908096","0","2577.69397497","2581.92196298",""
"sujeto_077f2b56","1","3","22","86","2582.06234908","inverse","4","1","4","¿Cuánto mide la 
Montaña Aconcagua? ","6234","6962","","0","0","1","competitive","right","1.05563187599","2583.11802602","3.94436812401","2587.25103498","4.35901689529","2591.61012006","1.64098310471","2593.28585315","2594.575212","2594.653687","2597.65668201","0","2597.67087817","2604.8545351",""
"sujeto_077f2b56","1","3","23","87","2604.98875117","direct","2","1","4","¿Cuánto mide el punto
 más profundo del océano? ","12508","11003","","0","0","1","competitive","left","0.878403902054","2605.86720514","4.12159609795","2610.17967606","3.11557984352","2613.29531813","2.88442015648","2616.2305491","2617.48206902","2617.56578207","2620.56875706","0","2620.58200502","2624.78826213",""
"sujeto_077f2b56","1","3","24","88","2624.93453813","inverse","1","1","3","¿Cuántos álbumes ha publicado 
el cantante Jaime Roos? ","41","34","","0","0","1","competitive","","1.47481703758","2626.40940118","3.52518296242","2630.09086895","6","2636.09100103","0","2636.10645008","2637.59628201","2637.67651796","2640.67948508","0","2640.69346905","2646.88962507",""
"sujeto_077f2b56","1","3","25","89","2647.02800608","direct","4","1","3","¿En qué año nació el 
ex-presidente Jorge Battle? ","1921","1927","","1","1","1","competitive","right","1.11555981636","2648.14363313","3.88444018364","2652.18426704","3.46829485893","2655.65260696","2.53170514107","2658.23579502","2659.9664681","2660.03754902","2663.03956199","1","2663.05558205","2666.5416081",""
"sujeto_077f2b56","1","3","26","90","2666.67352509","inverse","1","1","3","¿Cuántas presidencias 
constitucionales  hubo en Uruguay? ","41","42","","0","0","1","competitive","right","0.500365972519","2667.17394304","4.49963402748","2671.84509706","5.52199101448","2677.36715412","0.478008985519","2677.88132501","2679.08508396","2679.16403413","2682.16699505","0","2682.18136406","2687.96500897",""
"sujeto_077f2b56","1","3","27","91","2688.10056615","direct","1","1","2","¿Quién escribió mas sinfonías?","Mozart","Haydn","","1","1","0","competitive","left","1.05777215958","2689.15840816","3.94222784042","2693.27329397","4.56214690208","2697.83549118","1.43785309792","2699.30834198","2700.52581811","2700.60936213","2703.61236811","1","2703.62665105","2707.37809706",""
"sujeto_077f2b56","1","3","28","92","2707.51219797","inverse","4","1","2","¿En qué año nació Michael Jackson?","1958","1953","","1","1","1","competitive","right","2.41853499413","2709.930794","2.58146500587","2712.684201","5.75576496124","2718.44002604","0.244235038757","2718.73668814","2720.71490216","2720.78668809","2723.78967714","1","2723.80470514","2729.66703606",""
"sujeto_077f2b56","1","3","29","93","2729.80622816","direct","3","1","2","¿En qué año entró en vigencia 
la ley antitabaco en Uruguay?","2005","2006","","1","1","1","competitive","right","0.773035049438","2730.57931304","4.22696495056","2735.01033115","4.33218216896","2739.34255505","1.66781783104","2741.06277108","2742.657516","2742.73007417","2745.73306704","1","2745.74732614","2751.08133411",""
"sujeto_077f2b56","1","3","30","94","2751.21656299","inverse","3","1","1","¿Cuándo se subió el 
primer video a youtube?","2004","2005","","0","0","1","competitive","left","0.58832192421","2751.80496311","4.41167807579","2756.37477016","3.38620615005","2759.76104498","2.61379384995","2762.42506003","2763.73073316","2763.81034017","2766.81163096","0","2766.82688212","2774.58250117",""
"sujeto_077f2b56","1","3","31","95","2774.72902513","direct","2","1","1","¿Cuántos habitantes tiene India?","1200 millones","1300 millones","","0","0","0","competitive","right","1.68142604828","2776.41050315","3.31857395172","2779.90256715","3.83294510841","2783.73558402","2.16705489159","2785.95565295","2787.92530513","2788.00659418","2791.00753617","0","2791.02371097","2797.07121706",""
"sujeto_077f2b56","1","3","32","96","2797.20868111","inverse","4","1","2","¿A qué edad murió Bob Marley?","36","37","","0","0","1","competitive","right","2.2081489563","2799.41689897","2.7918510437","2802.38354611","2.70734095573","2805.09092808","3.29265904427","2808.43332815","2810.33114195","2810.41891909","2813.42192602","0","2813.43597913","2816.53559709",""
"sujeto_077f2b56","1","4","1","97","2933.22692204","direct","2","1","1","¿Cuantos años dirigió la selección 
uruguaya Tabarez?","15 años","13 años","","0","0","0","competitive","right","0.7506108284","2933.97757697","4.2493891716","2938.38874507","5.26091384888","2943.64971995","0.739086151123","2944.44076014","2945.63187909","2945.70751595","2948.71049905","0","2948.72410703","2955.79614401","2816.54665899"
"sujeto_077f2b56","1","4","2","98","2955.94304299","inverse","4","1","1","¿Cuantas teclas tiene un teclado 
de computadora generalmente? ","Entre 99 y 108","Entre 109 y 113","","1","1","1","competitive","right","2.00906395912","2957.95218515","2.99093604088","2961.09935117","5.49578905106","2966.59520817","0.504210948944","2967.15249205","2968.15523314","2968.23569512","2971.23866916","1","2971.252913","2973.62360501",""
"sujeto_077f2b56","1","4","3","99","2973.75449705","direct","1","1","1","¿Cuál Departamento tiene
 mayor superficie?","Río Negro","Soriano","","0","0","0","competitive","left","0.967835903168","2974.72238016","4.03216409683","2978.94322395","5.39225101471","2984.33552098","0.607748985291","2984.97901797","2986.69247317","2986.76194406","2989.76493001","0","2989.77923512","2994.10532308",""
"sujeto_077f2b56","1","4","4","100","2994.24864602","inverse","3","1","2","¿Cuál es el apellido de las 
hermanastras  de  cenicienta?","Tremaine","Truman","","0","0","1","competitive","","0.917072057724","2995.16579008","4.08292794228","2999.40426803","6","3005.40438604","0","3005.41975498","3007.28928304","3007.37348199","3010.37447906","0","3010.39046001","3013.08640814",""
"sujeto_077f2b56","1","4","5","101","3013.22603798","direct","4","1","4","¿Cuál película ganó un
 Oscar a mejor película?","Alto Impacto","Cache","","0","0","1","competitive","left","0.892009019852","3014.11809206","4.10799098015","3018.38043118","4.20269799232","3022.58319211","1.79730200768","3024.43242502","3025.55159712","3025.63373804","3028.63672614","0","3028.65095806","3030.91556811",""
"sujeto_077f2b56","1","4","6","102","3031.05275011","inverse","1","1","3","¿A cuántos centímetros
equivale la medida pié?","25","30","","0","0","1","competitive","left","1.18362593651","3032.2364471","3.81637406349","3036.22443008","5.02601003647","3041.25050402","0.973989963531","3042.2590971","3043.29910302","3043.37634206","3046.37934613","0","3046.39355898","3051.79153299",""
"sujeto_077f2b56","1","4","7","103","3051.928514","direct","2","1","2","¿Qué departamento es mas grande?","Cerro Largo","Paysandú","","0","0","0","competitive","left","0.780277013779","3052.70885801","4.21972298622","3057.11776304","3.85896992683","3060.976794","2.14103007317","3063.15287304","3064.7526741","3064.83717799","3067.84012794","0","3067.85526609","3071.96519613",""
"sujeto_077f2b56","1","4","8","104","3072.10680604","inverse","2","1","3","¿Quién pintó la Mona Lisa?","Picasso","Da Vinci","right","0","0","1","competitive","right","0.639297962189","3072.74616003","4.36070203781","3077.25904918","2.88717603683","3080.14628816","3.11282396317","3083.31144905","3084.91729212","3084.995996","3087.99900103","1","3088.01399302","3090.17557311",""
"sujeto_077f2b56","1","4","9","105","3090.31570005","direct","4","1","3","¿Cuántos litros hay en un galon?","3.54","3.78","","1","1","1","competitive","left","0.646749973297","3090.96252298","4.3532500267","3095.48897099","4.09050989151","3099.57953596","1.90949010849","3101.52274203","3103.03955817","3103.12380505","3106.12674212","1","3106.14103198","3111.93152905",""
"sujeto_077f2b56","1","4","10","106","3112.075912","inverse","4","1","1","¿Cuántas teclas tiene
 un piano moderno?","80","88","","0","0","1","competitive","left","1.12077689171","3113.19675398","3.87922310829","3117.25051117","5.05729293823","3122.30787611","0.942707061768","3123.28585505","3124.29433513","3124.36863017","3127.37161207","0","3127.38588095","3134.18361616",""
"sujeto_077f2b56","1","4","11","107","3134.32139802","direct","4","1","3","¿Cuántos países hay en África?","54","62","","0","0","1","competitive","right","0.620818853378","3134.94230199","4.37918114662","3139.47916007","5.32605290413","3144.80528402","0.673947095871","3145.51425314","3147.20356417","3147.28047705","3150.28349495","0","3150.2983911","3158.10316706",""
"sujeto_077f2b56","1","4","12","108","3158.25046706","inverse","1","1","3","¿En qué siglo se crearon
 las primeras pistolas?","XV","XIII","","1","1","1","competitive","right","0.771636009216","3159.02221012","4.22836399078","3163.40603018","4.71645903587","3168.12252903","1.28354096413","3169.45911312","3171.40703201","3171.4767921","3174.47978401","1","3174.494735","3177.72783399",""
"sujeto_077f2b56","1","4","13","109","3177.86199617","direct","3","1","4","¿En qué año se estrenó 
la serie friends?","1994","1995","","0","0","1","competitive","right","0.591788053513","3178.45383596","4.40821194649","3183.01845813","5.45437884331","3188.47289896","0.545621156693","3189.07012701","3190.945467","3191.02061105","3194.02358603","0","3194.03787112","3199.04391313",""
"sujeto_077f2b56","1","4","14","110","3199.17303109","inverse","3","1","4","¿En qué año nació Hitler?","1889","1887","","0","0","1","competitive","right","0.631129026413","3199.80423713","4.36887097359","3204.34630704","4.89290094376","3209.23927402","1.10709905624","3210.38179898","3211.49556303","3211.56459618","3214.56753612","0","3214.58283305","3219.60982513",""
"sujeto_077f2b56","1","4","15","111","3219.73419499","direct","1","1","4","¿Cuánto pesa un elefante Africano?","6000 kilos","5400 kilos","","0","0","0","competitive","left","1.48918795586","3221.22346902","3.51081204414","3224.89113808","3.17822599411","3228.06942415","2.82177400589","3230.94151497","3232.29735899","3232.37700605","3235.37953615","0","3235.39342713","3242.09951901",""
"sujeto_077f2b56","1","4","16","112","3242.24573898","inverse","1","1","2","¿Qué porcentaje de 
la población es zurda?","10%","7%","","1","1","0","competitive","left","0.687058925629","3242.93287706","4.31294107437","3247.40261006","3.58116102219","3250.98380899","2.41883897781","3253.45375299","3254.69684505","3254.77162814","3257.77463818","1","3257.788697","3263.76844096",""
"sujeto_077f2b56","1","4","17","113","3263.90751004","direct","1","1","2","¿En qué año se estrenó
Volver al futuro?","1984","1985","","0","0","1","","","","","","","","","","","","","","","3268.91496897","3276.00359607",""
"sujeto_077f2b56","1","4","18","114","3276.13066912","inverse","3","1","2","¿Cuántos jugadores hay en un 
equipo de baseball?","9","8","","1","1","0","competitive","left","0.618590116501","3276.74933505","4.3814098835","3281.30323005","3.84211087227","3285.14538097","2.15788912773","3287.33813405","3288.95241714","3289.02300501","3292.025985","1","3292.04009604","3297.01731396",""
"sujeto_077f2b56","1","4","19","115","3297.15778017","direct","2","1","1","¿Cuántos Oscar ganó
 la película titanic?","13","11","","1","1","1","competitive","","1.00075507164","3298.15858698","3.99924492836","3302.31242895","6","3308.31255507","0","3308.32911396","3309.63113308","3309.71627498","3312.71926713","0","3312.73326206","3317.33592796",""
"sujeto_077f2b56","1","4","20","116","3317.48456097","inverse","4","1","4","¿En qué año comenzó
la segunda guerra mundial?","1939","1976","left","0","0","1","competitive","left","0.679297924042","3318.163908","4.32070207596","3322.6424861","4.51942920685","3327.16196108","1.48057079315","3328.69427013","3330.4941361","3330.57832098","3333.5813241","1","3333.59556508","3337.58272099",""
"sujeto_077f2b56","1","4","21","117","3337.71440816","direct","2","1","4","¿Cuántos biomas hay en Uruguay?","5","4","","0","0","1","competitive","left","0.736747980118","3338.451231","4.26325201988","3342.86968899","3.62449097633","3346.49425006","2.37550902367","3348.90399814","3350.70135212","3350.772686","3353.77564001","0","3353.78993416","3360.039325",""
"sujeto_077f2b56","1","4","22","118","3360.17429805","inverse","2","1","3","¿Cuándo murió Pablo Escobar?","1993","1997","","1","1","1","competitive","right","0.817121982574","3360.9915061","4.18287801743","3365.33110309","4.29640293121","3369.62757897","1.70359706879","3371.36649299","3373.14932704","3373.2337141","3376.23671412","1","3376.25174403","3381.95156217",""
"sujeto_077f2b56","1","4","23","119","3382.08564711","direct","1","1","4","¿Qué serie ha ganado mas premios?","Friends","Murphy Brown","","1","1","0","competitive","left","1.06508708","3383.15079999","3.93491292","3387.27419996","3.70258307457","3390.976825","2.29741692543","3393.32618809","3394.67858696","3394.76133013","3397.76360106","1","3397.77775407","3403.33937311",""
"sujeto_077f2b56","1","4","24","120","3403.479985","inverse","4","1","2","¿Cuántas fichas tiene el dominó?","26","28","","1","1","1","competitive","right","0.693135976791","3404.17320609","4.30686402321","3408.63744712","3.70366716385","3412.34115601","2.29633283615","3414.68836617","3415.74369097","3415.82328796","3418.82628417","1","3418.84065795","3424.08359814",""
"sujeto_077f2b56","1","4","25","121","3424.22555804","direct","2","1","4","¿Cuántos son los dientes de leche?","20","25","","0","0","1","competitive","left","0.657841920853","3424.88346505","4.34215807915","3429.38156509","4.12683701515","3433.50844407","1.87316298485","3435.41640401","3437.1267221","3437.2013011","3440.20427203","0","3440.21873808","3442.36443615",""
"sujeto_077f2b56","1","4","26","122","3442.50323796","inverse","3","1","3","¿Cuántos gramos son una onza?","22","28","","0","0","1","competitive","right","1.0633149147","3443.56659818","3.9366850853","3447.69170403","4.53497982025","3452.22674799","1.46502017975","3453.74324703","3455.73810506","3455.81087899","3458.81385517","0","3458.8278861","3465.11551309",""
"sujeto_077f2b56","1","4","27","123","3465.26368904","direct","3","1","1","¿Cuándo salió el primer album
 de los Beatles?","1963","1962","","1","1","1","competitive","left","1.50215482712","3466.76588702","3.49784517288","3470.43515515","4.66382217407","3475.09904504","1.33617782593","3476.47101617","3477.63463807","3477.70552397","3480.70850897","1","3480.72279596","3484.49485016",""
"sujeto_077f2b56","1","4","28","124","3484.64058208","inverse","3","1","3","¿Quién fundó la empresa apple?","Carlos Slim","Steve Jobs","","1","1","1","competitive","right","0.703670978546","3485.34433198","4.29632902145","3489.79757214","3.49758720398","3493.29520297","2.50241279602","3495.84788609","3496.96256995","3497.03246903","3500.03545904","1","3500.05061698","3506.34847498",""
"sujeto_077f2b56","1","4","29","125","3506.48520899","direct","4","1","2","¿Cuántos municipios hay
 en Montevideo?","8","7","","1","1","1","competitive","left","0.641263008118","3507.12655306","4.35873699188","3511.64189196","3.62463402748","3515.26656795","2.37536597252","3517.69315505","3519.60793614","3519.69408607","3522.69707417","1","3522.71264911","3524.79379797",""
"sujeto_077f2b56","1","4","30","126","3524.93001103","inverse","1","1","1","¿Cuántos kilómetros hay
 de Montevideo a Artigas?","632","599","","0","0","0","competitive","left","0.817677974701","3525.74780917","4.1823220253","3530.09988117","4.00782203674","3534.10775018","1.99217796326","3536.13623405","3537.61935997","3537.70393515","3540.70685005","0","3540.72076917","3546.7728641",""
"sujeto_077f2b56","1","4","31","127","3546.92223096","direct","2","1","2","¿En qué año nació 
Leonardo Da Vinci?","1452","1511","","1","1","0","competitive","right","1.30169296265","3548.22397017","3.69830703735","3552.08018112","3.55071496964","3555.63093305","2.44928503036","3558.13143516","3559.98508096","3560.065382","3563.0683701","1","3563.08364105","3566.23000598",""
"sujeto_077f2b56","1","4","32","128","3566.36812401","inverse","3","1","1","¿A qué continente
 pertenece el país Gabón?","Africa","Oceanía","","0","0","1","competitive","left","0.73220205307","3567.10041118","4.26779794693","3571.52342606","4.48777484894","3576.01124096","1.51222515106","3577.57566595","3579.38728118","3579.45932198","3582.45957804","0","3582.477005","3587.71494007",""
