"code","nro_aplicante","nro_bloque","nro_trial_bloque","nro_trial_global","show_game_type","choice_order","rival","pay_individual","pay_competitive","question","answer_left_text","answer_right_text","correct_answer","outcome_individual","outcome_competitive","outcome_rival","game_type","answer","social_time","rt_game_type","feedback_delay","show_question","answer_time","rt_answer_global","feedback_delay_2","show_jitter","jitter_time","show_outcome","outcome_time","outcome_participant_real","show_final_jitter","second_jitter_time","inicio_descanso"
"sujeto_8e872371","1","1","1","1","600.344645977","direct","3","1","4","¿Cuántos centímetros corresponden
al talle 36 del calzado?","23","24","","0","0","1","individual","","2.90919017792","603.253898859","2.09080982208","605.534548998","6","611.53469491","0","611.554558039","612.582849979","612.621978045","615.624944925","0","615.638075829","617.800606966",""
"sujeto_8e872371","1","1","2","2","617.94025898","inverse","3","1","2","¿Cuántas metros mide la Intendencia
Municipal de Montevideo? ","84","78","","0","0","1","competitive","left","3.45054912567","621.390853882","1.54945087433","623.090332031","5.41141796112","628.501811028","0.588582038879","629.130549908","631.008145809","631.080906868","634.083890915","0","634.097820997","636.190575838",""
"sujeto_8e872371","1","1","3","3","636.333299875","direct","1","1","3","¿Cuántas La Pasiva
 hay en uruguay?","15","11","","1","1","1","competitive","left","1.71752285957","638.05089283","3.28247714043","641.486292839","3.64351892471","645.12985301","2.35648107529","647.521080971","649.132732868","649.205440044","652.208410978","1","652.222741842","656.501089811",""
"sujeto_8e872371","1","1","4","4","656.625669956","inverse","3","1","3","¿De que color es la camiseta de uruguay?","blanca","celeste","right","1","1","1","individual","right","1.92918014526","658.554899931","3.07081985474","661.795578003","4.80621004105","666.601830006","1.19378995895","667.849113941","669.05385685","669.099495888","672.102468967","1","672.116390944","675.568181038",""
"sujeto_8e872371","1","1","5","5","675.702919006","direct","2","1","1","¿Cuánto metros mide
la torre Eiffel?","333","324","","1","1","1","competitive","left","2.13796305656","677.840927839","2.86203694344","680.87132597","5.3355038166","686.206898928","0.664496183395","686.925091028","688.44646287","688.524451971","691.527432919","1","691.542269945","698.578965902",""
"sujeto_8e872371","1","1","6","6","698.711009979","inverse","3","1","4","¿Cuantas ciudades existen
 en todo el uruguay?","63","72","","0","0","1","individual","right","1.5617351532","700.272807837","3.4382648468","703.868697882","4.65712594986","708.525883913","1.34287405014","709.902740002","710.957563877","711.003623962","714.006605864","0","714.020864964","721.64744997",""
"sujeto_8e872371","1","1","7","7","721.774070978","direct","1","1","1","¿Cuantos estados tiene África?","52","54","","1","1","0","competitive","right","1.52874112129","723.302856922","3.47125887871","726.931561947","4.26822185516","731.199849844","1.73177814484","732.982738972","734.846753836","734.916561842","737.919554949","1","737.93471384","743.692216873",""
"sujeto_8e872371","1","1","8","8","743.835685015","inverse","4","1","4","¿En qué año nació
 Stephen Hawking?","1952","1942","","0","0","1","competitive","right","3.36514806747","747.200881004","1.63485193253","748.993206024","3.90954613686","752.902820826","2.09045386314","755.044638872","756.488953829","756.561815023","759.564165831","0","759.579476833","765.678839922",""
"sujeto_8e872371","1","1","9","9","765.814373016","direct","2","1","3","¿Cuánto años tenía Artigas
 cuando se fue a Paraguay?","56","57","","1","1","1","competitive","left","2.08749103546","767.901906967","2.91250896454","770.986136913","5.35765099525","776.343848944","0.642349004745","777.022544861","778.572005033","778.656450987","781.659426928","1","781.67462182","787.721932888",""
"sujeto_8e872371","1","1","10","10","787.874507904","inverse","1","1","2","¿Cuantos milímetros 
mide una hoja A2?","420x592","420x594","","0","0","1","competitive","left","1.60334682465","789.477900028","3.39665317535","793.015902996","5.98097014427","798.996915817","0.0190298557281","799.066658974","800.635090828","800.716435909","803.719441891","0","803.734568834","810.804669857",""
"sujeto_8e872371","1","1","11","11","810.952487946","direct","3","1","3","¿Cuál es la menor temperatura 
registrada en Uruguay?","-5.4","-7.4","","0","0","1","individual","left","1.252409935","812.204964876","3.747590065","816.125449896","4.18732595444","820.312816858","1.81267404556","822.177829027","823.859869003","823.911819935","826.914774895","0","826.929343939","830.66265893",""
"sujeto_8e872371","1","1","12","12","830.797114849","inverse","2","1","2","¿Cuantos años hace que 
se fundó facebook?","18","17","","0","0","0","competitive","right","1.98160099983","832.778815985","3.01839900017","835.95200181","4.63483595848","840.586899042","1.36516404152","842.006345987","843.379077911","843.456254005","846.459224939","0","846.474368811","849.248203993",""
"sujeto_8e872371","1","1","13","13","849.392545938","direct","1","1","4","¿Cuál animal es más
 pesado en promedio?","Rinoceronte","Hipopotamo","","0","0","0","competitive","left","1.49229383469","850.884902954","3.50770616531","854.550086021","4.28973507881","858.839866877","1.71026492119","860.612808943","861.692054987","861.763595819","864.7642169","0","864.780272961","868.621286869",""
"sujeto_8e872371","1","1","14","14","868.815857887","inverse","1","1","2","¿Qué personaje de dragon ball 
murió más veces?","Chaoz","Krillin","","1","1","0","competitive","right","1.47289991379","870.288800001","3.52710008621","873.972648859","3.39623403549","877.368942976","2.60376596451","880.022594929","881.480386019","881.558161974","884.561151028","1","884.575359821","892.348297834",""
"sujeto_8e872371","1","1","15","15","892.493571043","direct","3","1","2","La universidad de oxford. 
existe desde:","1096","1249","","1","1","0","individual","left","1.43825507164","893.931895018","3.56174492836","897.652509928","4.07335400581","901.725910902","1.92664599419","903.701247931","904.750062943","904.80258584","907.805567026","1","907.819880962","914.510699034",""
"sujeto_8e872371","1","1","16","16","914.654453993","inverse","3","1","1","¿Qué escritor latino ganó antes
 el premio nobel?"," García Marquez","Neruda","","0","0","1","individual","right","1.25340199471","915.907956839","3.74659800529","919.847905874","4.52590584755","924.373857021","1.47409415245","925.882405996","927.622413874","927.666190863","930.669149876","0","930.683974981","934.144511938",""
"sujeto_8e872371","1","1","17","17","934.285039902","direct","4","1","3","¿Cuántos dientes tiene un
 tiburón blanco?","6000","3000","","0","0","1","individual","left","1.02277803421","935.307879925","3.97722196579","939.440580845","4.10122704506","943.541846037","1.89877295494","945.491827011","946.53081584","946.576185942","949.579159021","0","949.593214035","954.402897835",""
"sujeto_8e872371","1","1","18","18","954.578732014","inverse","4","1","1","¿Cuánto mide el paralelo Ecuador?","40.000km","70.000km","","0","0","1","individual","right","1.32714104652","955.905915976","3.67285895348","959.7353549","3.97347092628","963.708865881","2.02652907372","965.783684015","967.73978281","967.784680843","970.787647963","0","970.801960945","974.404542923",""
"sujeto_8e872371","1","1","19","19","974.553534985","direct","4","1","2","¿Cuál fue el primer libro 
de Stephen King?","Carrie","The Stand","","1","1","1","individual","right","1.08631014824","975.639907837","3.91368985176","979.727949858","4.84094595909","984.568955898","1.15905404091","985.763020039","987.507108927","987.546993971","990.549959898","1","990.564298868","995.038707972",""
"sujeto_8e872371","1","1","20","20","995.182533979","inverse","2","1","3","¿Qué civilización practicaba
 la momificación?","Grecia","Egipto","right","0","0","1","competitive","right","1.33430314064","996.51688695","3.66569685936","1000.35595798","3.8408780098","1004.19690084","2.1591219902","1006.40683484","1008.34615898","1008.42452097","1011.42747998","1","1011.44167089","1015.67046881",""
"sujeto_8e872371","1","1","21","21","1015.80991697","direct","4","1","4","¿Cuántos millones de visitas
 recibe google por minuto?","3.0","4.5","","0","0","1","individual","right","1.20506119728","1017.01511788","3.79493880272","1020.98274302","4.56304907799","1025.54584599","1.43695092201","1027.03431702","1028.54916096","1028.60111499","1031.60411692","0","1031.61817884","1038.74085784",""
"sujeto_8e872371","1","1","22","22","1038.88639402","inverse","1","1","3","La máquina de fax. se inventó en:","1843","1960","","0","0","1","competitive","left","1.28245711327","1040.16889691","3.71754288673","1044.06027889","4.1055059433","1048.16582394","1.8944940567","1050.11124802","1051.35334682","1051.42922688","1054.43222189","0","1054.44641781","1057.68270087",""
"sujeto_8e872371","1","1","23","23","1057.83054781","direct","2","1","4","En la verdadera historia de los
 300 espartanos. habían:","300 soldados","4300 soldados","","1","1","1","competitive","","2.09838795662","1059.92898583","2.90161204338","1062.98838902","6","1068.98853183","0","1069.00436282","1070.26559997","1070.34051394","1073.34350395","0","1073.35773182","1077.15949798",""
"sujeto_8e872371","1","1","24","24","1077.29203391","inverse","1","1","4","¿Cuántos milímetros crece
 el pelo por día?","0.4","0.04","","0","0","0","competitive","right","1.02382183075","1078.31591988","3.97617816925","1082.44743586","3.3373529911","1085.78484893","2.6626470089","1088.49903202","1090.25973392","1090.33338189","1093.33633995","0","1093.3513279","1100.08642387",""
"sujeto_8e872371","1","1","25","25","1100.23621798","direct","4","1","1","¿Cuánto mide la baldosa gris 
clásica de Montevideo?","22x22 cm.","20x20 cm.","","1","1","1","individual","left","1.18768906593","1101.4240129","3.81231093407","1105.42501402","4.21281909943","1109.63789701","1.78718090057","1111.47697401","1113.47221184","1113.51110697","1116.51406884","1","1116.52940702","1122.07218885",""
"sujeto_8e872371","1","1","26","26","1122.19728398","inverse","2","1","2","¿Cuántas películas de rápidos
 y furiosos hay?","10","11","","1","1","0","competitive","right","1.29959893227","1123.49694991","3.70040106773","1127.36988187","4.09792900085","1131.46784902","1.90207099915","1133.42028093","1134.77829599","1134.85505795","1137.85802484","1","1137.87234187","1139.90704894",""
"sujeto_8e872371","1","1","27","27","1140.04098082","direct","3","1","1","¿Cuántos masters 1000
 ganó Del Potro?","1","2","","1","1","1","individual","left","1.68683600426","1141.72786188","3.31316399574","1145.19641495","4.18741798401","1149.38387084","1.81258201599","1151.24692297","1153.00020981","1153.04815793","1156.05112481","1","1156.0653019","1163.46165991",""
"sujeto_8e872371","1","1","28","28","1163.61692286","inverse","2","1","4","¿Cuántos meses dura el 
embarazo de una leona?","3 meses","4 meses","","0","0","1","competitive","right","1.00600004196","1164.62298894","3.99399995804","1168.80910587","5.19473695755","1174.00389004","0.80526304245","1174.86098289","1175.9720149","1176.04361081","1179.04659891","0","1179.06163883","1185.78021097",""
"sujeto_8e872371","1","1","29","29","1185.94596291","direct","1","1","1","¿En qué año fue creado
 el sandwich?","1762","1653","","1","1","0","competitive","left","1.07894611359","1187.02495384","3.92105388641","1191.11967993","4.01215720177","1195.13187981","1.98784279823","1197.15517592","1198.75371099","1198.83968782","1201.84266782","1","1201.85772586","1205.32834601",""
"sujeto_8e872371","1","1","30","30","1205.47541189","inverse","4","1","2","El nombre de la moneda de Vietnam es:","Dinar","Dong","","0","0","1","individual","right","1.14551186562","1206.62097001","3.85448813438","1210.64562488","3.65618896484","1214.30185604","2.34381103516","1216.69668984","1218.12864399","1218.16386604","1221.166821","0","1221.18100786","1227.34943986",""
"sujeto_8e872371","1","1","31","31","1227.49950099","direct","2","1","1","¿cuantos aleteos puede dar 
un colibrí por segundo?","120","50","","0","0","0","competitive","left","1.3863670826","1228.88593292","3.6136329174","1232.65828204","4.00062394142","1236.65896797","1.99937605858","1238.70949101","1240.44189692","1240.52676487","1243.52972603","0","1243.54405785","1247.75628901",""
"sujeto_8e872371","1","1","32","32","1247.89595485","inverse","4","1","3","¿Qué altura promedio tienen
 los hombres uruguayos?","1.73 m","1.72 m","","1","1","1","individual","left","1.15993404388","1249.05593395","3.84006595612","1253.05246997","3.80536913872","1256.85787797","2.19463086128","1259.10303187","1260.36546302","1260.40456796","1263.40755296","1","1263.421561","1267.89751983",""
"sujeto_8e872371","1","2","1","33","1394.59979391","direct","1","1","1","¿En qué año nació 
el actor Bradd Pitt?","1967","1963","","1","1","1","competitive","right","1.78106188774","1396.38090396","3.21893811226","1399.76197982","3.89091992378","1403.65296483","2.10908007622","1405.81228685","1406.90816998","1406.98016381","1409.98314595","1","1409.99651194","1415.92409992","1267.91273594"
"sujeto_8e872371","1","2","2","34","1416.06497788","inverse","2","1","1","¿Cual es el segundo 
monte más alto?","Kanchenjunga","K2","","1","1","1","competitive","left","1.3708999157","1417.43592596","3.6291000843","1421.20502901","3.62478113174","1424.82987499","2.37521886826","1427.25600696","1428.70842004","1428.79112792","1431.79411697","1","1431.80820203","1435.23620892",""
"sujeto_8e872371","1","2","3","35","1435.376122","direct","3","1","1","¿Cuándo finalizó la construcción
 del Palacio Legislativo?","1925","1917","","0","0","1","individual","right","2.29973912239","1437.67590904","2.70026087761","1440.54667497","4.26912403107","1444.81585789","1.73087596893","1446.59967995","1448.24138784","1448.28434992","1451.287323","0","1451.30155087","1456.99911189",""
"sujeto_8e872371","1","2","4","36","1457.13622689","inverse","3","1","3","¿Cuántos integrantes tenía
 en su inicio  el cuarteto de nos?","3","4","","1","1","1","competitive","right","1.92774891853","1459.06402683","3.07225108147","1462.30846786","4.31343507767","1466.62194896","1.68656492233","1468.34278798","1469.47589588","1469.55998492","1472.56294298","1","1472.57714987","1478.22695804",""
"sujeto_8e872371","1","2","5","37","1478.36161304","direct","2","1","3","¿Qué valor tiene el número pi?","3.14","4.18","left","0","0","1","competitive","left","1.42232489586","1479.78400183","3.57767510414","1483.52115393","2.98671889305","1486.50793982","3.01328110695","1489.570858","1491.02416587","1491.10616589","1494.1081779","1","1494.12344694","1501.04442286",""
"sujeto_8e872371","1","2","6","38","1501.19224691","inverse","2","1","2","¿Cuál es la esperanza de vida
 en Uruguay?","75","77","","1","1","0","competitive","left","0.857632875443","1502.04998398","4.14236712456","1506.34942889","4.63541603088","1510.98488402","1.36458396912","1512.40053201","1514.05432796","1514.13494086","1517.13792801","1","1517.15192485","1523.61494303",""
"sujeto_8e872371","1","2","7","39","1523.75358486","direct","1","1","2","¿Cuantos pisos tiene la torre 
de las comunicaciones?","26","32","","1","1","0","competitive","left","1.01427102089","1524.76791883","3.98572897911","1528.92481995","4.57102894783","1533.49589396","1.42897105217","1534.97743082","1536.80622482","1536.89480591","1539.89776897","1","1539.912781","1542.05899096",""
"sujeto_8e872371","1","2","8","40","1542.1975379","inverse","2","1","4","¿En qué país sudamericano 
no hay McDonalds?","Bolivia","Venezuela","","0","0","1","competitive","right","1.00136494637","1543.19897294","3.99863505363","1547.37010598","4.30080413818","1551.67097497","1.69919586182","1553.42176986","1554.73114395","1554.80578685","1557.80872202","0","1557.823107","1564.18277192",""
"sujeto_8e872371","1","2","9","41","1564.32394195","direct","3","1","1","¿En qué año empieza
 la Edad Media?","476","512","","1","1","1","individual","right","1.92798995972","1566.25200391","3.07201004028","1569.51601291","4.43792581558","1573.95397997","1.56207418442","1575.56717682","1576.97088695","1577.01796389","1580.02093983","1","1580.034235","1583.02275896",""
"sujeto_8e872371","1","2","10","42","1583.16991282","inverse","3","1","4","¿Hace cuántos años surgió
 el ser humano?","200mil","300mil","","0","0","0","competitive","left","1.78199505806","1584.95195603","3.21800494194","1588.33881283","4.69308710098","1593.03194404","1.30691289902","1594.37455201","1596.26061392","1596.34181094","1599.34473991","0","1599.36016083","1602.67066693",""
"sujeto_8e872371","1","2","11","43","1602.81176186","direct","3","1","4","¿Cuántas cuadras tiene
 actualmente 18 de julio? ","36","33","","0","0","1","competitive","left","2.27816700935","1605.08997488","2.72183299065","1607.96422482","4.79459905624","1612.75888181","1.20540094376","1614.00263381","1615.70484591","1615.7869699","1618.78817701","0","1618.80438685","1623.52818203",""
"sujeto_8e872371","1","2","12","44","1623.67379093","inverse","1","1","4","¿Qué juego de equipo se 
considera mas rápido?","Lacrosse","Badminton","","0","0","0","competitive","left","1.12827682495","1624.80214095","3.87172317505","1628.82914686","5.31773495674","1634.146945","0.682265043259","1634.88047504","1636.12356687","1636.19769883","1639.20069599","0","1639.2150569","1647.210186",""
"sujeto_8e872371","1","2","13","45","1647.34904695","direct","1","1","3","¿Qué promedio de edad 
vive una jirafa? ","25","20","","0","0","1","competitive","left","1.27788496017","1648.6269989","3.72211503983","1652.50828481","4.4075949192","1656.91593885","1.5924050808","1658.54195094","1660.30347204","1660.37683582","1663.37976193","0","1663.3939929","1669.34971881",""
"sujeto_8e872371","1","2","14","46","1669.47830892","inverse","1","1","2","¿Cuántos grandes lagos hay?","7","5","","0","0","1","competitive","left","1.69359707832","1671.17197084","3.30640292168","1674.63547897","3.95140719414","1678.58694792","2.04859280586","1680.68773103","1681.97982192","1682.05445695","1685.05467987","0","1685.07173681","1692.89311385",""
"sujeto_8e872371","1","2","15","47","1693.03952694","direct","3","1","2","¿Cuántos discos de estudio
 grabó Johhny Cash? ","54","43","","1","1","0","individual","right","1.50028800964","1694.53987288","3.49971199036","1698.21331191","4.70158600807","1702.91494393","1.29841399193","1704.26264191","1705.54129696","1705.58011198","1708.583076","1","1708.59730387","1715.24821901",""
"sujeto_8e872371","1","2","16","48","1715.38194394","inverse","4","1","1","¿Cuántos barrios tiene
 Montevideo? ","71","62","","0","0","1","individual","right","1.43600797653","1716.81802797","3.56399202347","1720.54326987","3.93950796127","1724.48281693","2.06049203873","1726.59329581","1727.60037088","1727.64523792","1730.64816785","0","1730.66139102","1736.12341094",""
"sujeto_8e872371","1","2","17","49","1736.26351881","direct","3","1","3","¿Qué edad tiene Homero Simpson?","36","42","","0","0","1","competitive","right","2.19143891335","1738.45503187","2.80856108665","1741.42048788","3.08132696152","1744.50185585","2.91867303848","1747.45447683","1748.83051896","1748.90618587","1751.90916085","0","1751.92342091","1756.30821586",""
"sujeto_8e872371","1","2","18","50","1756.44128799","inverse","4","1","2","¿Cuántos países con monarquía 
hay en europa actualmente? ","6","10","","1","1","1","individual","left","1.64059305191","1758.08192897","3.35940694809","1761.59688902","4.38799095154","1765.98492694","1.61200904846","1767.64845395","1769.08670688","1769.1322279","1772.13519192","1","1772.14941382","1778.30420184",""
"sujeto_8e872371","1","2","19","51","1778.45154285","direct","2","1","3","¿Cuántos capítulos de
 Friends existen? ","236","228","","1","1","1","competitive","left","1.84238886833","1780.29399395","3.15761113167","1783.64017797","4.52469611168","1788.16494203","1.47530388832","1789.67748785","1790.98298883","1791.0615859","1794.06458902","1","1794.07859397","1796.45423293",""
"sujeto_8e872371","1","2","20","52","1796.5961349","inverse","1","1","3","¿Cuántas óperas compuso Mozart? ","27","22","","1","1","1","competitive","left","1.59078288078","1798.18698096","3.40921711922","1801.76747394","3.68541884422","1805.45296001","2.31458115578","1807.81890082","1809.11103702","1809.18699694","1812.18997383","1","1812.20349884","1819.51497388",""
"sujeto_8e872371","1","2","21","53","1819.65548801","direct","4","1","3","¿Cuántos mundiales de fútbol 
femenino ha realizado FIFA? ","9","7","","1","1","1","individual","left","1.30945515633","1820.96501803","3.69054484367","1824.81289387","4.75291395187","1829.56586981","1.24708604813","1830.86502886","1832.10870099","1832.14893389","1835.15189481","1","1835.16531396","1841.26777101",""
"sujeto_8e872371","1","2","22","54","1841.41655183","inverse","3","1","2","¿Cuál es la temperatura 
media anual en Montevideo? ","17.5","16.3","","0","0","1","individual","right","2.22640991211","1843.64302492","2.77359008789","1846.5912509","4.16361498833","1850.75491095","1.83638501167","1852.62549496","1854.56406689","1854.60987282","1857.61281681","0","1857.62787485","1864.19740081",""
"sujeto_8e872371","1","2","23","55","1864.330158","direct","2","1","2","¿En qué año se estrenó el
 videojuego The Sims? ","2000","2002","","0","0","0","competitive","left","1.55175900459","1865.88196492","3.44824099541","1869.50327682","4.57967305183","1874.08300781","1.42032694817","1875.55185604","1877.41387081","1877.50309896","1880.50607896","0","1880.52030301","1887.91396093",""
"sujeto_8e872371","1","2","24","56","1888.05537891","inverse","2","1","1","¿Cuál es la canción con 
mas covers? ","Yesterday","Stand by me","","0","0","0","competitive","left","1.92000484467","1889.97549987","3.07999515533","1893.24782586","4.66404891014","1897.911937","1.33595108986","1899.297153","1900.69573998","1900.76431489","1903.76729989","0","1903.78247595","1907.95331693",""
"sujeto_8e872371","1","2","25","57","1908.10118794","direct","1","1","4","¿Cuánto duró la guerra
 de los 100 años?","116","123","","0","0","0","competitive","left","1.32575893402","1909.42699289","3.67424106598","1913.27515483","3.70866084099","1916.98385","2.29133915901","1919.309654","1920.79050684","1920.87816191","1923.88115597","0","1923.89426303","1926.21216798",""
"sujeto_8e872371","1","2","26","58","1926.34653997","inverse","4","1","4","¿Qué color tiene la  bandera de Brasil?","Amarillo","Naranja","left","0","0","1","individual","left","1.06338381767","1927.40996885","3.93661618233","1931.51827788","3.84662604332","1935.36496782","2.15337395668","1937.56912088","1939.13564992","1939.18711996","1942.19004798","1","1942.20403886","1945.23617601",""
"sujeto_8e872371","1","2","27","59","1945.37284899","direct","4","1","3","¿Qué carabela de 
Colon no volvió del viaje?","Santa María","La pinta","","0","0","1","individual","right","1.97807717323","1947.35099888","3.02192282677","1950.54034686","4.66354703903","1955.20393491","1.33645296097","1956.57913184","1958.07015586","1958.11336398","1961.11633682","0","1961.13056898","1963.23003793",""
"sujeto_8e872371","1","2","28","60","1963.38203502","inverse","4","1","4","¿Cuántos huesos tiene
 un adulto humano?","217","206","","0","0","1","competitive","left","1.9189479351","1965.30105782","3.0810520649","1968.55226398","4.48260307312","1973.03490686","1.51739692688","1974.58877397","1975.85976791","1975.93976903","1978.94274282","0","1978.95695782","1986.79466701",""
"sujeto_8e872371","1","2","29","61","1986.94249582","direct","1","1","1","¿Qué país africano fue 
fundado por esclavos?","Liberia","Chad","","0","0","0","competitive","left","1.92544603348","1988.86799383","3.07455396652","1992.11402798","4.97582912445","1997.08990002","1.02417087555","1998.15018296","2000.14020681","2000.21864986","2003.22162199","0","2003.23646188","2011.2273159",""
"sujeto_8e872371","1","2","30","62","2011.37042999","inverse","4","1","2","¿A cuánto asciende la cima
 del monte Everest?","7.990 mts","8.848 mts","","0","0","1","individual","","1.09755206108","2012.46805","3.90244793892","2016.54494691","6","2022.54506898","0","2022.56071591","2023.74555683","2023.79685187","2026.799788","0","2026.81399488","2033.99617195",""
"sujeto_8e872371","1","2","31","63","2034.13242388","direct","4","1","1","¿Cuál es el país mas chico?","Sealand","Luxemburgo","","1","1","1","individual","left","1.23149704933","2035.36398602","3.76850295067","2039.30384588","3.67508602142","2042.97897482","2.32491397858","2045.35700583","2047.22053099","2047.25796485","2050.26016498","1","2050.27519989","2053.39748693",""
"sujeto_8e872371","1","2","32","64","2053.54320192","inverse","2","1","4","¿Cuántas pirámides hay en Egipto?","10000","11000","","1","1","1","competitive","left","1.34075880051","2054.88400602","3.65924119949","2058.70087981","3.8529779911","2062.55391598","2.1470220089","2064.75080991","2065.7844069","2065.86914682","2068.87158203","1","2068.88596797","2073.99503183",""
"sujeto_8e872371","1","3","1","65","2190.21394587","direct","2","1","2","¿Cuál es el quinto país con 
mas extensión?","Canadá","Brasil","","1","1","0","competitive","left","1.60697793961","2191.82099581","3.39302206039","2195.37086201","3.95507097244","2199.32597399","2.04492902756","2201.42206883","2202.75535488","2202.83970404","2205.8426919","1","2205.85602093","2213.58240604","2074.00983191"
"sujeto_8e872371","1","3","2","66","2213.72500086","inverse","1","1","2","¿Qué rasgo facial no tiene
 la Mona Lisa?","Cejas","Pómulos","","0","0","1","competitive","left","1.10096406937","2214.826015","3.89903593063","2218.882056","4.14983201027","2223.03192782","1.85016798973","2224.93362498","2226.68403482","2226.76805592","2229.77110195","0","2229.78525686","2236.05655193",""
"sujeto_8e872371","1","3","3","67","2236.20310402","direct","4","1","3","¿Cuál es el país con 
mayor población?","Esados Unidos","China","right","0","0","1","individual","right","1.22320413589","2237.42636204","3.77679586411","2241.36075687","4.05213785172","2245.41293597","1.94786214828","2247.41134191","2249.05614185","2249.09590101","2252.09884095","1","2252.11386299","2255.48020697",""
"sujeto_8e872371","1","3","4","68","2255.63228798","inverse","1","1","1","La palabra dinosaurio significa","Lagarto Terrible","Lagarto Dragón","","1","1","0","competitive","right","1.68478107452","2257.31712389","3.31521892548","2260.80336285","4.39948391914","2265.20290804","1.60051608086","2266.85341787","2268.02374482","2268.10436296","2271.10734701","1","2271.12179494","2273.98361492",""
"sujeto_8e872371","1","3","5","69","2274.14061689","direct","2","1","3","¿Qué es el membrillero?","Arbol","Arbusto","","0","0","0","competitive","left","1.49534392357","2275.63600397","3.50465607643","2279.29721689","3.51765489578","2282.81490993","2.48234510422","2285.34755802","2287.30169892","2287.38182688","2290.38416791","0","2290.39933681","2296.86017084",""
"sujeto_8e872371","1","3","6","70","2297.00154591","inverse","3","1","3","¿Alrededor de qué planeta orbita 
el satélite Europa?","Jupiter","Saturno","","1","1","1","individual","left","2.0423989296","2299.0439899","2.9576010704","2302.17541099","4.91157913208","2307.08705783","1.08842086792","2308.21051192","2309.75532103","2309.79438782","2312.7961719","1","2312.81223202","2315.01740384",""
"sujeto_8e872371","1","3","7","71","2315.1635859","direct","3","1","1","¿Donde fue el mundial de 
fútbol de 1954?","Suiza","Suecia","","1","1","1","individual","left","2.01035690308","2317.17398691","2.98964309692","2320.31703687","4.43394398689","2324.75102282","1.56605601311","2326.36958504","2327.62218785","2327.67014289","2330.67306304","1","2330.68733287","2334.59616399",""
"sujeto_8e872371","1","3","8","72","2334.73903203","inverse","1","1","4","¿Cuál de los 7 enanitos
no tenía barba?","Bashful","Mudito","","1","1","0","competitive","left","1.29991912842","2336.03899693","3.70008087158","2339.91155791","4.69537401199","2344.60697198","1.30462598801","2345.94643092","2347.52659583","2347.61349583","2350.61620188","1","2350.63049388","2355.55959392",""
"sujeto_8e872371","1","3","9","73","2355.69917583","direct","3","1","2","¿Cual red social es
mas utilizada mundialmente?","Instagram","Facebook","","1","1","0","individual","right","2.51380205154","2358.21302199","2.48619794846","2360.87115788","3.79980492592","2364.67100883","2.20019507408","2366.92371297","2368.84109092","2368.89123702","2371.89420986","1","2371.90957785","2374.84405184",""
"sujeto_8e872371","1","3","10","74","2374.99336481","inverse","4","1","1","¿Cuándo se inició la copa
 América de fútbol?","1916","1923","","1","1","1","individual","left","1.14759612083","2376.14103293","3.85240387917","2380.14769602","4.30929899216","2384.45705891","1.69070100784","2386.18352604","2388.08099198","2388.11733699","2391.12031198","1","2391.13535094","2393.79147696",""
"sujeto_8e872371","1","3","11","75","2393.9368279","direct","3","1","4","¿Cuántos presidentes de EEUU
han muerto asesinados?","3","4","","0","0","1","competitive","left","1.70915484428","2395.64604783","3.29084515572","2399.09159303","3.65429806709","2402.745929","2.34570193291","2405.14042282","2406.62437296","2406.70768404","2409.71065903","0","2409.72495389","2413.36906385",""
"sujeto_8e872371","1","3","12","76","2413.51044083","inverse","2","1","4","¿Cuántas veces participó EEUU
 en la copa América?","4","5","","0","0","1","competitive","right","1.34656906128","2414.85705495","3.65343093872","2418.66884589","4.14203286171","2422.81093788","1.85796713829","2424.70272493","2426.1467669","2426.22070503","2429.22370386","0","2429.23786497","2435.35221291",""
"sujeto_8e872371","1","3","13","77","2435.48864985","direct","4","1","1","¿Cuál de estos países 
no formaba la URSS?","Azeribayán","Afganistán","","0","0","1","individual","right","1.14431810379","2436.63301396","3.85568189621","2440.66317701","4.54672598839","2445.20994592","1.45327401161","2446.71444988","2448.02749896","2448.06514502","2451.06808281","0","2451.08213186","2459.06423092",""
"sujeto_8e872371","1","3","14","78","2459.20079803","inverse","1","1","1","¿En qué año se inauguró
 el teatro Solís?","1867","1856","","0","0","0","competitive","right","1.576141119","2460.777004","3.423858881","2464.358922","4.68707203865","2469.04603291","1.31292796135","2470.40934587","2471.46566391","2471.54370999","2474.5467","0","2474.56096196","2481.20877886",""
"sujeto_8e872371","1","3","15","79","2481.34516597","direct","1","1","4","¿A qué velocidad vuela 
el avión más rápido?","3529","3874","","0","0","0","competitive","right","1.14084219933","2482.48605394","3.85915780067","2486.51998997","4.29400205612","2490.81405282","1.70599794388","2492.55420899","2494.30973291","2494.38870883","2497.39166999","0","2497.40557098","2499.51582885",""
"sujeto_8e872371","1","3","16","80","2499.65759492","inverse","3","1","4","¿De qué año es la primer 
película cinematográfica?","1897","1888","","0","0","0","competitive","right","2.53844881058","2502.19615197","2.46155118942","2504.84493303","5.0810239315","2509.92602682","0.918976068497","2510.88163495","2512.01461887","2512.09828901","2515.10128784","0","2515.11528993","2520.5250659",""
"sujeto_8e872371","1","3","17","81","2520.66768885","direct","2","1","3","¿Cuántos países 
tiene nuestro planeta?","191","194","","1","1","1","competitive","right","1.67329382896","2522.34105682","3.32670617104","2525.82424998","4.31263899803","2530.13695002","1.68736100197","2531.87499499","2533.23217082","2533.309093","2536.31205297","1","2536.32618499","2539.56418896",""
"sujeto_8e872371","1","3","18","82","2539.74530292","inverse","2","1","2","¿Cuántos habitantes
 tiene Buenos Aires?","2.9000.000","3650000","","0","0","0","competitive","left","1.18070697784","2540.92607498","3.81929302216","2544.89922881","4.30271100998","2549.20198584","1.69728899002","2550.95037103","2552.34764981","2552.41781902","2555.42020988","0","2555.43454385","2561.26391482",""
"sujeto_8e872371","1","3","19","83","2561.45323396","direct","2","1","1","¿Cuántos kilos forman una tonelada?","1000","1500","left","1","1","1","competitive","left","1.5407409668","2562.99405098","3.4592590332","2566.61111999","4.88684916496","2571.49803996","1.11315083504","2572.66336703","2574.55071092","2574.62990904","2577.632195","1","2577.64781499","2583.60523701",""
"sujeto_8e872371","1","3","20","84","2583.74792099","inverse","4","1","4","¿Cuántos estados tiene la 
República del Perú? ","24","23","","0","0","1","individual","right","1.1550951004","2584.90305996","3.8449048996","2588.90534687","4.39259386063","2593.29800797","1.60740613937","2594.94016194","2595.96228886","2596.00844097","2599.01141596","0","2599.02456903","2603.96985292",""
"sujeto_8e872371","1","3","21","85","2604.11006403","direct","3","1","3","¿En qué año nació Cristóbal Colón? ","1451","1447","","0","0","1","individual","left","2.25195598602","2606.36206293","2.74804401398","2609.28198195","3.59192991257","2612.87395692","2.40807008743","2615.33498287","2617.18085003","2617.21923304","2620.22219396","0","2620.23706484","2624.46504593",""
"sujeto_8e872371","1","3","22","86","2624.65514994","inverse","4","1","4","¿Cuánto mide la 
Montaña Aconcagua? ","6234","6962","","0","0","1","individual","right","2.75183296204","2627.40704894","2.24816703796","2629.82206392","4.57889819145","2634.40100193","1.42110180855","2635.85970283","2637.14818096","2637.19414902","2640.1971209","0","2640.21124697","2647.39484596",""
"sujeto_8e872371","1","3","23","87","2647.52993989","direct","2","1","4","¿Cuánto mide el punto
 más profundo del océano? ","12508","11003","","0","0","1","competitive","left","1.24805188179","2648.77806902","3.75194811821","2652.68898892","4.42698287964","2657.11603594","1.57301712036","2658.72392583","2659.97537994","2660.05771399","2663.06021285","0","2663.07457781","2667.28084087",""
"sujeto_8e872371","1","3","24","88","2667.45988584","inverse","1","1","3","¿Cuántos álbumes ha publicado 
el cantante Jaime Roos? ","41","34","","0","0","1","competitive","right","1.11109995842","2668.57105303","3.88890004158","2672.61579299","4.18616318703","2676.80201888","1.81383681297","2678.66679096","2680.15662599","2680.23427701","2683.23617101","0","2683.25244498","2689.44861197",""
"sujeto_8e872371","1","3","25","89","2689.58631587","direct","4","1","3","¿En qué año nació el 
ex-presidente Jorge Battle? ","1921","1927","","1","1","1","individual","left","0.969632863998","2690.55600095","4.030367136","2694.74344397","4.91853809357","2699.662045","1.08146190643","2700.79583001","2702.52650285","2702.57967591","2705.58264685","1","2705.5973599","2709.08341599",""
"sujeto_8e872371","1","3","26","90","2709.23197103","inverse","1","1","3","¿Cuántas presidencias 
constitucionales  hubo en Uruguay? ","41","42","","0","0","1","competitive","left","1.03506612778","2710.26708484","3.96493387222","2714.4195199","4.17445492744","2718.59404182","1.82554507256","2720.45345592","2721.65624499","2721.73796296","2724.74020696","0","2724.75542498","2730.53907204",""
"sujeto_8e872371","1","3","27","91","2730.673774","direct","1","1","2","¿Quién escribió mas sinfonías?","Mozart","Haydn","","1","1","0","competitive","left","1.45831513405","2732.13218689","3.54168486595","2735.8148129","3.01318597794","2738.82807302","2.98681402206","2741.84811282","2743.06556702","2743.14962196","2746.15260887","1","2746.16685796","2749.91827393",""
"sujeto_8e872371","1","3","28","92","2750.06908083","inverse","4","1","2","¿En qué año nació Michael Jackson?","1958","1953","","1","1","1","individual","right","1.15294504166","2751.22209787","3.84705495834","2755.22487998","4.12215900421","2759.34707904","1.87784099579","2761.27697301","2763.25520992","2763.29334402","2766.29622388","1","2766.31147099","2772.17379999",""
"sujeto_8e872371","1","3","29","93","2772.3130579","direct","3","1","2","¿En qué año entró en vigencia 
la ley antitabaco en Uruguay?","2005","2006","","1","1","1","individual","left","1.57797193527","2773.8910749","3.42202806473","2777.4701879","4.72683095932","2782.19706583","1.27316904068","2783.50383997","2785.09857583","2785.137604","2788.14057398","1","2788.15568495","2793.48968387",""
"sujeto_8e872371","1","3","30","94","2793.64060998","inverse","3","1","1","¿Cuándo se subió el 
primer video a youtube?","2004","2005","","0","0","1","individual","left","1.29268193245","2794.93337202","3.70731806755","2798.79682302","3.62818098068","2802.42504692","2.37181901932","2804.83035183","2806.13600087","2806.18157792","2809.18421197","0","2809.19839597","2816.95401096",""
"sujeto_8e872371","1","3","31","95","2817.09980297","direct","2","1","1","¿Cuántos habitantes tiene India?","1200 millones","1300 millones","","0","0","0","individual","right","1.86118197441","2818.96105003","3.13881802559","2822.2753799","4.11560893059","2826.39105296","1.88439106941","2828.32748389","2830.29707193","2830.34572387","2833.34816504","0","2833.36344194","2839.40816402",""
"sujeto_8e872371","1","3","32","96","2839.54788399","inverse","4","1","2","¿A qué edad murió Bob Marley?","36","37","","0","0","1","individual","left","1.25109219551","2840.79902601","3.74890780449","2844.70401788","3.67492294312","2848.37898183","2.32507705688","2850.75609493","2852.65391302","2852.69041586","2855.69216585","0","2855.70732999","2858.80981994",""
"sujeto_8e872371","1","4","1","97","2977.76597595","direct","2","1","1","¿Cuantos años dirigió la selección 
uruguaya Tabarez?","15 años","13 años","","0","0","0","competitive","left","2.36602401733","2980.13208103","2.63397598267","2982.94054604","4.47545409203","2987.41603899","1.52454590797","2988.99476504","2990.18586802","2990.26147985","2993.26446891","0","2993.27861094","3000.35063982","2858.82730603"
"sujeto_8e872371","1","4","2","98","3000.53048086","inverse","4","1","1","¿Cuantas teclas tiene un teclado 
de computadora generalmente? ","Entre 99 y 108","Entre 109 y 113","","1","1","1","individual","left","1.29557991028","3001.82610583","3.70442008972","3005.70386291","4.78110384941","3010.48502994","1.21889615059","3011.75553083","3012.75829482","3012.80644703","3015.808213","1","3015.82318902","3018.19462585",""
"sujeto_8e872371","1","4","3","99","3018.34135485","direct","1","1","1","¿Cuál Departamento tiene
 mayor superficie?","Río Negro","Soriano","","0","0","0","competitive","right","1.23477506638","3019.57617903","3.76522493362","3023.52830482","4.66864705086","3028.19701004","1.33135294914","3029.579561","3031.29304504","3031.38088393","3034.383847","0","3034.39724684","3038.72333384",""
"sujeto_8e872371","1","4","4","100","3038.86651087","inverse","3","1","2","¿Cuál es el apellido de las 
hermanastras  de  cenicienta?","Tremaine","Truman","","0","0","1","individual","left","1.48047685623","3040.34705496","3.51952314377","3044.02440691","4.58859491348","3048.6130619","1.41140508652","3050.07473493","3051.94421291","3051.99246693","3054.99542403","0","3055.00982904","3057.7057929",""
"sujeto_8e872371","1","4","5","101","3057.87832904","direct","4","1","4","¿Cuál película ganó un
 Oscar a mejor película?","Alto Impacto","Cache","","0","0","1","individual","right","1.49770712852","3059.37611485","3.50229287148","3063.03351593","4.72941684723","3067.76296902","1.27058315277","3069.08525395","3070.20463586","3070.2513299","3073.25430298","0","3073.26935291","3075.53396297",""
"sujeto_8e872371","1","4","6","102","3075.67043781","inverse","1","1","3","¿A cuántos centímetros
equivale la medida pié?","25","30","","0","0","1","competitive","left","1.16366410255","3076.83420801","3.83633589745","3080.84182692","4.87415885925","3085.71604586","1.12584114075","3086.87743592","3087.91743588","3087.99383688","3090.99683785","0","3091.01110601","3096.41205597",""
"sujeto_8e872371","1","4","7","103","3096.54671097","direct","2","1","2","¿Qué departamento es mas grande?","Cerro Largo","Paysandú","","0","0","0","competitive","left","1.32032299042","3097.86710787","3.67967700958","3101.73722887","4.04373598099","3105.78100801","1.95626401901","3107.77165794","3109.37142396","3109.455019","3112.45797896","0","3112.472404","3116.582376",""
"sujeto_8e872371","1","4","8","104","3116.72436094","inverse","2","1","3","¿Quién pintó la Mona Lisa?","Picasso","Da Vinci","right","0","0","1","competitive","right","1.20869278908","3117.93311787","3.79130721092","3121.89753699","3.03248000145","3124.93008685","2.96751999855","3127.94766688","3129.553509","3129.63286901","3132.63584685","1","3132.649997","3134.81230283",""
"sujeto_8e872371","1","4","9","105","3134.95170999","direct","4","1","3","¿Cuántos litros hay en un galon?","3.54","3.78","","1","1","1","individual","right","1.19629907608","3136.148103","3.80370092392","3140.138412","4.72863006592","3144.86708283","1.27136993408","3146.18985987","3147.70771503","3147.75758386","3150.76055884","1","3150.77388597","3156.56417203",""
"sujeto_8e872371","1","4","10","106","3156.70942092","inverse","4","1","1","¿Cuántas teclas tiene
 un piano moderno?","80","88","","0","0","1","individual","left","1.09717988968","3157.80665183","3.90282011032","3161.86766386","4.44941401482","3166.31713891","1.55058598518","3167.91834903","3168.92681599","3168.97012281","3171.97217298","0","3171.98639703","3178.78412795",""
"sujeto_8e872371","1","4","11","107","3178.93824196","direct","4","1","3","¿Cuántos países hay en África?","54","62","","0","0","1","individual","left","1.18281602859","3180.12112999","3.81718397141","3184.112468","3.12357401848","3187.23610497","2.87642598152","3190.16296983","3191.85352898","3191.89827394","3194.90016198","0","3194.9154079","3202.72013497",""
"sujeto_8e872371","1","4","12","108","3202.90091991","inverse","1","1","3","¿En qué siglo se crearon
 las primeras pistolas?","XV","XIII","","1","1","1","competitive","left","1.06913089752","3203.97012782","3.93086910248","3208.07447886","5.11448788643","3213.18900585","0.885512113571","3214.1262939","3216.07421088","3216.16059184","3219.16356993","1","3219.17761588","3222.41072297",""
"sujeto_8e872371","1","4","13","109","3222.56248903","direct","3","1","4","¿En qué año se estrenó 
la serie friends?","1994","1995","","0","0","1","individual","right","1.2475399971","3223.81009388","3.7524600029","3227.74882197","5.22215199471","3232.971035","0.777848005295","3233.78533387","3235.66068983","3235.70207882","3238.70500302","0","3238.72026491","3243.72628498",""
"sujeto_8e872371","1","4","14","110","3243.87227893","inverse","3","1","4","¿En qué año nació Hitler?","1889","1887","","0","0","1","competitive","right","1.48173904419","3245.35408401","3.51826095581","3249.02929688","4.23169493675","3253.26103401","1.76830506325","3255.07980585","3256.194134","3256.26444197","3259.26740289","0","3259.28168201","3264.30817485",""
"sujeto_8e872371","1","4","15","111","3264.44983196","direct","1","1","4","¿Cuánto pesa un elefante Africano?","6000 kilos","5400 kilos","","0","0","0","competitive","left","1.38824820518","3265.83814383","3.61175179482","3269.60704088","4.23896002769","3273.84606004","1.76103997231","3275.65793395","3277.01383781","3277.09249783","3280.09550381","0","3280.1088829","3286.8122189",""
"sujeto_8e872371","1","4","16","112","3286.94356894","inverse","1","1","2","¿Qué porcentaje de 
la población es zurda?","10%","7%","","1","1","0","competitive","right","1.25046777725","3288.1940999","3.74953222275","3292.11840081","4.11056995392","3296.22901082","1.88943004608","3298.15249896","3299.39560485","3299.47045088","3302.473423","1","3302.48758602","3308.46728897",""
"sujeto_8e872371","1","4","17","113","3308.60458493","direct","1","1","2","¿En qué año se estrenó
Volver al futuro?","1984","1985","","0","0","1","competitive","left","1.25253987312","3309.85717082","3.74746012688","3313.77663898","4.32137298584","3318.09807181","1.67862701416","3319.82901192","3321.39085293","3321.46337986","3324.46635604","0","3324.48050904","3331.56820488",""
"sujeto_8e872371","1","4","18","114","3331.69855499","inverse","3","1","2","¿Cuántos jugadores hay en un 
equipo de baseball?","9","8","","1","1","0","individual","left","1.88653516769","3333.58514404","3.11346483231","3336.87490797","4.34215712547","3341.21710587","1.65784287453","3342.90901399","3344.52328897","3344.57649398","3347.57944989","1","3347.59307289","3352.5681839",""
"sujeto_8e872371","1","4","19","115","3352.71203184","direct","2","1","1","¿Cuántos Oscar ganó
 la película titanic?","13","11","","1","1","1","competitive","left","1.70400595665","3354.41613197","3.29599404335","3357.85162592","4.23344182968","3362.08513403","1.76655817032","3363.90281582","3365.20483398","3365.28656292","3368.28954887","1","3368.30387902","3372.90654182",""
"sujeto_8e872371","1","4","20","116","3373.05595803","inverse","4","1","4","¿En qué año comenzó
la segunda guerra mundial?","1939","1976","left","0","0","1","individual","right","1.22614192963","3374.28214598","3.77385807037","3378.21241593","3.91868901253","3382.13116789","2.08131098747","3384.26348782","3386.06329894","3386.1139679","3389.11691785","0","3389.13201094","3393.11915994",""
"sujeto_8e872371","1","4","21","117","3393.30015492","direct","2","1","4","¿Cuántos biomas hay en Uruguay?","5","4","","0","0","1","competitive","left","1.23293805122","3394.53314185","3.76706194878","3398.48656201","3.84451198578","3402.331141","2.15548801422","3404.52232695","3406.319664","3406.39023685","3409.39321995","0","3409.40734291","3415.65675282",""
"sujeto_8e872371","1","4","22","118","3415.82541299","inverse","2","1","3","¿Cuándo murió Pablo Escobar?","1993","1997","","1","1","1","competitive","right","1.07076501846","3416.89624786","3.92923498154","3420.97955394","4.35738992691","3425.33698392","1.64261007309","3427.01551604","3428.79836798","3428.88280702","3431.88421702","1","3431.90059686","3437.60427499",""
"sujeto_8e872371","1","4","23","119","3437.73544288","direct","1","1","4","¿Qué serie ha ganado mas premios?","Friends","Murphy Brown","","1","1","0","competitive","right","1.04868602753","3438.78420591","3.95131397247","3442.89572287","4.3733818531","3447.26915288","1.6266181469","3448.94703698","3450.299438","3450.38068891","3453.38367081","1","3453.39803886","3458.95966482",""
"sujeto_8e872371","1","4","24","120","3459.09978986","inverse","4","1","2","¿Cuántas fichas tiene el dominó?","26","28","","1","1","1","individual","left","1.25126695633","3460.35112882","3.74873304367","3464.27312088","3.98489189148","3468.25807786","2.01510810852","3470.32380581","3471.37912893","3471.42542601","3474.4284029","1","3474.44248295","3479.68559098",""
"sujeto_8e872371","1","4","25","121","3479.8274169","direct","2","1","4","¿Cuántos son los dientes de leche?","20","25","","0","0","1","competitive","left","1.2036550045","3481.03114891","3.7963449955","3484.99964094","3.55341982841","3488.55310488","2.44658017159","3491.05096483","3492.76021886","3492.83572984","3495.83871484","0","3495.85384202","3497.99955702",""
"sujeto_8e872371","1","4","26","122","3498.13847899","inverse","3","1","3","¿Cuántos gramos son una onza?","22","28","","0","0","1","individual","right","1.78561782837","3499.92414403","3.21438217163","3503.29355788","4.05651092529","3507.35013604","1.94348907471","3509.34378695","3511.33864784","3511.37870193","3514.38168097","0","3514.39612603","3520.68637204",""
"sujeto_8e872371","1","4","27","123","3520.88101482","direct","3","1","1","¿Cuándo salió el primer album
 de los Beatles?","1963","1962","","1","1","1","individual","left","1.50205492973","3522.38311481","3.49794507027","3526.07176495","4.39234209061","3530.46415901","1.60765790939","3532.10679889","3533.27040696","3533.30746388","3536.310431","1","3536.32376194","3540.09581494",""
"sujeto_8e872371","1","4","28","124","3540.27574897","inverse","3","1","3","¿Quién fundó la empresa apple?","Carlos Slim","Steve Jobs","","1","1","1","individual","right","2.25237107277","3542.52818894","2.74762892723","3545.44882703","3.27624893188","3548.72513485","2.72375106812","3551.49993396","3552.61461592","3552.65030384","3555.65221286","1","3555.66739297","3561.96418881",""
"sujeto_8e872371","1","4","29","125","3562.10260487","direct","4","1","2","¿Cuántos municipios hay
 en Montevideo?","8","7","","1","1","1","individual","left","1.60545182228","3563.70812201","3.39454817772","3567.24343085","3.23557591438","3570.47904587","2.76442408562","3573.29112887","3575.20586586","3575.24185991","3578.24484992","1","3578.26022291","3580.3401649",""
"sujeto_8e872371","1","4","30","126","3580.49523282","inverse","1","1","1","¿Cuántos kilómetros hay
 de Montevideo a Artigas?","632","599","","0","0","0","competitive","left","1.87392497063","3582.36923385","3.12607502937","3585.66924","4.02888011932","3589.69817996","1.97111988068","3591.71983385","3593.20293784","3593.28719592","3596.29019403","0","3596.30456281","3602.35669589",""
"sujeto_8e872371","1","4","31","127","3602.49030995","direct","2","1","2","¿En qué año nació 
Leonardo Da Vinci?","1452","1511","","1","1","0","competitive","left","2.20078492165","3604.69115901","2.79921507835","3607.66276789","1.21533489227","3608.87814403","4.78466510773","3613.69730902","3615.55092382","3615.63334084","3618.63631201","1","3618.65020895","3621.79662299",""
"sujeto_8e872371","1","4","32","128","3621.93505597","inverse","3","1","1","¿A qué continente
 pertenece el país Gabón?","Africa","Oceanía","","0","0","1","individual","right","1.85104703903","3623.78619099","3.14895296097","3627.09075689","3.80532383919","3630.89612699","2.19467616081","3633.14014983","3634.95181394","3634.99115896","3637.994133","0","3638.00969481","3643.24759483",""
