"code","nro_aplicante","nro_bloque","nro_trial_bloque","nro_trial_global","show_game_type","choice_order","rival","pay_individual","pay_competitive","question","answer_left_text","answer_right_text","correct_answer","outcome_individual","outcome_competitive","outcome_rival","game_type","answer","social_time","rt_game_type","feedback_delay","show_question","answer_time","rt_answer_global","feedback_delay_2","show_jitter","jitter_time","show_outcome","outcome_time","outcome_participant_real","show_final_jitter","second_jitter_time","inicio_descanso"
"sujeto_4517150c","1","1","1","1","586.896085978","direct","3","1","4","¿Cuántos centímetros corresponden
al talle 36 del calzado?","23","24","","0","0","1","competitive","right","0.995787143707","587.891942024","4.00421285629","592.05388999","3.86898207664","595.92292285","2.13101792336","598.104398966","599.132697821","599.205629826","602.208621979","0","602.223158836","604.385628939",""
"sujeto_4517150c","1","1","2","2","604.522521973","inverse","3","1","2","¿Cuántas metros mide la Intendencia
Municipal de Montevideo? ","84","78","","0","0","1","competitive","right","0.445555210114","604.968156815","4.55444478989","609.678527832","5.60947108269","615.288064957","0.390528917313","615.714171886","617.592175961","617.665308952","620.668232918","0","620.682152987","622.774888039",""
"sujeto_4517150c","1","1","3","3","622.917924881","direct","1","1","3","¿Cuántas La Pasiva
 hay en uruguay?","15","11","","1","1","1","competitive","left","0.902246952057","623.820225954","4.09775304794","628.072510958","2.81461000443","630.887166023","3.18538999557","634.105383873","635.717033863","635.791007996","638.793956995","1","638.808220863","643.086561918",""
"sujeto_4517150c","1","1","4","4","643.209806919","inverse","3","1","3","¿De que color es la camiseta de uruguay?","blanca","celeste","right","1","1","1","competitive","right","0.427464962006","643.637352943","4.57253503799","648.366204977","2.12998890877","650.49623394","3.87001109123","654.399725914","655.604493856","655.685096025","658.688055992","1","658.702098846","662.156028986",""
"sujeto_4517150c","1","1","5","5","662.303324938","direct","2","1","1","¿Cuánto metros mide
la torre Eiffel?","333","324","","1","1","1","competitive","right","1.57393598557","663.877310991","3.42606401443","667.460009813","2.81028795242","670.270357847","3.18971204758","673.492970943","675.014331818","675.094815969","678.097793818","1","678.112802029","685.149505854",""
"sujeto_4517150c","1","1","6","6","685.280158997","inverse","3","1","4","¿Cuantas ciudades existen
 en todo el uruguay?","63","72","","0","0","1","individual","left","1.19721698761","686.477419853","3.80278301239","690.434053898","3.41029381752","693.844408035","2.58970618248","696.468991995","697.523813963","697.570487022","700.570710897","0","700.587894917","708.214488029",""
"sujeto_4517150c","1","1","7","7","708.372211933","direct","1","1","1","¿Cuantos estados tiene África?","52","54","","1","1","0","competitive","left","0.667403936386","709.039667845","4.33259606361","713.533208847","5.6442630291","719.177532911","0.355736970901","719.569068909","721.433094025","721.518719912","724.521698952","1","724.535923004","730.296947956",""
"sujeto_4517150c","1","1","8","8","730.437819958","inverse","4","1","4","¿En qué año nació
 Stephen Hawking?","1952","1942","","0","0","1","competitive","right","1.0588350296","731.496738911","3.9411649704","735.594413996","4.25417208672","739.848654032","1.74582791328","741.646256924","743.090548992","743.163360834","746.166349888","0","746.180585861","752.279942989",""
"sujeto_4517150c","1","1","9","9","752.432579041","direct","2","1","3","¿Cuánto años tenía Artigas
 cuando se fue a Paraguay?","56","57","","1","1","1","competitive","","1.04814910889","753.480779886","3.95185089111","757.589516878","6","763.589651823","0","763.605079889","765.154564857","765.22487998","768.227854967","0","768.242872","774.290155888",""
"sujeto_4517150c","1","1","10","10","774.410228968","inverse","1","1","2","¿Cuantos milímetros 
mide una hoja A2?","420x592","420x594","","0","0","1","competitive","left","0.990711927414","775.401026964","4.00928807259","779.567098856","2.83269786835","782.399839878","3.16730213165","785.618280888","787.186726809","787.269611835","790.272603989","0","790.286685944","797.360323906",""
"sujeto_4517150c","1","1","11","11","797.491207838","direct","3","1","3","¿Cuál es la menor temperatura 
registrada en Uruguay?","-5.4","-7.4","","0","0","1","competitive","left","0.983808994293","798.475098848","4.01619100571","802.661687851","4.13111591339","806.792838812","1.86888408661","808.71267581","810.394732952","810.463999987","813.466886997","0","813.481006861","817.214310884",""
"sujeto_4517150c","1","1","12","12","817.350106001","inverse","2","1","2","¿Cuantos años hace que 
se fundó facebook?","18","17","","0","0","0","competitive","right","0.780016183853","818.130203009","4.21998381615","822.506621838","5.0813601017","827.588049889","0.9186398983","828.55822897","829.930934906","830.007975817","833.010916948","0","833.026185989","835.800806046",""
"sujeto_4517150c","1","1","13","13","835.944044828","direct","1","1","4","¿Cuál animal es más
 pesado en promedio?","Rinoceronte","Hipopotamo","","0","0","0","competitive","left","0.836115121841","836.780212879","4.16388487816","841.116760969","5.48132300377","846.598150969","0.518676996231","847.167737007","848.246966839","848.317961931","851.320942879","0","851.335072041","855.176054001",""
"sujeto_4517150c","1","1","14","14","855.355724812","inverse","1","1","2","¿Qué personaje de dragon ball 
murió más veces?","Chaoz","Krillin","","1","1","0","competitive","right","1.13850498199","856.494333029","3.86149501801","860.538571835","3.91155600548","864.450170994","2.08844399452","866.574663877","868.032487869","868.108218908","871.111188889","1","871.125800848","878.898737907",""
"sujeto_4517150c","1","1","15","15","879.027920008","direct","3","1","2","La universidad de oxford. 
existe desde:","1096","1249","","1","1","0","competitive","left","0.676429033279","879.704425812","4.32357096672","884.188392878","3.68897199631","887.877405882","2.31102800369","890.239861012","891.288673878","891.374006033","894.376993895","1","894.391201973","901.082062006",""
"sujeto_4517150c","1","1","16","16","901.22614193","inverse","3","1","1","¿Qué escritor latino ganó antes
 el premio nobel?"," García Marquez","Neruda","","0","0","1","competitive","left","0.407388925552","901.633586884","4.59261107445","906.383832932","4.60759782791","910.991499901","1.39240217209","912.418251038","914.158248901","914.235826015","917.238785982","0","917.253031969","920.71330595",""
"sujeto_4517150c","1","1","17","17","920.837496996","direct","4","1","3","¿Cuántos dientes tiene un
 tiburón blanco?","6000","3000","","0","0","1","competitive","left","0.891889095306","921.729430914","4.10811090469","925.993985891","2.85957384109","928.853600025","3.14042615891","932.028051853","933.067059994","933.145920038","936.1489079","0","936.162998915","940.972671032",""
"sujeto_4517150c","1","1","18","18","941.097826958","inverse","4","1","1","¿Cuánto mide el paralelo Ecuador?","40.000km","70.000km","","0","0","1","competitive","right","0.64580321312","941.743680954","4.35419678688","946.249104977","5.52442193031","951.773563862","0.475578069687","952.286330938","954.242381811","954.319240808","957.322221041","0","957.337463856","960.940027952",""
"sujeto_4517150c","1","1","19","19","961.072413921","direct","4","1","2","¿Cuál fue el primer libro 
de Stephen King?","Carrie","The Stand","","1","1","1","competitive","right","0.820352077484","961.892841816","4.17964792252","966.231586933","3.38605999947","969.617710829","2.61394000053","972.281805038","974.025910854","974.100421906","977.103375912","1","977.116756916","981.590703964",""
"sujeto_4517150c","1","1","20","20","981.716820955","inverse","2","1","3","¿Qué civilización practicaba
 la momificación?","Grecia","Egipto","right","0","0","1","competitive","right","0.439021110535","982.155892849","4.56097888947","986.875429869","3.57841801643","990.453907013","2.42158198357","992.909464836","994.848731995","994.927428961","997.930398941","1","997.945508003","1002.17071199",""
"sujeto_4517150c","1","1","21","21","1002.31297398","direct","4","1","4","¿Cuántos millones de visitas
 recibe google por minuto?","3.0","4.5","","0","0","1","competitive","left","0.539090156555","1002.85211992","4.46090984344","1007.46920204","2.37273311615","1009.841995","3.62726688385","1013.51988792","1015.03474593","1015.10486889","1018.10779881","0","1018.12182689","1025.24451303",""
"sujeto_4517150c","1","1","22","22","1025.38996983","inverse","1","1","3","La máquina de fax. se inventó en:","1843","1960","","0","0","1","competitive","left","0.830161094666","1026.22018504","4.16983890533","1030.54651093","4.93754506111","1035.48411703","1.06245493889","1036.59546804","1037.83754683","1037.91280293","1040.91336989","0","1040.93062282","1044.16690397",""
"sujeto_4517150c","1","1","23","23","1044.29795003","direct","2","1","4","En la verdadera historia de los
 300 espartanos. habían:","300 soldados","4300 soldados","","1","1","1","competitive","right","0.709203004837","1045.00720501","4.29079699516","1049.45780897","3.35129404068","1052.80914402","2.64870595932","1055.508533","1056.76972604","1056.84309602","1059.84607196","1","1059.86032104","1063.66205692",""
"sujeto_4517150c","1","1","24","24","1063.81188488","inverse","1","1","4","¿Cuántos milímetros crece
 el pelo por día?","0.4","0.04","","0","0","0","competitive","right","1.44231796265","1065.2542479","3.55768203735","1068.96771598","3.45749306679","1072.42526793","2.54250693321","1075.01836991","1076.77867603","1076.85331297","1079.85629392","0","1079.87137294","1086.60646701",""
"sujeto_4517150c","1","1","25","25","1086.77315593","direct","4","1","1","¿Cuánto mide la baldosa gris 
clásica de Montevideo?","22x22 cm.","20x20 cm.","","1","1","1","competitive","left","1.27015399933","1088.04335999","3.72984600067","1091.92897892","4.32533597946","1096.25437593","1.67466402054","1097.98149085","1099.9767499","1100.04832196","1103.05128193","1","1103.06628299","1108.60908794",""
"sujeto_4517150c","1","1","26","26","1108.75163794","inverse","2","1","2","¿Cuántas películas de rápidos
 y furiosos hay?","10","11","","1","1","0","competitive","right","0.682830810547","1109.43451881","4.31716918945","1113.90727091","4.43111300468","1118.33842802","1.56888699532","1119.95836687","1121.31637383","1121.39182496","1124.39480495","1","1124.40909195","1126.44270492",""
"sujeto_4517150c","1","1","27","27","1126.57771182","direct","3","1","1","¿Cuántos masters 1000
 ganó Del Potro?","1","2","","1","1","1","competitive","right","1.05379199982","1127.63154984","3.94620800018","1131.73365998","5.74184417725","1137.47554398","0.258155822754","1137.76943684","1139.52273703","1139.60237098","1142.60536385","1","1142.61961102","1150.01597595",""
"sujeto_4517150c","1","1","28","28","1150.17171693","inverse","2","1","4","¿Cuántos meses dura el 
embarazo de una leona?","3 meses","4 meses","","0","0","1","competitive","left","0.6670358181","1150.8388319","4.3329641819","1155.34683585","4.99876499176","1160.3456459","1.00123500824","1161.39772391","1162.50878882","1162.59796691","1165.60094404","0","1165.61502504","1172.33750391",""
"sujeto_4517150c","1","1","29","29","1172.46682501","direct","1","1","1","¿En qué año fue creado
 el sandwich?","1762","1653","","1","1","0","competitive","right","1.0230140686","1173.4899199","3.9769859314","1177.62459087","3.94817399979","1181.57281089","2.05182600021","1183.67518997","1185.27372599","1185.34256601","1188.34556699","1","1188.36059594","1191.83123994",""
"sujeto_4517150c","1","1","30","30","1191.96180081","inverse","4","1","2","El nombre de la moneda de Vietnam es:","Dinar","Dong","","0","0","1","competitive","left","0.773171901703","1192.73502684","4.2268280983","1197.1182549","4.26059293747","1201.37890887","1.73940706253","1203.15282702","1204.5847609","1204.66969681","1207.67269301","0","1207.68694782","1213.85537386",""
"sujeto_4517150c","1","1","31","31","1213.9889009","direct","2","1","1","¿cuantos aleteos puede dar 
un colibrí por segundo?","120","50","","0","0","0","competitive","left","0.732111930847","1214.72106791","4.26788806915","1219.14594889","3.8619530201","1223.00794601","2.1380469799","1225.18009281","1226.91246104","1226.998878","1230.00182581","0","1230.01505494","1234.22732592",""
"sujeto_4517150c","1","1","32","32","1234.36709499","inverse","4","1","3","¿Qué altura promedio tienen
 los hombres uruguayos?","1.73 m","1.72 m","","1","1","1","competitive","right","0.66502404213","1235.03217196","4.33497595787","1239.54022288","4.31187105179","1243.85215592","1.68812894821","1245.59149003","1246.85388088","1246.92529082","1249.928267","1","1249.94225597","1254.41819501",""
"sujeto_4517150c","1","2","1","33","1382.08747602","direct","1","1","1","¿En qué año nació 
el actor Bradd Pitt?","1967","1963","","1","1","1","competitive","right","0.736272096634","1382.82385397","4.26372790337","1387.28271604","3.3900270462","1390.6727829","2.6099729538","1393.33485889","1394.43069887","1394.50211382","1397.50270987","1","1397.51916385","1403.44674897","1254.42956781"
"sujeto_4517150c","1","2","2","34","1403.5702219","inverse","2","1","1","¿Cual es el segundo 
monte más alto?","Kanchenjunga","K2","","1","1","1","competitive","left","1.21092987061","1404.78122997","3.78907012939","1408.72744799","2.95143914223","1411.67895389","3.04856085777","1414.77785182","1416.23026991","1416.31361389","1419.31660295","1","1419.33052897","1422.760427",""
"sujeto_4517150c","1","2","3","35","1422.89892602","direct","3","1","1","¿Cuándo finalizó la construcción
 del Palacio Legislativo?","1925","1917","","0","0","1","competitive","right","0.597119092941","1423.49612498","4.40288090706","1428.05335498","4.53054499626","1432.58394194","1.46945500374","1434.10428882","1435.74596","1435.821908","1438.824857","0","1438.83934593","1444.53689194",""
"sujeto_4517150c","1","2","4","36","1444.69002104","inverse","3","1","3","¿Cuántos integrantes tenía
 en su inicio  el cuarteto de nos?","3","4","","1","1","1","competitive","right","0.77115893364","1445.46123099","4.22884106636","1449.84869003","4.00541114807","1453.85417199","1.99458885193","1455.89845681","1457.031528","1457.11646795","1460.11944985","1","1460.13370991","1465.78351784",""
"sujeto_4517150c","1","2","5","37","1465.91829205","direct","2","1","3","¿Qué valor tiene el número pi?","3.14","4.18","left","0","0","1","competitive","left","0.639995098114","1466.55834103","4.36000490189","1471.07723784","2.38993692398","1473.46721601","3.61006307602","1477.12683296","1478.58104801","1478.66304684","1481.666013","1","1481.67905688","1488.60004091",""
"sujeto_4517150c","1","2","6","38","1488.73073483","inverse","2","1","2","¿Cuál es la esperanza de vida
 en Uruguay?","75","77","","1","1","0","competitive","left","0.60467505455","1489.33547091","4.39532494545","1493.88893104","2.53840208054","1496.42737389","3.46159791946","1499.93954802","1501.59336901","1501.67423081","1504.67719483","1","1504.6912539","1511.15071797",""
"sujeto_4517150c","1","2","7","39","1511.27674484","direct","1","1","2","¿Cuantos pisos tiene la torre 
de las comunicaciones?","26","32","","1","1","0","competitive","left","0.817706108093","1512.09450388","4.18229389191","1516.43401384","3.82638192177","1520.26045394","2.17361807823","1522.46774387","1524.2965169","1524.36873984","1527.37171197","1","1527.38714886","1529.53333402",""
"sujeto_4517150c","1","2","8","40","1529.67125893","inverse","2","1","4","¿En qué país sudamericano 
no hay McDonalds?","Bolivia","Venezuela","","0","0","1","competitive","right","0.736323833466","1530.40766382","4.26367616653","1534.84306288","5.44539785385","1540.28852201","0.554602146149","1540.89478183","1542.20416188","1542.27813387","1545.27872086","0","1545.29598594","1551.65570498",""
"sujeto_4517150c","1","2","9","41","1551.81435704","direct","3","1","1","¿En qué año empieza
 la Edad Media?","476","512","","1","1","1","competitive","left","0.610291957855","1552.424721","4.38970804214","1556.97153687","2.99404001236","1559.96562004","3.00595998764","1563.00554585","1564.40931082","1564.49033403","1567.49328184","1","1567.50760794","1570.4961729",""
"sujeto_4517150c","1","2","10","42","1570.64259696","inverse","3","1","4","¿Hace cuántos años surgió
 el ser humano?","200mil","300mil","","0","0","0","competitive","left","0.738181114197","1571.38085604","4.2618188858","1575.79793","4.65372109413","1580.45171785","1.34627890587","1581.84979391","1583.73466086","1583.81670499","1586.81968188","0","1586.8346169","1590.14509201",""
"sujeto_4517150c","1","2","11","43","1590.28539586","direct","3","1","4","¿Cuántas cuadras tiene
 actualmente 18 de julio? ","36","33","","0","0","1","competitive","left","0.658504009247","1590.94397902","4.34149599075","1595.43950987","4.2702498436","1599.70981789","1.7297501564","1601.49127698","1603.19356298","1603.27583289","1606.2787869","0","1606.29304099","1611.01935196",""
"sujeto_4517150c","1","2","12","44","1611.16059494","inverse","1","1","4","¿Qué juego de equipo se 
considera mas rápido?","Lacrosse","Badminton","","0","0","0","competitive","left","0.686431884766","1611.84708285","4.31356811523","1616.31942892","5.56244587898","1621.88191795","0.437554121017","1622.37023902","1623.61329103","1623.68743491","1626.69040298","0","1626.7045939","1634.69977093",""
"sujeto_4517150c","1","2","13","45","1634.82372499","direct","1","1","3","¿Qué promedio de edad 
vive una jirafa? ","25","20","","0","0","1","competitive","","0.586380004883","1635.41018391","4.41361999512","1639.96459293","6","1645.96473598","0","1645.980129","1647.74160695","1647.81666398","1650.81965995","0","1650.83382392","1656.78950787",""
"sujeto_4517150c","1","2","14","46","1656.93533587","inverse","1","1","2","¿Cuántos grandes lagos hay?","7","5","","0","0","1","competitive","left","0.628804922104","1657.56423497","4.3711950779","1662.12619901","3.93997693062","1666.06621695","2.06002306938","1668.17723203","1669.46937895","1669.56144285","1672.56442094","0","1672.57842898","1680.39980793",""
"sujeto_4517150c","1","2","15","47","1680.54720497","direct","3","1","2","¿Cuántos discos de estudio
 grabó Johhny Cash? ","54","43","","1","1","0","individual","right","0.458134174347","1681.00539494","4.54186582565","1685.702142","3.10506415367","1688.80727291","2.89493584633","1691.75385094","1693.03249383","1693.07246089","1696.07543802","1","1696.09036088","1702.73863983",""
"sujeto_4517150c","1","2","16","48","1702.87432599","inverse","4","1","1","¿Cuántos barrios tiene
 Montevideo? ","71","62","","0","0","1","competitive","right","0.839159965515","1703.71354699","4.16084003448","1708.03182888","3.45151686668","1711.48338604","2.54848313332","1714.08284092","1715.08991504","1715.16712689","1718.17012596","0","1718.18442988","1723.64645004",""
"sujeto_4517150c","1","2","17","49","1723.78571701","direct","3","1","3","¿Qué edad tiene Homero Simpson?","36","42","","0","0","1","individual","left","0.0818071365356","1723.86760592","4.91819286346","1728.94356084","3.5598590374","1732.50346303","2.4401409626","1734.97817683","1736.35422301","1736.39540386","1739.39834499","0","1739.41266298","1743.80139589",""
"sujeto_4517150c","1","2","18","50","1743.93162489","inverse","4","1","2","¿Cuántos países con monarquía 
hay en europa actualmente? ","6","10","","1","1","1","competitive","left","0.723964929581","1744.65566301","4.27603507042","1749.08808088","5.38040304184","1754.46853805","0.61959695816","1755.13945699","1756.57776284","1756.65588784","1759.65887094","1","1759.67412782","1765.83094501",""
"sujeto_4517150c","1","2","19","51","1765.95850086","direct","2","1","3","¿Cuántos capítulos de
 Friends existen? ","236","228","","1","1","1","competitive","left","0.553261995316","1766.51181483","4.44673800468","1771.11477304","4.58191800117","1775.69675899","1.41808199883","1777.16791487","1778.47346497","1778.55135393","1781.55432701","1","1781.56850195","1783.9441309",""
"sujeto_4517150c","1","2","20","52","1784.07009888","inverse","1","1","3","¿Cuántas óperas compuso Mozart? ","27","22","","1","1","1","competitive","right","0.740679979324","1784.81085491","4.25932002068","1789.22540689","5.86931204796","1795.09478283","0.130687952042","1795.27802396","1796.57016492","1796.64484596","1799.64783382","1","1799.66117787","1806.96963286",""
"sujeto_4517150c","1","2","21","53","1807.11235285","direct","4","1","3","¿Cuántos mundiales de fútbol 
femenino ha realizado FIFA? ","9","7","","1","1","1","competitive","right","4.16245102882","1811.27487087","0.837548971176","1812.27121091","3.50166702271","1815.77294183","2.49833297729","1818.32185102","1819.56556296","1819.64024091","1822.64321899","1","1822.65645194","1828.75889397",""
"sujeto_4517150c","1","2","22","54","1828.90901995","inverse","3","1","2","¿Cuál es la temperatura 
media anual en Montevideo? ","17.5","16.3","","0","0","1","competitive","left","0.834980964661","1829.74405384","4.16501903534","1834.08246398","4.58547711372","1838.66801","1.41452288628","1840.13302588","1842.07162786","1842.15030599","1845.15072489","0","1845.16770482","1851.73468399",""
"sujeto_4517150c","1","2","23","55","1851.86925292","direct","2","1","2","¿En qué año se estrenó el
 videojuego The Sims? ","2000","2002","","0","0","0","competitive","right","0.645828962326","1852.51515484","4.35417103767","1857.02648282","4.87861299515","1861.90513897","1.12138700485","1863.06213093","1864.92413497","1864.99599504","1867.99895191","0","1868.01394892","1875.40759802",""
"sujeto_4517150c","1","2","24","56","1875.56932282","inverse","2","1","1","¿Cuál es la canción con 
mas covers? ","Yesterday","Stand by me","","0","0","0","competitive","right","0.691967964172","1876.26137304","4.30803203583","1880.72151303","4.70459294319","1885.42616487","1.29540705681","1886.77331591","1888.17188501","1888.2405529","1891.2435379","0","1891.25784588","1895.42867994",""
"sujeto_4517150c","1","2","25","57","1895.55854988","direct","1","1","4","¿Cuánto duró la guerra
 de los 100 años?","116","123","","0","0","0","competitive","right","0.594817876816","1896.15344787","4.40518212318","1900.71701694","3.78216195107","1904.49921799","2.21783804893","1906.76746702","1908.24826288","1908.31815696","1911.32112598","0","1911.33639693","1913.65471888",""
"sujeto_4517150c","1","2","26","58","1913.80438185","inverse","4","1","4","¿Qué color tiene la  bandera de Brasil?","Amarillo","Naranja","left","0","0","1","competitive","left","0.657011985779","1914.46146894","4.34298801422","1918.95985198","3.64045619965","1922.60034895","2.35954380035","1925.01027393","1926.57681894","1926.66187382","1929.66269398","1","1929.67878604","1932.71153188",""
"sujeto_4517150c","1","2","27","59","1932.84742689","direct","4","1","3","¿Qué carabela de 
Colon no volvió del viaje?","Santa María","La pinta","","0","0","1","competitive","right","0.710119962692","1933.55762482","4.28988003731","1938.01422381","4.70118713379","1942.71545196","1.29881286621","1944.06712294","1945.55823398","1945.63525581","1948.63825798","0","1948.65255189","1950.75067282",""
"sujeto_4517150c","1","2","28","60","1950.88713098","inverse","4","1","4","¿Cuántos huesos tiene
 un adulto humano?","217","206","","0","0","1","competitive","","0.617522001266","1951.50473285","4.38247799873","1956.04555202","6","1962.04567695","0","1962.06040001","1963.33143783","1963.41415501","1966.41713786","0","1966.43132091","1974.26903796",""
"sujeto_4517150c","1","2","29","61","1974.39956498","direct","1","1","1","¿Qué país africano fue 
fundado por esclavos?","Liberia","Chad","","0","0","0","competitive","right","0.687838077545","1975.08745599","4.31216192245","1979.54169893","5.97492599487","1985.51666403","0.025074005127","1985.57713103","1987.56879091","1987.64383197","1990.64679885","0","1990.66191101","1998.6527729",""
"sujeto_4517150c","1","2","30","62","1998.79735804","inverse","4","1","2","¿A cuánto asciende la cima
 del monte Everest?","7.990 mts","8.848 mts","","0","0","1","competitive","left","0.575896024704","1999.37333298","4.4241039753","2003.95482588","5.18059587479","2009.13548994","0.819404125214","2010.006809","2011.19166684","2011.27385783","2014.27683783","0","2014.29093599","2021.47498894",""
"sujeto_4517150c","1","2","31","63","2021.60973287","direct","4","1","1","¿Cuál es el país mas chico?","Sealand","Luxemburgo","","1","1","1","competitive","left","0.611199855804","2022.22101283","4.3888001442","2026.76665902","1.64435315132","2028.41105294","4.35564684868","2032.81804204","2034.68157601","2034.76984191","2037.7728169","1","2037.78787494","2040.91016698",""
"sujeto_4517150c","1","2","32","64","2041.05584598","inverse","2","1","4","¿Cuántas pirámides hay en Egipto?","10000","11000","","1","1","1","competitive","left","0.522719144821","2041.57866287","4.47728085518","2046.21150804","4.61418294907","2050.82573795","1.38581705093","2052.26276398","2053.29636502","2053.38053393","2056.38272095","1","2056.39604902","2061.50274801",""
"sujeto_4517150c","1","3","1","65","2171.60282898","direct","2","1","2","¿Cuál es el quinto país con 
mas extensión?","Canadá","Brasil","","1","1","0","competitive","right","0.569246053696","2172.17213988","4.4307539463","2176.79692197","3.48634910583","2180.28331089","2.51365089417","2182.84877682","2184.182096","2184.26737094","2187.27032495","1","2187.28445482","2195.01082802","2061.51390791"
"sujeto_4517150c","1","3","2","66","2195.15306997","inverse","1","1","2","¿Qué rasgo facial no tiene
 la Mona Lisa?","Cejas","Pómulos","","0","0","1","competitive","right","1.11266899109","2196.26581788","3.88733100891","2200.31160688","5.52228999138","2205.83395791","0.477710008621","2206.34664392","2208.09706283","2208.18062496","2211.1836319","0","2211.19770002","2217.469033",""
"sujeto_4517150c","1","3","3","67","2217.63310003","direct","4","1","3","¿Cuál es el país con 
mayor población?","Esados Unidos","China","right","0","0","1","individual","right","0.1532330513","2217.78638697","4.8467669487","2222.8023479","2.59601902962","2225.39840794","3.40398097038","2228.83691287","2230.48292804","2230.5220809","2233.52505589","1","2233.54025292","2236.90754485",""
"sujeto_4517150c","1","3","4","68","2237.04239988","inverse","1","1","1","La palabra dinosaurio significa","Lagarto Terrible","Lagarto Dragón","","1","1","0","competitive","","0.496398925781","2237.53885198","4.50360107422","2242.21745396","6","2248.21761298","0","2248.23357391","2249.40387392","2249.48632598","2252.48929381","0","2252.50378895","2255.36561489",""
"sujeto_4517150c","1","3","5","69","2255.50519896","direct","2","1","3","¿Qué es el membrillero?","Arbol","Arbusto","","0","0","0","competitive","","0.547031164169","2256.05230498","4.45296883583","2260.66069889","6","2266.66083503","0","2266.67553401","2268.62961984","2268.71306682","2271.71469903","0","2271.73084998","2278.19483995",""
"sujeto_4517150c","1","3","6","70","2278.332587","inverse","3","1","3","¿Alrededor de qué planeta orbita 
el satélite Europa?","Jupiter","Saturno","","1","1","1","competitive","left","1.17303299904","2279.505687","3.82696700096","2283.50596786","5.83079695702","2289.33680391","0.169203042984","2289.55877495","2291.10359001","2291.17536902","2294.1782949","1","2294.19278097","2296.39793897",""
"sujeto_4517150c","1","3","7","71","2296.528162","direct","3","1","1","¿Donde fue el mundial de 
fútbol de 1954?","Suiza","Suecia","","1","1","1","competitive","left","1.06496715546","2297.59318495","3.93503284454","2301.68340397","5.15573716164","2306.83917904","0.844262838364","2307.73494983","2308.98672199","2309.06798697","2312.07097602","1","2312.08526087","2315.99474692",""
"sujeto_4517150c","1","3","8","72","2316.12082386","inverse","1","1","4","¿Cuál de los 7 enanitos
no tenía barba?","Bashful","Mudito","","1","1","0","competitive","right","1.93425893784","2318.05516386","3.06574106216","2321.31011701","5.27249407768","2326.58265305","0.727505922318","2327.34496999","2328.92510986","2328.99505687","2331.99804997","1","2332.01273084","2336.93867993",""
"sujeto_4517150c","1","3","9","73","2337.08220482","direct","3","1","2","¿Cual red social es
mas utilizada mundialmente?","Instagram","Facebook","","1","1","0","competitive","left","0.642804145813","2337.72506499","4.35719585419","2342.23828483","4.13083195686","2346.36918497","1.86916804314","2348.28935194","2350.206738","2350.28991294","2353.29289985","1","2353.30795193","2356.24245286",""
"sujeto_4517150c","1","3","10","74","2356.37637997","inverse","4","1","1","¿Cuándo se inició la copa
 América de fútbol?","1916","1923","","1","1","1","competitive","left","0.655994176865","2357.03242683","4.34400582314","2361.53068399","5.1737511158","2366.70449185","0.826248884201","2367.56509495","2369.46256399","2369.54835391","2372.55135083","1","2372.56666398","2375.22277784",""
"sujeto_4517150c","1","3","11","75","2375.36778688","direct","3","1","4","¿Cuántos presidentes de EEUU
han muerto asesinados?","3","4","","0","0","1","competitive","left","0.625072002411","2375.99294186","4.37492799759","2380.52504992","4.33381891251","2384.85891199","1.66618108749","2386.576159","2388.06010485","2388.14373398","2391.14673185","0","2391.16074991","2394.80484796",""
"sujeto_4517150c","1","3","12","76","2394.96328282","inverse","2","1","4","¿Cuántas veces participó EEUU
 en la copa América?","4","5","","0","0","1","competitive","left","0.603878974915","2395.56724286","4.39612102509","2400.11942983","3.76177597046","2403.881248","2.23822402954","2406.15290093","2407.59702802","2407.67091203","2410.67389989","0","2410.68793988","2416.80511904",""
"sujeto_4517150c","1","3","13","77","2416.93559194","direct","4","1","1","¿Cuál de estos países 
no formaba la URSS?","Azeribayán","Afganistán","","0","0","1","competitive","left","0.62803196907","2417.56370401","4.37196803093","2422.09211183","4.47843599319","2426.57063699","1.52156400681","2428.12845302","2429.44151402","2429.52952981","2432.53251696","0","2432.54682994","2440.52897501",""
"sujeto_4517150c","1","3","14","78","2440.68127894","inverse","1","1","1","¿En qué año se inauguró
 el teatro Solís?","1867","1856","","0","0","0","competitive","right","0.61877989769","2441.30014396","4.38122010231","2445.84143591","3.62562608719","2449.46711993","2.37437391281","2451.87562084","2452.93190885","2453.01060104","2456.013592","0","2456.02803683","2462.67584801",""
"sujeto_4517150c","1","3","15","79","2462.81274891","direct","1","1","4","¿A qué velocidad vuela 
el avión más rápido?","3529","3874","","0","0","0","competitive","left","0.667711019516","2463.480515","4.33228898048","2467.98873591","3.24679303169","2471.23559785","2.75320696831","2474.03837681","2475.79386592","2475.87275887","2478.87573695","0","2478.88907886","2480.99935484",""
"sujeto_4517150c","1","3","16","80","2481.12473297","inverse","3","1","4","¿De qué año es la primer 
película cinematográfica?","1897","1888","","0","0","0","competitive","left","0.494021177292","2481.61880898","4.50597882271","2486.28169203","4.91916799545","2491.20092893","1.08083200455","2492.33351898","2493.46651793","2493.55083704","2496.55379486","0","2496.56803894","2501.97781086",""
"sujeto_4517150c","1","3","17","81","2502.10226583","direct","2","1","3","¿Cuántos países 
tiene nuestro planeta?","191","194","","1","1","1","competitive","left","0.762907028198","2502.86525083","4.2370929718","2507.25837898","1.89678215981","2509.15520191","4.10321784019","2513.29183984","2514.64906502","2514.72766995","2517.73064685","1","2517.74566293","2520.98396897",""
"sujeto_4517150c","1","3","18","82","2521.11347103","inverse","2","1","2","¿Cuántos habitantes
 tiene Buenos Aires?","2.9000.000","3650000","","0","0","0","competitive","left","0.708005905151","2521.82154989","4.29199409485","2526.26966095","5.94583678246","2532.21555781","0.0541632175446","2532.32122087","2533.71847296","2533.78850698","2536.79147291","0","2536.80582404","2542.63467693",""
"sujeto_4517150c","1","3","19","83","2542.80650282","direct","2","1","1","¿Cuántos kilos forman una tonelada?","1000","1500","left","1","1","1","competitive","left","0.506408929825","2543.3129909","4.49359107018","2547.96374393","3.41217088699","2551.37595987","2.58782911301","2553.99807501","2555.88539481","2555.96696281","2558.96989989","1","2558.98326302","2564.940696",""
"sujeto_4517150c","1","3","20","84","2565.08497882","inverse","4","1","4","¿Cuántos estados tiene la 
República del Perú? ","24","23","","0","0","1","competitive","right","1.05928111076","2566.14434195","3.94071888924","2570.24288392","4.64539384842","2574.88831902","1.35460615158","2576.27744985","2577.29964089","2577.37832904","2580.38128591","0","2580.39533591","2585.34062982",""
"sujeto_4517150c","1","3","21","85","2585.47981191","direct","3","1","3","¿En qué año nació Cristóbal Colón? ","1451","1447","","0","0","1","competitive","right","0.578812837601","2586.05868196","4.4211871624","2590.63174391","3.66180300713","2594.29360986","2.33819699287","2596.66767001","2598.51355004","2598.58557892","2601.58671284","0","2601.60299802","2605.83068895",""
"sujeto_4517150c","1","3","22","86","2605.954808","inverse","4","1","4","¿Cuánto mide la 
Montaña Aconcagua? ","6234","6962","","0","0","1","competitive","left","0.665057182312","2606.61991787","4.33494281769","2611.09828281","3.96859502792","2615.0669229","2.03140497208","2617.1489799","2618.43829989","2618.52284193","2621.52583003","0","2621.53384304","2628.71166897",""
"sujeto_4517150c","1","3","23","87","2628.85197496","direct","2","1","4","¿Cuánto mide el punto
 más profundo del océano? ","12508","11003","","0","0","1","competitive","right","0.524252891541","2629.37628293","4.47574710846","2634.01023602","5.4380030632","2639.44830489","0.561996936798","2640.06220293","2641.31371403","2641.39521289","2644.39819098","0","2644.41248989","2648.61877584",""
"sujeto_4517150c","1","3","24","88","2648.74765897","inverse","1","1","3","¿Cuántos álbumes ha publicado 
el cantante Jaime Roos? ","41","34","","0","0","1","competitive","right","0.42888212204","2649.17659283","4.57111787796","2653.90364599","3.21389007568","2657.11758089","2.78610992432","2659.93748498","2661.42733502","2661.50580597","2664.50878191","0","2664.522892","2670.71904492",""
"sujeto_4517150c","1","3","25","89","2670.85841489","direct","4","1","3","¿En qué año nació el 
ex-presidente Jorge Battle? ","1921","1927","","1","1","1","competitive","right","0.871500968933","2671.72997284","4.12849903107","2676.0269289","4.49302887917","2680.51999998","1.50697112083","2682.06367803","2683.79434586","2683.88031602","2686.883286","1","2686.89854884","2690.38461995",""
"sujeto_4517150c","1","3","26","90","2690.51659703","inverse","1","1","3","¿Cuántas presidencias 
constitucionales  hubo en Uruguay? ","41","42","","0","0","1","competitive","right","1.2515130043","2691.76816297","3.7484869957","2695.67561889","5.44165205956","2701.11733294","0.558347940445","2701.71138","2702.91511083","2702.99400091","2705.99695683","0","2706.01136804","2711.79501104",""
"sujeto_4517150c","1","3","27","91","2711.92991304","direct","1","1","2","¿Quién escribió mas sinfonías?","Mozart","Haydn","","1","1","0","competitive","right","0.551665067673","2712.48165989","4.44833493233","2717.08654094","3.16101288795","2720.24759698","2.83898711205","2723.12138796","2724.33887792","2724.42298889","2727.42596102","1","2727.4402349","2731.19162798",""
"sujeto_4517150c","1","3","28","92","2731.32464695","inverse","4","1","2","¿En qué año nació Michael Jackson?","1958","1953","","1","1","1","competitive","left","1.01915407181","2732.34385395","3.98084592819","2736.49733686","1.53349304199","2738.03087091","4.46650695801","2742.5471499","2744.52538085","2744.59982991","2747.60278893","1","2747.61663389","2753.47893095",""
"sujeto_4517150c","1","3","29","93","2753.63518286","direct","3","1","2","¿En qué año entró en vigencia 
la ley antitabaco en Uruguay?","2005","2006","","1","1","1","competitive","right","0.787901878357","2754.4231379","4.21209812164","2758.80811095","5.07903981209","2763.88721585","0.920960187912","2764.85999393","2766.45475602","2766.5269289","2769.52993083","1","2769.54414701","2774.87812495",""
"sujeto_4517150c","1","3","30","94","2775.01215482","inverse","3","1","1","¿Cuándo se subió el 
primer video a youtube?","2004","2005","","0","0","1","competitive","left","0.486283063889","2775.49848986","4.51371693611","2780.17054391","3.9888010025","2784.15938401","2.0111989975","2786.22149301","2787.52669501","2787.60545897","2790.60835385","0","2790.62382388","2798.37634993",""
"sujeto_4517150c","1","3","31","95","2798.50827289","direct","2","1","1","¿Cuántos habitantes tiene India?","1200 millones","1300 millones","","0","0","0","competitive","right","0.535449028015","2799.04379797","4.46455097198","2803.68377399","3.01893997192","2806.70275593","2.98106002808","2809.73391104","2811.70312786","2811.78558898","2814.78670096","0","2814.80298686","2820.84675884",""
"sujeto_4517150c","1","3","32","96","2820.98709702","inverse","4","1","2","¿A qué edad murió Bob Marley?","36","37","","0","0","1","competitive","right","0.640913009644","2821.62807989","4.35908699036","2826.14520383","3.88884496689","2830.03410888","2.11115503311","2832.19615889","2834.09397197","2834.17997384","2837.18299103","0","2837.19806004","2840.30052495",""
"sujeto_4517150c","1","4","1","97","2964.29063487","direct","2","1","1","¿Cuantos años dirigió la selección 
uruguaya Tabarez?","15 años","13 años","","0","0","0","competitive","right","0.684211015701","2964.97489285","4.3157889843","2969.4537859","4.07010984421","2973.52395582","1.92989015579","2975.50517201","2976.69633198","2976.77232003","2979.77472496","0","2979.78982186","2986.86188197","2840.31237292"
"sujeto_4517150c","1","4","2","98","2987.00711703","inverse","4","1","1","¿Cuantas teclas tiene un teclado 
de computadora generalmente? ","Entre 99 y 108","Entre 109 y 113","","1","1","1","competitive","right","1.05310702324","2988.06027794","3.94689297676","2992.18253589","5.48863196373","2997.67120981","0.51136803627","2998.21762896","2999.2203269","2999.30063796","3002.30359292","1","3002.31860089","3004.69006205",""
"sujeto_4517150c","1","4","3","99","3004.81988192","direct","1","1","1","¿Cuál Departamento tiene
 mayor superficie?","Río Negro","Soriano","","0","0","0","competitive","right","0.675570964813","3005.49553704","4.32442903519","3009.97544098","4.35592412949","3014.33140182","1.64407587051","3016.02451086","3017.73789501","3017.80912685","3020.81208491","0","3020.82635593","3025.15242004",""
"sujeto_4517150c","1","4","4","100","3025.29438901","inverse","3","1","2","¿Cuál es el apellido de las 
hermanastras  de  cenicienta?","Tremaine","Truman","","0","0","1","competitive","right","0.422292947769","3025.71673703","4.57770705223","3030.45263386","4.35197401047","3034.80467582","1.64802598953","3036.50382495","3038.3733449","3038.45466685","3041.45760083","0","3041.47191095","3044.16786695",""
"sujeto_4517150c","1","4","5","101","3044.30645895","direct","4","1","4","¿Cuál película ganó un
 Oscar a mejor película?","Alto Impacto","Cache","","0","0","1","competitive","left","0.528465986252","3044.83497596","4.47153401375","3049.46225786","4.03262805939","3053.494946","1.96737194061","3055.5138669","3056.63324904","3056.71410584","3059.71473789","0","3059.73172784","3061.9947269",""
"sujeto_4517150c","1","4","6","102","3062.13315582","inverse","1","1","3","¿A cuántos centímetros
equivale la medida pié?","25","30","","0","0","1","competitive","left","2.05283093452","3064.18603301","2.94716906548","3067.30377793","5.75930094719","3073.06313896","0.240699052811","3073.34055185","3074.38056183","3074.45681095","3077.45872283","0","3077.47288299","3082.87384295",""
"sujeto_4517150c","1","4","7","103","3083.00743985","direct","2","1","2","¿Qué departamento es mas grande?","Cerro Largo","Paysandú","","0","0","0","competitive","left","1.55184602737","3084.55935192","3.44815397263","3088.21616197","3.71407914162","3091.93028283","2.28592085838","3094.26701903","3095.86677194","3095.95148301","3098.95445299","0","3098.96849704","3103.07846189",""
"sujeto_4517150c","1","4","8","104","3103.20400882","inverse","2","1","3","¿Quién pintó la Mona Lisa?","Picasso","Da Vinci","right","0","0","1","competitive","right","0.630594968796","3103.83465886","4.3694050312","3108.36048484","2.19204306602","3110.55258894","3.80795693398","3114.41017795","3116.01605582","3116.09514785","3119.09814191","1","3119.11318398","3121.27467799",""
"sujeto_4517150c","1","4","9","105","3121.41461086","direct","4","1","3","¿Cuántos litros hay en un galon?","3.54","3.78","","1","1","1","competitive","right","0.504172086716","3121.91883683","4.49582791328","3126.56805086","3.03072690964","3129.59884286","2.96927309036","3132.6019299","3134.11975884","3134.2042799","3137.20726991","1","3137.22135282","3143.01373386",""
"sujeto_4517150c","1","4","10","106","3143.13987088","inverse","4","1","1","¿Cuántas teclas tiene
 un piano moderno?","80","88","","0","0","1","competitive","right","0.566179037094","3143.70610595","4.43382096291","3148.29674983","3.23227000237","3151.52907991","2.76772999763","3154.33119392","3155.33966398","3155.41645598","3158.41944695","0","3158.43321586","3165.23099589",""
"sujeto_4517150c","1","4","11","107","3165.40147591","direct","4","1","3","¿Cuántos países hay en África?","54","62","","0","0","1","competitive","left","0.465883016586","3165.86741304","4.53411698341","3170.55953097","5.61473202705","3176.17432499","0.385267972946","3176.59444094","3178.28499103","3178.36093283","3181.36390686","0","3181.37952995","3189.17868781",""
"sujeto_4517150c","1","4","12","108","3189.31419396","inverse","1","1","3","¿En qué siglo se crearon
 las primeras pistolas?","XV","XIII","","1","1","1","competitive","right","0.455445051193","3189.76969695","4.54455494881","3194.47283602","4.21874213219","3198.69163799","1.78125786781","3200.52327991","3202.47119188","3202.55743098","3205.56043482","1","3205.57553887","3208.80861688",""
"sujeto_4517150c","1","4","13","109","3208.94370484","direct","3","1","4","¿En qué año se estrenó 
la serie friends?","1994","1995","","0","0","1","competitive","left","1.07704591751","3210.02082181","3.92295408249","3214.09401393","2.96970391273","3217.0637629","3.03029608727","3220.14531088","3222.02063084","3222.09704995","3225.10003185","0","3225.11428285","3230.12035203",""
"sujeto_4517150c","1","4","14","110","3230.26621199","inverse","3","1","4","¿En qué año nació Hitler?","1889","1887","","0","0","1","competitive","right","0.641805171967","3230.90806985","4.35819482803","3235.42753983","3.90941095352","3239.33701301","2.09058904648","3241.46127987","3242.57566404","3242.645226","3245.64820004","0","3245.66243696","3250.68943",""
"sujeto_4517150c","1","4","15","111","3250.83013797","direct","1","1","4","¿Cuánto pesa un elefante Africano?","6000 kilos","5400 kilos","","0","0","0","competitive","right","0.839910030365","3251.67009401","4.16008996964","3255.98771191","3.53446006775","3259.52221084","2.46553993225","3262.03787303","3263.39378691","3263.47248793","3266.47547388","0","3266.49075699","3273.19780993",""
"sujeto_4517150c","1","4","16","112","3273.34206295","inverse","1","1","2","¿Qué porcentaje de 
la población es zurda?","10%","7%","","1","1","0","competitive","right","0.511459827423","3273.85360384","4.48854017258","3278.49941587","3.95200896263","3282.45149088","2.04799103737","3284.5500989","3285.79319","3285.86866784","3288.871665","1","3288.88578391","3294.86550593",""
"sujeto_4517150c","1","4","17","113","3294.98701382","direct","1","1","2","¿En qué año se estrenó
Volver al futuro?","1984","1985","","0","0","1","competitive","left","0.594722986221","3295.58181381","4.40527701378","3300.13752484","3.67719888687","3303.81478286","2.32280111313","3306.17248583","3307.73424387","3307.8070209","3310.80999994","0","3310.82523584","3317.916677",""
"sujeto_4517150c","1","4","18","114","3318.04599786","inverse","3","1","2","¿Cuántos jugadores hay en un 
equipo de baseball?","9","8","","1","1","0","competitive","left","0.600985050201","3318.64706087","4.3990149498","3323.18972802","5.06824612617","3328.25803804","0.931753873825","3329.24095488","3330.85522199","3330.92476082","3333.92774987","1","3333.94208384","3338.91932487",""
"sujeto_4517150c","1","4","19","115","3339.06066394","direct","2","1","1","¿Cuántos Oscar ganó
 la película titanic?","13","11","","1","1","1","competitive","right","0.594498872757","3339.65521288","4.40550112724","3344.21767783","2.74542999268","3346.96314502","3.25457000732","3350.25054383","3351.55263186","3351.63653302","3354.63951492","1","3354.65287495","3359.25554991",""
"sujeto_4517150c","1","4","20","116","3359.38786387","inverse","4","1","4","¿En qué año comenzó
la segunda guerra mundial?","1939","1976","left","0","0","1","competitive","left","1.37950491905","3360.76742601","3.62049508095","3364.54485989","2.93651795387","3367.48141789","3.06348204613","3370.59511185","3372.39497781","3372.48023081","3375.48272991","1","3375.49897194","3379.48278499",""
"sujeto_4517150c","1","4","21","117","3379.61509395","direct","2","1","4","¿Cuántos biomas hay en Uruguay?","5","4","","0","0","1","competitive","left","0.540539979935","3380.15568495","4.45946002007","3384.76990795","2.77673387527","3387.54670382","3.22326612473","3390.80462193","3392.60194993","3392.67321181","3395.67619205","0","3395.69052887","3401.93994594",""
"sujeto_4517150c","1","4","22","118","3402.07562494","inverse","2","1","3","¿Cuándo murió Pablo Escobar?","1993","1997","","1","1","1","competitive","right","0.691269874573","3402.76694703","4.30873012543","3407.23383284","5.20098495483","3412.43485785","0.799015045166","3413.28535104","3415.06819987","3415.15313196","3418.15611601","1","3418.17038298","3423.87405181",""
"sujeto_4517150c","1","4","23","119","3424.00477195","direct","1","1","4","¿Qué serie ha ganado mas premios?","Friends","Murphy Brown","","1","1","0","competitive","left","0.47530913353","3424.48015594","4.52469086647","3429.16099787","3.86700797081","3433.02806592","2.13299202919","3435.21247888","3436.56490183","3436.64652681","3439.64952493","1","3439.66379189","3445.22541595",""
"sujeto_4517150c","1","4","24","120","3445.34870696","inverse","4","1","2","¿Cuántas fichas tiene el dominó?","26","28","","1","1","1","competitive","left","0.798608064651","3446.1473949","4.20139193535","3450.52329898","4.32792305946","3454.85128093","1.67207694054","3456.55739689","3457.61271691","3457.69138694","3460.69436598","1","3460.70934892","3465.9524529",""
"sujeto_4517150c","1","4","25","121","3466.094033","direct","2","1","4","¿Cuántos son los dientes de leche?","20","25","","0","0","1","competitive","left","0.536509037018","3466.6306119","4.46349096298","3471.25012994","3.27630591393","3474.52649498","2.72369408607","3477.28517199","3478.99472499","3479.06952786","3482.07249284","0","3482.08757496","3484.23331404",""
"sujeto_4517150c","1","4","26","122","3484.372159","inverse","3","1","3","¿Cuántos gramos son una onza?","22","28","","0","0","1","competitive","right","0.712561130524","3485.08477187","4.28743886948","3489.5270009","3.4586288929","3492.9856739","2.5413711071","3495.56006789","3497.55486584","3497.62677503","3500.62968183","0","3500.64396691","3506.93423104",""
"sujeto_4517150c","1","4","27","123","3507.07953787","direct","3","1","1","¿Cuándo salió el primer album
 de los Beatles?","1963","1962","","1","1","1","competitive","left","1.26740193367","3508.34698391","3.73259806633","3512.25556397","4.3423640728","3516.59797096","1.6576359272","3518.28983998","3519.45345092","3519.54215002","3522.54512095","1","3522.55839396","3526.33043599",""
"sujeto_4517150c","1","4","28","124","3526.49307799","inverse","3","1","3","¿Quién fundó la empresa apple?","Carlos Slim","Steve Jobs","","1","1","1","competitive","right","1.01801300049","3527.51116991","3.98198699951","3531.64992404","3.23816013336","3534.88815093","2.76183986664","3537.69999695","3538.81467581","3538.88487291","3541.88671684","1","3541.90165281","3548.19951391",""
"sujeto_4517150c","1","4","29","125","3548.35280704","direct","4","1","2","¿Cuántos municipios hay
 en Montevideo?","8","7","","1","1","1","competitive","right","0.561552047729","3548.91441393","4.43844795227","3553.50563884","2.00766706467","3555.51334786","3.99233293533","3559.55674601","3561.47072291","3561.55851984","3564.56153393","1","3564.57670784","3566.65784788",""
"sujeto_4517150c","1","4","30","126","3566.79525685","inverse","1","1","1","¿Cuántos kilómetros hay
 de Montevideo a Artigas?","632","599","","0","0","0","competitive","left","0.869239091873","3567.66454983","4.13076090813","3571.954144","2.69037294388","3574.64457393","3.30962705612","3578.0039959","3579.48672104","3579.57283282","3582.57581091","0","3582.59007502","3588.64218187",""
"sujeto_4517150c","1","4","31","127","3588.77496481","direct","2","1","2","¿En qué año nació 
Leonardo Da Vinci?","1452","1511","","1","1","0","competitive","left","1.02574014664","3589.80077887","3.97425985336","3593.931674","1.16398906708","3595.09570003","4.83601093292","3599.96444798","3601.81803489","3601.90038681","3604.90269089","1","3604.91775084","3608.06412888",""
"sujeto_4517150c","1","4","32","128","3608.20330787","inverse","3","1","1","¿A qué continente
 pertenece el país Gabón?","Africa","Oceanía","","0","0","1","competitive","right","0.775683879852","3608.97904396","4.22431612015","3613.35907292","4.95985889435","3618.31897283","1.04014110565","3619.393291","3621.20496392","3621.27656293","3624.27952194","0","3624.29453301","3629.53243685",""
