"code","nro_aplicante","nro_bloque","nro_trial_bloque","nro_trial_global","show_game_type","choice_order","rival","pay_individual","pay_competitive","question","answer_left_text","answer_right_text","correct_answer","outcome_individual","outcome_competitive","outcome_rival","game_type","answer","social_time","rt_game_type","feedback_delay","show_question","answer_time","rt_answer_global","feedback_delay_2","show_jitter","jitter_time","show_outcome","outcome_time","outcome_participant_real","show_final_jitter","second_jitter_time","inicio_descanso"
"sujeto_0020974","1","1","1","1","388.262481213","direct","3","1","4","¿Cuántos centímetros corresponden
al talle 36 del calzado?","23","24","","0","0","1","competitive","left","1.2001581192","389.462705135","3.7998418808","393.399600029","3.96202206612","397.361666203","2.03797793388","399.433971167","400.462254047","400.534566164","403.535005093","0","403.55203414","405.71450901",""
"sujeto_0020974","1","1","2","2","405.837342024","inverse","3","1","2","¿Cuántas metros mide la Intendencia
Municipal de Montevideo? ","84","78","","0","0","1","competitive","left","0.879394054413","406.716828108","4.12060594559","411.008411169","4.70418906212","415.712660074","1.29581093788","417.059918165","418.937904119","419.01050806","422.01100111","0","422.028359175","424.121121168",""
"sujeto_0020974","1","1","3","3","424.246469021","direct","1","1","3","¿Cuántas La Pasiva
 hay en uruguay?","15","11","","1","1","1","competitive","right","1.47015309334","425.71666503","3.52984690666","429.385014057","3.94562196732","433.330696106","2.05437803268","435.419046164","437.030723095","437.103562117","440.106522083","1","440.120546103","444.398883104",""
"sujeto_0020974","1","1","4","4","444.522792101","inverse","3","1","3","¿De que color es la camiseta de uruguay?","blanca","celeste","right","1","1","1","competitive","right","1.6839389801","446.206796169","3.3160610199","449.66268611","3.14299488068","452.805726051","2.85700511932","455.696215153","456.900979042","456.980904102","459.983877182","1","459.997934103","463.451843023",""
"sujeto_0020974","1","1","5","5","463.585843086","direct","2","1","1","¿Cuánto metros mide
la torre Eiffel?","333","324","","1","1","1","competitive","right","0.857867002487","464.443788052","4.14213299751","468.738057137","3.31065797806","472.048759222","2.68934202194","474.772543192","476.293926001","476.373843193","479.376824141","1","479.390856028","486.427562237",""
"sujeto_0020974","1","1","6","6","486.579250097","inverse","3","1","4","¿Cuantas ciudades existen
 en todo el uruguay?","63","72","","0","0","1","competitive","left","0.861518859863","487.440839052","4.13848114014","491.73331809","3.56634998322","495.299707174","2.43365001678","497.78502512","498.839858055","498.919322014","501.922310114","0","501.935541153","509.562130213",""
"sujeto_0020974","1","1","7","7","509.69127512","direct","1","1","1","¿Cuantos estados tiene África?","52","54","","1","1","0","competitive","left","0.880455970764","510.571785212","4.11954402924","514.845032215","3.74258995056","518.587663174","2.25741004944","520.88007021","522.744104147","522.814633131","525.817575216","1","525.831807137","531.592823029",""
"sujeto_0020974","1","1","8","8","531.718438148","inverse","4","1","4","¿En qué año nació
 Stephen Hawking?","1952","1942","","0","0","1","competitive","right","1.02429914474","532.742806196","3.97570085526","536.87356019","4.36806416512","541.241686106","1.63193583488","542.924568176","544.368832111","544.441937208","547.443015099","0","547.460109234","553.559493065",""
"sujeto_0020974","1","1","9","9","553.697406054","direct","2","1","3","¿Cuánto años tenía Artigas
 cuando se fue a Paraguay?","56","57","","1","1","1","competitive","left","1.23935008049","554.936825037","3.76064991951","558.831663132","3.77403688431","562.60574317","2.22596311569","564.884483099","566.433959007","566.518698215","569.521686077","1","569.535849094","575.583131075",""
"sujeto_0020974","1","1","10","10","575.720815182","inverse","1","1","2","¿Cuantos milímetros 
mide una hoja A2?","420x592","420x594","","0","0","1","competitive","left","1.01188111305","576.732763052","3.98811888695","580.86285305","4.29084205627","585.153735161","1.70915794373","586.897626162","588.466032028","588.54809618","591.551083088","0","591.565426111","598.639061213",""
"sujeto_0020974","1","1","11","11","598.766491175","direct","3","1","3","¿Cuál es la menor temperatura 
registrada en Uruguay?","-5.4","-7.4","","0","0","1","competitive","left","0.926201105118","599.692738056","4.07379889488","603.941526175","4.95417714119","608.895764112","1.04582285881","609.993330002","611.675007105","611.742876053","614.745817184","0","614.76118803","618.491001129",""
"sujeto_0020974","1","1","12","12","618.629134178","inverse","2","1","2","¿Cuantos años hace que 
se fundó facebook?","18","17","","0","0","0","competitive","right","0.729635000229","619.358818054","4.27036499977","623.78534317","4.04637217522","627.831757069","1.95362782478","629.818941116","631.191611052","631.270090103","634.2710042","0","634.288081169","637.062681198",""
"sujeto_0020974","1","1","13","13","637.188610077","direct","1","1","4","¿Cuál animal es más
 pesado en promedio?","Rinoceronte","Hipopotamo","","0","0","0","competitive","right","1.79503893852","638.983692169","3.20496106148","642.394849062","3.25576686859","645.65065217","2.74423313141","648.445192099","649.524413109","649.596612215","652.599540234","0","652.613604069","656.451002121",""
"sujeto_0020974","1","1","14","14","656.581821203","inverse","1","1","2","¿Qué personaje de dragon ball 
murió más veces?","Chaoz","Krillin","","1","1","0","competitive","right","0.70596909523","657.287861109","4.29403090477","661.720656157","4.16502118111","665.885737181","1.83497881889","667.771756172","669.229559183","669.306374073","672.309370041","1","672.323622227","680.096535206",""
"sujeto_0020974","1","1","15","15","680.225636005","direct","3","1","2","La universidad de oxford. 
existe desde:","1096","1249","","1","1","0","competitive","right","0.748070001602","680.973774195","4.2519299984","685.382917166","4.30180716515","689.684785128","1.69819283485","691.434361219","692.48299408","692.551818132","695.554804087","1","695.569083214","702.259931087",""
"sujeto_0020974","1","1","16","16","702.387595177","inverse","3","1","1","¿Qué escritor latino ganó antes
 el premio nobel?"," García Marquez","Neruda","","0","0","1","competitive","left","0.793081998825","703.180721045","4.20691800117","707.544146061","3.92448401451","711.468699217","2.07551598549","713.596220016","715.336229086","715.413486004","718.415003061","0","718.431066036","721.891030073",""
"sujeto_0020974","1","1","17","17","722.016025066","direct","4","1","3","¿Cuántos dientes tiene un
 tiburón blanco?","6000","3000","","0","0","1","competitive","right","0.835741996765","722.851813078","4.16425800323","727.185538054","3.44303703308","730.628636122","2.55696296692","733.220488071","734.259489059","734.338664055","737.341646194","0","737.355866194","742.165522099",""
"sujeto_0020974","1","1","18","18","742.293067217","inverse","4","1","1","¿Cuánto mide el paralelo Ecuador?","40.000km","70.000km","","0","0","1","competitive","right","0.740664958954","743.033800125","4.25933504105","747.464562178","4.43011403084","751.894736052","1.56988596916","753.499937057","755.455020189","755.53366518","758.536617041","0","758.551909208","762.154503107",""
"sujeto_0020974","1","1","19","19","762.303681135","direct","4","1","2","¿Cuál fue el primer libro 
de Stephen King?","Carrie","The Stand","","1","1","1","competitive","left","0.93405008316","763.237799168","4.06594991684","767.459136009","4.41156101227","771.870766163","1.58843898773","773.492983103","775.237103224","775.310475111","778.313454151","1","778.328491211","782.79904604",""
"sujeto_0020974","1","1","20","20","782.929800034","inverse","2","1","3","¿Qué civilización practicaba
 la momificación?","Grecia","Egipto","right","0","0","1","competitive","right","0.664865016937","783.594730139","4.33513498306","788.100680113","3.66802716255","791.768751144","2.33197283745","794.153565168","796.092824221","796.170839071","799.173795223","1","799.188634157","803.414997101",""
"sujeto_0020974","1","1","21","21","803.558276176","direct","4","1","4","¿Cuántos millones de visitas
 recibe google por minuto?","3.0","4.5","","0","0","1","competitive","right","0.73850107193","804.296858072","4.26149892807","808.730287075","4.02944993973","812.759797096","1.97055006027","814.764057159","816.278951168","816.349027157","819.352017164","0","819.366427183","826.489115238",""
"sujeto_0020974","1","1","22","22","826.62097311","inverse","1","1","3","La máquina de fax. se inventó en:","1843","1960","","0","0","1","competitive","right","1.03975820541","827.660801172","3.96024179459","831.759129047","3.87049102783","835.629678011","2.12950897217","837.809366226","839.051486015","839.127378225","842.130365133","0","842.144822121","845.379023075",""
"sujeto_0020974","1","1","23","23","845.534791231","direct","2","1","4","En la verdadera historia de los
 300 espartanos. habían:","300 soldados","4300 soldados","","1","1","1","competitive","right","1.40792703629","846.942765236","3.59207296371","850.702606201","5.23504495621","855.937712193","0.764955043793","856.753979206","858.015206099","858.087672234","861.090592146","1","861.104512215","864.906278133",""
"sujeto_0020974","1","1","24","24","865.041168213","inverse","1","1","4","¿Cuántos milímetros crece
 el pelo por día?","0.4","0.04","","0","0","0","competitive","left","0.698549985886","865.739793062","4.30145001411","870.208532095","3.52820181847","873.736798048","2.47179818153","876.243911028","878.0045681","878.079601049","881.082525015","0","881.096363068","887.831462145",""
"sujeto_0020974","1","1","25","25","887.964203119","direct","4","1","1","¿Cuánto mide la baldosa gris 
clásica de Montevideo?","22x22 cm.","20x20 cm.","","1","1","1","competitive","right","0.823544025421","888.787851095","4.17645597458","893.140345097","5.02126693726","898.161655188","0.978733062744","899.191603184","901.186866045","901.25924015","904.262229204","1","904.276377201","909.819194078",""
"sujeto_0020974","1","1","26","26","909.947186232","inverse","2","1","2","¿Cuántas películas de rápidos
 y furiosos hay?","10","11","","1","1","0","competitive","left","0.610383987427","910.55770421","4.38961601257","915.101359129","3.14730095863","918.248698235","2.85269904137","921.152379036","922.510357141","922.587405205","925.590393066","1","925.603550196","927.638254166",""
"sujeto_0020974","1","1","27","27","927.772757053","direct","3","1","1","¿Cuántos masters 1000
 ganó Del Potro?","1","2","","1","1","1","competitive","left","1.18191504478","928.954715014","3.81808495522","932.927616119","3.66104006767","936.588723183","2.33895993233","938.961913109","940.716513157","940.796064138","943.79906106","1","943.813129187","951.209488153",""
"sujeto_0020974","1","1","28","28","951.368847132","inverse","2","1","4","¿Cuántos meses dura el 
embarazo de una leona?","3 meses","4 meses","","0","0","1","competitive","right","0.576019048691","951.944990158","4.42398095131","956.537558079","4.52012991905","961.057731152","1.47987008095","962.59038806","963.701469183","963.774611235","966.777562141","0","966.791383028","973.51386714",""
"sujeto_0020974","1","1","29","29","973.646104097","direct","1","1","1","¿En qué año fue creado
 el sandwich?","1762","1653","","1","1","0","competitive","left","0.81868481636","974.464858055","4.18131518364","978.817315102","4.29132580757","983.108696222","1.70867419243","984.852321148","986.450855017","986.51911211","989.522094011","1","989.536269188","993.006916046",""
"sujeto_0020974","1","1","30","30","993.140044212","inverse","4","1","2","El nombre de la moneda de Vietnam es:","Dinar","Dong","","0","0","1","competitive","left","0.690666913986","993.830774069","4.30933308601","998.310287237","4.74648690224","1003.05683613","1.25351309776","1004.34521413","1005.77720714","1005.84660721","1008.84957123","0","1008.8638761","1015.02858806",""
"sujeto_0020974","1","1","31","31","1015.164572","direct","2","1","1","¿cuantos aleteos puede dar 
un colibrí por segundo?","120","50","","0","0","0","competitive","left","0.711107969284","1015.87574315","4.28889203072","1020.33906913","3.89663887024","1024.23577714","2.10336112976","1026.38982701","1028.12220216","1028.20793819","1031.21093011","0","1031.22575212","1035.43803",""
"sujeto_0020974","1","1","32","32","1035.57786918","inverse","4","1","3","¿Qué altura promedio tienen
 los hombres uruguayos?","1.73 m","1.72 m","","1","1","1","competitive","right","0.820876121521","1036.39885306","4.17912387848","1040.76357913","3.56418800354","1044.32783103","2.43581199646","1046.81535411","1048.07778311","1048.15047312","1051.15345311","1","1051.16737318","1055.64331508",""
"sujeto_0020974","1","2","1","33","1208.36966515","direct","1","1","1","¿En qué año nació 
el actor Bradd Pitt?","1967","1963","","1","1","1","competitive","right","0.965098142624","1209.33480716","4.03490185738","1213.52216721","3.82359695435","1217.3458252","2.17640304565","1219.57207012","1220.66703916","1220.74038005","1223.74300003","1","1223.75797606","1229.68554902","1055.65497708"
"sujeto_0020974","1","2","2","34","1229.81212902","inverse","2","1","1","¿Cual es el segundo 
monte más alto?","Kanchenjunga","K2","","1","1","1","competitive","left","0.692666053772","1230.50488615","4.30733394623","1234.96535015","3.09239912033","1238.05779409","2.90760087967","1241.00011015","1242.45251203","1242.53516102","1245.53812218","1","1245.55259705","1248.98248911",""
"sujeto_0020974","1","2","3","35","1249.10306811","direct","3","1","1","¿Cuándo finalizó la construcción
 del Palacio Legislativo?","1925","1917","","0","0","1","competitive","left","0.658715009689","1249.76182914","4.34128499031","1254.27606606","3.57472205162","1257.85085201","2.42527794838","1260.31032515","1261.95103121","1262.02841806","1265.03101611","0","1265.04519105","1270.74270606",""
"sujeto_0020974","1","2","4","36","1270.88296223","inverse","3","1","3","¿Cuántos integrantes tenía
 en su inicio  el cuarteto de nos?","3","4","","1","1","1","competitive","right","0.65087890625","1271.53390718","4.34912109375","1276.05422521","3.63149595261","1279.68579006","2.36850404739","1282.10450411","1283.23758721","1283.32236505","1286.32535005","1","1286.33928108","1291.98909521",""
"sujeto_0020974","1","2","5","37","1292.12495613","direct","2","1","3","¿Qué valor tiene el número pi?","3.14","4.18","left","0","0","1","competitive","left","0.776805877686","1292.9018352","4.22319412231","1297.26308703","3.00568890572","1300.26881719","2.99431109428","1303.31553102","1304.76974607","1304.84959102","1307.85099506","1","1307.86717916","1314.7870121",""
"sujeto_0020974","1","2","6","38","1314.92234612","inverse","2","1","2","¿Cuál es la esperanza de vida
 en Uruguay?","75","77","","1","1","0","competitive","left","0.634459972382","1315.55685401","4.36554002762","1320.09257412","2.74920892715","1322.84182501","3.25079107285","1326.14285207","1327.79666209","1327.87815213","1330.88114119","1","1330.89662623","1337.3596282",""
"sujeto_0020974","1","2","7","39","1337.50202012","direct","1","1","2","¿Cuantos pisos tiene la torre 
de las comunicaciones?","26","32","","1","1","0","competitive","right","0.794699907303","1338.2967701","4.2053000927","1342.6547792","4.47597002983","1347.13081121","1.52402997017","1348.68959808","1350.51834416","1350.59026718","1353.59101605","1","1353.60710311","1355.75330901",""
"sujeto_0020974","1","2","8","40","1355.89355302","inverse","2","1","4","¿En qué país sudamericano 
no hay McDonalds?","Bolivia","Venezuela","","0","0","1","competitive","right","0.690247058868","1356.58386707","4.30975294113","1361.04696703","4.32277607918","1365.369807","1.67722392082","1367.09773111","1368.40693021","1368.48257422","1371.48555517","0","1371.4989872","1377.85869408",""
"sujeto_0020974","1","2","9","41","1377.98294616","direct","3","1","1","¿En qué año empieza
 la Edad Media?","476","512","","1","1","1","competitive","right","0.837779998779","1378.82079506","4.16222000122","1383.1413312","3.99539613724","1387.13678813","2.00460386276","1389.17682004","1390.58055902","1390.66161513","1393.664572","1","1393.67843914","1396.66699314",""
"sujeto_0020974","1","2","10","42","1396.81550312","inverse","3","1","4","¿Hace cuántos años surgió
 el ser humano?","200mil","300mil","","0","0","0","competitive","right","0.736328840256","1397.55191422","4.26367115974","1401.98493123","3.57480096817","1405.55979323","2.42519903183","1408.03575921","1409.92174411","1410.00408912","1413.00700521","0","1413.02186918","1416.33098221",""
"sujeto_0020974","1","2","11","43","1416.45610619","direct","3","1","4","¿Cuántas cuadras tiene
 actualmente 18 de julio? ","36","33","","0","0","1","competitive","right","0.710698127747","1417.16685224","4.28930187225","1421.61185122","4.3117980957","1425.92369008","1.6882019043","1427.64704418","1429.34931517","1429.43110323","1432.43404913","0","1432.44824004","1437.17453909",""
"sujeto_0020974","1","2","12","44","1437.31619906","inverse","1","1","4","¿Qué juego de equipo se 
considera mas rápido?","Lacrosse","Badminton","","0","0","0","competitive","right","0.684581041336","1438.00084805","4.31541895866","1442.4894352","4.53027510643","1447.01977801","1.46972489357","1448.54073715","1449.78384209","1449.85803318","1452.86102009","0","1452.87593818","1460.87098813",""
"sujeto_0020974","1","2","13","45","1461.01498222","direct","1","1","3","¿Qué promedio de edad 
vive una jirafa? ","25","20","","0","0","1","competitive","left","0.714836120605","1461.72986221","4.28516387939","1466.16546607","3.84433197975","1470.0098381","2.15566802025","1472.20145321","1473.9629941","1474.03577113","1477.03872919","0","1477.05380201","1483.00952315",""
"sujeto_0020974","1","2","14","46","1483.13794518","inverse","1","1","2","¿Cuántos grandes lagos hay?","7","5","","0","0","1","competitive","right","0.731813192368","1483.8698101","4.26818680763","1488.2967062","4.15110993385","1492.44785714","1.84889006615","1494.34802413","1495.64014912","1495.7154572","1498.71845222","0","1498.73254514","1506.55392504",""
"sujeto_0020974","1","2","15","47","1506.68396401","direct","3","1","2","¿Cuántos discos de estudio
 grabó Johhny Cash? ","54","43","","1","1","0","competitive","left","0.624848127365","1507.30888224","4.37515187263","1511.84133506","3.54246687889","1515.38386512","2.45753312111","1517.87621903","1519.15486217","1519.2266252","1522.22702312","1","1522.24460816","1528.89103723",""
"sujeto_0020974","1","2","16","48","1529.01248121","inverse","4","1","1","¿Cuántos barrios tiene
 Montevideo? ","71","62","","0","0","1","competitive","right","0.842304944992","1529.85485601","4.15769505501","1534.18647003","3.28033399582","1537.46684718","2.71966600418","1540.22034001","1541.22741413","1541.3050282","1544.30802417","0","1544.32217216","1549.78419709",""
"sujeto_0020974","1","2","17","49","1549.94198203","direct","3","1","3","¿Qué edad tiene Homero Simpson?","36","42","","0","0","1","competitive","right","0.738862037659","1550.68094921","4.26113796234","1555.1133852","3.0463540554","1558.15977812","2.9536459446","1561.14823413","1562.52427602","1562.59959602","1565.6025691","0","1565.61653423","1570.00302911",""
"sujeto_0020974","1","2","18","50","1570.13534617","inverse","4","1","2","¿Cuántos países con monarquía 
hay en europa actualmente? ","6","10","","1","1","1","competitive","left","0.584438085556","1570.71985412","4.41556191444","1575.30470014","3.26703691483","1578.57177711","2.73296308517","1581.35705614","1582.79536223","1582.87471223","1585.87767816","1","1585.89177823","1592.04857421",""
"sujeto_0020974","1","2","19","51","1592.17691803","direct","2","1","3","¿Cuántos capítulos de
 Friends existen? ","236","228","","1","1","1","competitive","left","0.648929834366","1592.82596421","4.35107016563","1597.35286903","4.04785895348","1601.40076804","1.95214104652","1603.40364718","1604.70921707","1604.78782821","1607.79081607","1","1607.80493808","1610.18057203",""
"sujeto_0020974","1","2","20","52","1610.32400608","inverse","1","1","3","¿Cuántas óperas compuso Mozart? ","27","22","","1","1","1","competitive","left","0.67672586441","1611.00077605","4.32327413559","1615.49465704","3.77909207344","1619.27379608","2.22090792656","1621.52880502","1622.82095909","1622.89702702","1625.89998817","1","1625.91408801","1633.22557902",""
"sujeto_0020974","1","2","21","53","1633.34901714","direct","4","1","3","¿Cuántos mundiales de fútbol 
femenino ha realizado FIFA? ","9","7","","1","1","1","competitive","right","0.806787967682","1634.15591311","4.19321203232","1638.521703","4.03806805611","1642.559834","1.96193194389","1644.57430911","1645.81801105","1645.89152813","1648.89451122","1","1648.90958309","1655.01204705",""
"sujeto_0020974","1","2","22","54","1655.14457822","inverse","3","1","2","¿Cuál es la temperatura 
media anual en Montevideo? ","17.5","16.3","","0","0","1","competitive","left","0.75918507576","1655.9038372","4.24081492424","1660.30118108","3.04549098015","1663.34671021","2.95450901985","1666.33556223","1668.27416205","1668.35398602","1671.35697103","0","1671.37112617","1677.94062614",""
"sujeto_0020974","1","2","23","55","1678.07613611","direct","2","1","2","¿En qué año se estrenó el
 videojuego The Sims? ","2000","2002","","0","0","0","competitive","right","0.654610157013","1678.73081517","4.34538984299","1683.2292192","2.84546995163","1686.07475519","3.15453004837","1689.26340604","1691.12543607","1691.19876409","1694.20173812","0","1694.21589303","1701.60954618",""
"sujeto_0020974","1","2","24","56","1701.75463223","inverse","2","1","1","¿Cuál es la canción con 
mas covers? ","Yesterday","Stand by me","","0","0","0","competitive","right","0.585210084915","1702.33992219","4.41478991508","1706.94250011","4.07224702835","1711.01478601","1.92775297165","1712.99327207","1714.39102721","1714.46023512","1717.46322322","0","1717.47870922","1721.64955616",""
"sujeto_0020974","1","2","25","57","1721.81471109","direct","1","1","4","¿Cuánto duró la guerra
 de los 100 años?","116","123","","0","0","0","competitive","left","0.630078792572","1722.44486022","4.36992120743","1726.98555112","3.05718898773","1730.0428071","2.94281101227","1733.03595901","1734.51677704","1734.58743811","1737.590415","0","1737.60553622","1739.92531514",""
"sujeto_0020974","1","2","26","58","1740.10638022","inverse","4","1","4","¿Qué color tiene la  bandera de Brasil?","Amarillo","Naranja","left","0","0","1","competitive","left","0.621349096298","1740.72782516","4.3786509037","1745.27835011","2.83644890785","1748.11487007","3.16355109215","1751.32881021","1752.89534211","1752.98103309","1755.98402715","1","1755.99807119","1759.03084612",""
"sujeto_0020974","1","2","27","59","1759.16602802","direct","4","1","3","¿Qué carabela de 
Colon no volvió del viaje?","Santa María","La pinta","","0","0","1","competitive","right","0.706788063049","1759.87288213","4.29321193695","1764.33865213","5.12116003036","1769.45988417","0.878839969635","1770.39054322","1771.88158321","1771.95665407","1774.95963812","0","1774.97510719","1777.07455015",""
"sujeto_0020974","1","2","28","60","1777.21076918","inverse","4","1","4","¿Cuántos huesos tiene
 un adulto humano?","217","206","","0","0","1","competitive","left","0.64004611969","1777.85086203","4.35995388031","1782.36380005","3.41290593147","1785.77676415","2.58709406853","1788.39781809","1789.66881824","1789.75004601","1792.7529912","0","1792.76682305","1800.60454106",""
"sujeto_0020974","1","2","29","61","1800.73518705","direct","1","1","1","¿Qué país africano fue 
fundado por esclavos?","Liberia","Chad","","0","0","0","competitive","left","0.663572072983","1801.39880514","4.33642792702","1805.8902781","4.41351699829","1810.30385923","1.58648300171","1811.92623711","1813.91785407","1813.99354315","1816.99655914","0","1817.01181412","1824.99898505",""
"sujeto_0020974","1","2","30","62","1825.12993121","inverse","4","1","2","¿A cuánto asciende la cima
 del monte Everest?","7.990 mts","8.848 mts","","0","0","1","competitive","left","0.798866033554","1825.92886019","4.20113396645","1830.28938818","5.05339717865","1835.34282804","0.94660282135","1836.34056211","1837.52539706","1837.60768008","1840.61061907","0","1840.62500501","1847.80900812",""
"sujeto_0020974","1","2","31","63","1847.94327712","direct","4","1","1","¿Cuál es el país mas chico?","Sealand","Luxemburgo","","1","1","1","competitive","right","0.642507791519","1848.58584905","4.35749220848","1853.09998822","4.44280409813","1857.54285502","1.55719590187","1859.13552117","1860.99901009","1861.06903315","1864.07097602","1","1864.08763504","1867.20992613",""
"sujeto_0020974","1","2","32","64","1867.35541701","inverse","2","1","4","¿Cuántas pirámides hay en Egipto?","10000","11000","","1","1","1","competitive","right","0.798850059509","1868.15437913","4.20114994049","1872.52774715","3.45295405388","1875.98074508","2.54704594612","1878.57773805","1879.61131406","1879.67939711","1882.68236423","1","1882.69633508","1887.805408",""
"sujeto_0020974","1","3","1","65","2025.47240305","direct","2","1","2","¿Cuál es el quinto país con 
mas extensión?","Canadá","Brasil","","1","1","0","competitive","right","0.695379018784","2026.16782713","4.30462098122","2030.62261605","3.49819493294","2034.12085223","2.50180506706","2036.67467117","2038.00792909","2038.0755682","2041.07856417","1","2041.09395719","2048.82035422","1887.81643701"
"sujeto_0020974","1","3","2","66","2048.96152806","inverse","1","1","2","¿Qué rasgo facial no tiene
 la Mona Lisa?","Cejas","Pómulos","","0","0","1","competitive","left","0.676321029663","2049.63789511","4.32367897034","2054.12020802","3.76249504089","2057.88276815","2.23750495911","2060.15516615","2061.9055841","2061.98939013","2064.99236512","0","2065.00673509","2071.27806902",""
"sujeto_0020974","1","3","3","67","2071.42594123","direct","4","1","3","¿Cuál es el país con 
mayor población?","Esados Unidos","China","right","0","0","1","competitive","right","0.670891046524","2072.0968852","4.32910895348","2076.61601305","2.22076892853","2078.83684301","3.77923107147","2082.66558409","2084.31098723","2084.38481116","2087.38777208","1","2087.40214419","2090.76947212",""
"sujeto_0020974","1","3","4","68","2090.90485406","inverse","1","1","1","La palabra dinosaurio significa","Lagarto Terrible","Lagarto Dragón","","1","1","0","competitive","right","0.75400185585","2091.65895319","4.24599814415","2096.09219813","4.63553285599","2100.7277751","1.36446714401","2102.14413118","2103.31447315","2103.39444208","2106.39502501","1","2106.41195011","2109.27376413",""
"sujeto_0020974","1","3","5","69","2109.41495109","direct","2","1","3","¿Qué es el membrillero?","Arbol","Arbusto","","0","0","0","competitive","left","0.723960876465","2110.13899302","4.27603912354","2114.565593","2.89323186874","2117.45887208","3.10676813126","2120.60072422","2122.55481815","2122.6364131","2125.63938117","0","2125.65382814","2132.11782122",""
"sujeto_0020974","1","3","6","70","2132.25536609","inverse","3","1","3","¿Alrededor de qué planeta orbita 
el satélite Europa?","Jupiter","Saturno","","1","1","1","competitive","left","0.603413105011","2132.85884404","4.39658689499","2137.43026018","5.16455197334","2142.59488821","0.835448026657","2143.48236609","2145.02715516","2145.09869504","2148.10167503","1","2148.11595511","2150.32113218",""
"sujeto_0020974","1","3","7","71","2150.4511621","direct","3","1","1","¿Donde fue el mundial de 
fútbol de 1954?","Suiza","Suecia","","1","1","1","competitive","left","0.624698162079","2151.07590604","4.37530183792","2155.60636806","5.01336884499","2160.61977816","0.986631155014","2161.65794921","2162.91059208","2162.9914062","2165.99439406","1","2166.00963211","2169.92140222",""
"sujeto_0020974","1","3","8","72","2170.06044102","inverse","1","1","4","¿Cuál de los 7 enanitos
no tenía barba?","Bashful","Mudito","","1","1","0","competitive","right","0.652350902557","2170.71284223","4.34764909744","2175.21353722","4.07526493073","2179.2888701","1.92473506927","2181.24931312","2182.8294611","2182.90085912","2185.9030242","1","2185.91807413","2190.84304023",""
"sujeto_0020974","1","3","9","73","2191.0213182","direct","3","1","2","¿Cual red social es
mas utilizada mundialmente?","Instagram","Facebook","","1","1","0","competitive","left","0.765537977219","2191.78696609","4.23446202278","2196.17725515","2.55465102196","2198.7319541","3.44534897804","2202.22772121","2204.14509201","2204.22942114","2207.23240519","1","2207.24652123","2210.18102503",""
"sujeto_0020974","1","3","10","74","2210.31468821","inverse","4","1","1","¿Cuándo se inició la copa
 América de fútbol?","1916","1923","","1","1","1","competitive","right","0.660127162933","2210.9748621","4.33987283707","2215.46986914","4.41499114037","2219.88493109","1.58500885963","2221.5222702","2223.41968608","2223.50619507","2226.50918412","1","2226.5234971","2229.17963505",""
"sujeto_0020974","1","3","11","75","2229.3250432","direct","3","1","4","¿Cuántos presidentes de EEUU
han muerto asesinados?","3","4","","0","0","1","competitive","left","0.802833080292","2230.12795711","4.19716691971","2234.49644303","3.52230000496","2238.01880813","2.47769999504","2240.54840708","2242.03235912","2242.11608815","2245.11902809","0","2245.13294816","2248.77706623",""
"sujeto_0020974","1","3","12","76","2248.91810608","inverse","2","1","4","¿Cuántas veces participó EEUU
 en la copa América?","4","5","","0","0","1","competitive","left","0.79772901535","2249.715909","4.20227098465","2254.07386923","4.10790610313","2258.181813","1.89209389687","2260.10764503","2261.55170822","2261.62517619","2264.62815809","0","2264.64369607","2270.76087213",""
"sujeto_0020974","1","3","13","77","2270.89781117","direct","4","1","1","¿Cuál de estos países 
no formaba la URSS?","Azeribayán","Afganistán","","0","0","1","competitive","right","0.617063045502","2271.51498222","4.3829369545","2276.05113101","5.45067596436","2281.50187707","0.549324035645","2282.10395622","2283.41694307","2283.48726511","2286.4902451","0","2286.50448322","2294.486624",""
"sujeto_0020974","1","3","14","78","2294.62243223","inverse","1","1","1","¿En qué año se inauguró
 el teatro Solís?","1867","1856","","0","0","0","competitive","left","0.616437911987","2295.23896408","4.38356208801","2299.78096914","4.44589686394","2304.22696424","1.55410313606","2305.83168507","2306.88800621","2306.96595621","2309.9689312","0","2309.98295403","2316.63073802",""
"sujeto_0020974","1","3","15","79","2316.76769423","direct","1","1","4","¿A qué velocidad vuela 
el avión más rápido?","3529","3874","","0","0","0","competitive","left","0.761214971542","2317.52899909","4.23878502846","2321.94161415","4.5492041111","2326.49086523","1.4507958889","2327.99365115","2329.74910903","2329.82807922","2332.83102918","0","2332.84496117","2334.95525122",""
"sujeto_0020974","1","3","16","80","2335.09665704","inverse","3","1","4","¿De qué año es la primer 
película cinematográfica?","1897","1888","","0","0","0","competitive","right","0.670507907867","2335.76723123","4.32949209213","2340.25128722","5.23050498962","2345.48183012","0.769495010376","2346.30261517","2347.43497419","2347.52034116","2350.52301216","0","2350.53724003","2355.94702506",""
"sujeto_0020974","1","3","17","81","2356.08903122","direct","2","1","3","¿Cuántos países 
tiene nuestro planeta?","191","194","","1","1","1","competitive","right","0.738856077194","2356.8279562","4.26114392281","2361.2456131","5.04318094254","2366.28886318","0.956819057465","2367.28032207","2368.63756514","2368.71375918","2371.71670413","1","2371.73191309","2374.97021604",""
"sujeto_0020974","1","3","18","82","2375.11615705","inverse","2","1","2","¿Cuántos habitantes
 tiene Buenos Aires?","2.9000.000","3650000","","0","0","0","competitive","right","0.590685129166","2375.70692706","4.40931487083","2380.30531406","2.69651293755","2383.0018692","3.30348706245","2386.35497904","2387.75223708","2387.82392502","2390.82687306","0","2390.84106517","2396.66697121",""
"sujeto_0020974","1","3","19","83","2396.82936311","direct","2","1","1","¿Cuántos kilos forman una tonelada?","1000","1500","left","1","1","1","competitive","left","0.568859815598","2397.39832807","4.4311401844","2401.9968102","2.86905407906","2404.865906","3.13094592094","2408.04853511","2409.93502212","2410.01758623","2413.01899314","1","2413.03503609","2418.99100018",""
"sujeto_0020974","1","3","20","84","2419.13585901","inverse","4","1","4","¿Cuántos estados tiene la 
República del Perú? ","24","23","","0","0","1","competitive","right","0.599047899246","2419.73502612","4.40095210075","2424.31091022","4.2709031105","2428.5818541","1.7290968895","2430.36258602","2431.38471818","2431.4628582","2434.465837","0","2434.479954","2439.42526221",""
"sujeto_0020974","1","3","21","85","2439.56544018","direct","3","1","3","¿En qué año nació Cristóbal Colón? ","1451","1447","","0","0","1","competitive","left","0.680452108383","2440.24597216","4.31954789162","2444.72127819","4.85561108589","2449.57693315","1.14438891411","2450.77266812","2452.61857104","2452.69076014","2455.69371319","0","2455.70783019","2459.93579602",""
"sujeto_0020974","1","3","22","86","2460.07636523","inverse","4","1","4","¿Cuánto mide la 
Montaña Aconcagua? ","6234","6962","","0","0","1","competitive","left","0.605494976044","2460.6819241","4.39450502396","2465.24880123","2.79796695709","2468.04683423","3.20203304291","2471.2997191","2472.58907104","2472.66793919","2475.67091703","0","2475.68499804","2482.86864114",""
"sujeto_0020974","1","3","23","87","2483.00264812","direct","2","1","4","¿Cuánto mide el punto
 más profundo del océano? ","12508","11003","","0","0","1","competitive","left","0.563194990158","2483.5659132","4.43680500984","2488.15946412","3.29236006737","2491.45189118","2.70763993263","2494.19465017","2495.44615221","2495.52977705","2498.53101516","0","2498.5460341","2502.75101423",""
"sujeto_0020974","1","3","24","88","2502.88182616","inverse","1","1","3","¿Cuántos álbumes ha publicado 
el cantante Jaime Roos? ","41","34","","0","0","1","competitive","left","0.609019994736","2503.49090815","4.39098000526","2508.03780222","3.01898694038","2511.05682611","2.98101305962","2514.08820701","2515.57805514","2515.65627718","2518.65926504","0","2518.67367411","2524.86983013",""
"sujeto_0020974","1","3","25","89","2525.00819612","direct","4","1","3","¿En qué año nació el 
ex-presidente Jorge Battle? ","1921","1927","","1","1","1","competitive","left","0.656139135361","2525.66437912","4.34386086464","2530.18210006","4.62874889374","2534.81090212","1.37125110626","2536.21633315","2537.94699621","2538.01793504","2541.02091002","1","2541.03500223","2544.52105212",""
"sujeto_0020974","1","3","26","90","2544.65345716","inverse","1","1","3","¿Cuántas presidencias 
constitucionales  hubo en Uruguay? ","41","42","","0","0","1","competitive","right","0.635475158691","2545.28900218","4.36452484131","2549.84203005","5.09184193611","2554.93391323","0.908158063889","2555.87691307","2557.08062601","2557.16073918","2560.16369915","0","2560.17858601","2565.96222901",""
"sujeto_0020974","1","3","27","91","2566.09654617","direct","1","1","2","¿Quién escribió mas sinfonías?","Mozart","Haydn","","1","1","0","competitive","left","0.605762004852","2566.7023592","4.39423799515","2571.25086403","3.11500191689","2574.36592913","2.88499808311","2577.30286622","2578.5203681","2578.60453606","2581.60753417","1","2581.62172413","2585.37101316",""
"sujeto_0020974","1","3","28","92","2585.52343416","inverse","4","1","2","¿En qué año nació Michael Jackson?","1958","1953","","1","1","1","competitive","right","0.547512054443","2586.07101417","4.45248794556","2590.69731808","2.89752697945","2593.59490204","3.10247302055","2596.74725819","2598.72550011","2598.79857612","2601.79902816","1","2601.81651402","2607.67882013",""
"sujeto_0020974","1","3","29","93","2607.81802917","direct","3","1","2","¿En qué año entró en vigencia 
la ley antitabaco en Uruguay?","2005","2006","","1","1","1","competitive","right","0.944799184799","2608.76287317","4.0552008152","2612.99165416","4.27920508385","2617.27095103","1.72079491615","2619.04235816","2620.63711905","2620.70989013","2623.71286106","1","2623.72815204","2629.06215501",""
"sujeto_0020974","1","3","30","94","2629.19617105","inverse","3","1","1","¿Cuándo se subió el 
primer video a youtube?","2004","2005","","0","0","1","competitive","left","0.852778911591","2630.04906511","4.14722108841","2634.38626003","3.53150510788","2637.91783023","2.46849489212","2640.43654013","2641.7422092","2641.82157016","2644.82454014","0","2644.83843803","2652.59102416",""
"sujeto_0020974","1","3","31","95","2652.72278309","direct","2","1","1","¿Cuántos habitantes tiene India?","1200 millones","1300 millones","","0","0","0","competitive","left","0.756068944931","2653.47894812","4.24393105507","2657.87994123","3.34593200684","2661.22593808","2.65406799316","2663.93130207","2665.9009161","2665.98292518","2668.98590922","0","2669.0008502","2675.04834509",""
"sujeto_0020974","1","3","32","96","2675.18620706","inverse","4","1","2","¿A qué edad murió Bob Marley?","36","37","","0","0","1","competitive","right","0.671685934067","2675.85796809","4.32831406593","2680.34316111","3.12469601631","2683.46789622","2.87530398369","2686.39370704","2688.29159904","2688.36172819","2691.36302614","0","2691.37808704","2694.48055816",""
"sujeto_0020974","1","4","1","97","2853.76081204","direct","2","1","1","¿Cuantos años dirigió la selección 
uruguaya Tabarez?","15 años","13 años","","0","0","0","competitive","left","0.698096990585","2854.45898724","4.30190300941","2858.93467307","4.46623182297","2863.40097213","1.53376817703","2864.98579812","2866.17695212","2866.253268","2869.25624824","0","2869.27144504","2876.3434701","2694.49216223"
"sujeto_0020974","1","4","2","98","2876.48898005","inverse","4","1","1","¿Cuantas teclas tiene un teclado 
de computadora generalmente? ","Entre 99 y 108","Entre 109 y 113","","1","1","1","competitive","right","0.676960945129","2877.1660521","4.32303905487","2881.6625421","4.70031499863","2886.36294007","1.29968500137","2887.71513224","2888.71789908","2888.79831004","2891.80129409","1","2891.81526113","2894.18668222",""
"sujeto_0020974","1","4","3","99","2894.33567023","direct","1","1","1","¿Cuál Departamento tiene
 mayor superficie?","Río Negro","Soriano","","0","0","0","competitive","left","0.747249126434","2895.08299923","4.25275087357","2899.50580406","4.31898784637","2903.82485604","1.68101215363","2905.55708909","2907.27057505","2907.35749102","2910.35900521","0","2910.37539816","2914.70146513",""
"sujeto_0020974","1","4","4","100","2914.84377122","inverse","3","1","2","¿Cuál es el apellido de las 
hermanastras  de  cenicienta?","Tremaine","Truman","","0","0","1","competitive","left","0.80911898613","2915.65293407","4.19088101387","2920.01571822","4.64112114906","2924.65688014","1.35887885094","2926.05093122","2927.91895103","2928.00189424","2931.00481915","0","2931.01880217","2933.71471405",""
"sujeto_0020974","1","4","5","101","2933.85277009","direct","4","1","4","¿Cuál película ganó un
 Oscar a mejor película?","Alto Impacto","Cache","","0","0","1","competitive","left","0.680162191391","2934.53299809","4.31983780861","2939.00577211","3.78010296822","2942.78593802","2.21989703178","2945.05860806","2946.17794323","2946.26017404","2949.26314402","0","2949.27756405","2951.54219222",""
"sujeto_0020974","1","4","6","102","2951.67842603","inverse","1","1","3","¿A cuántos centímetros
equivale la medida pié?","25","30","","0","0","1","competitive","left","0.562537908554","2952.24107718","4.43746209145","2956.85245323","3.8364610672","2960.68895507","2.1635389328","2962.90276313","2963.94271517","2964.02075124","2967.02372313","0","2967.03815508","2972.43898916",""
"sujeto_0020974","1","4","7","103","2972.57256913","direct","2","1","2","¿Qué departamento es mas grande?","Cerro Largo","Paysandú","","0","0","0","competitive","right","0.60897397995","2973.18161201","4.39102602005","2977.74620318","2.82777500153","2980.57404304","3.17222499847","2983.7796011","2985.37898302","2985.46500707","2988.46801019","0","2988.48228121","2992.59225321",""
"sujeto_0020974","1","4","8","104","2992.73328519","inverse","2","1","3","¿Quién pintó la Mona Lisa?","Picasso","Da Vinci","right","0","0","1","competitive","right","0.582648992538","2993.31600022","4.41735100746","2997.90484715","4.66004490852","3002.56495404","1.33995509148","3003.94023013","3005.54607821","3005.62466717","3008.62765217","1","3008.64278412","3010.80510807",""
"sujeto_0020974","1","4","9","105","3010.94377303","direct","4","1","3","¿Cuántos litros hay en un galon?","3.54","3.78","","1","1","1","competitive","left","0.736166000366","3011.68001103","4.26383399963","3016.09891319","4.08198904991","3020.18096423","1.91801095009","3022.14981723","3023.6676991","3023.7509532","3026.7530632","1","3026.7683301","3032.56070805",""
"sujeto_0020974","1","4","10","106","3032.70659018","inverse","4","1","1","¿Cuántas teclas tiene
 un piano moderno?","80","88","","0","0","1","competitive","left","0.648357152939","3033.35499501","4.35164284706","3037.86053705","5.22544193268","3043.08602524","0.774558067322","3043.89491415","3044.90302801","3044.97829223","3047.97902703","0","3047.99622107","3054.79398608",""
"sujeto_0020974","1","4","11","107","3054.93201518","direct","4","1","3","¿Cuántos países hay en África?","54","62","","0","0","1","competitive","right","0.781944036484","3055.71402907","4.21805596352","3060.10542107","3.19151806831","3063.29700923","2.80848193169","3066.15588403","3067.84644508","3067.92360902","3070.92660403","0","3070.94140506","3078.74617314",""
"sujeto_0020974","1","4","12","108","3078.89282012","inverse","1","1","3","¿En qué siglo se crearon
 las primeras pistolas?","XV","XIII","","1","1","1","competitive","right","0.557151794434","3079.45002723","4.44284820557","3084.04990816","4.23700118065","3088.28698301","1.76299881935","3090.10217524","3092.05003905","3092.1194942","3095.12248111","1","3095.1376121","3098.37071204",""
"sujeto_0020974","1","4","13","109","3098.50497413","direct","3","1","4","¿En qué año se estrenó 
la serie friends?","1994","1995","","0","0","1","competitive","right","0.646926879883","3099.15200615","4.35307312012","3103.67779517","3.10512709618","3106.78298521","2.89487290382","3109.72850418","3111.60378003","3111.67943716","3114.6824162","0","3114.69668603","3119.70272613",""
"sujeto_0020974","1","4","14","110","3119.83151913","inverse","3","1","4","¿En qué año nació Hitler?","1889","1887","","0","0","1","competitive","right","0.583410024643","3120.41500807","4.41658997536","3124.98850203","3.69030189514","3128.67884111","2.30969810486","3131.03927422","3132.15367222","3132.2402091","3135.2429781","0","3135.25832415","3140.28531504",""
"sujeto_0020974","1","4","15","111","3140.45907521","direct","1","1","4","¿Cuánto pesa un elefante Africano?","6000 kilos","5400 kilos","","0","0","0","competitive","left","0.605895042419","3141.06507301","4.39410495758","3145.6485672","3.34836316109","3148.99699306","2.65163683891","3151.69975019","3153.05567217","3153.13439608","3156.13736701","0","3156.15128922","3162.85837102",""
"sujeto_0020974","1","4","16","112","3162.98669219","inverse","1","1","2","¿Qué porcentaje de 
la población es zurda?","10%","7%","","1","1","0","competitive","right","0.59030008316","3163.57704902","4.40969991684","3168.12720013","3.3296380043","3171.45687604","2.6703619957","3174.16024113","3175.40302014","3175.47893405","3178.48187923","1","3178.49585605","3184.47560501",""
"sujeto_0020974","1","4","17","113","3184.61423612","direct","1","1","2","¿En qué año se estrenó
Volver al futuro?","1984","1985","","0","0","1","competitive","right","0.640743970871","3185.25503612","4.35925602913","3189.77169013","4.19118690491","3193.96295404","1.80881309509","3195.80607224","3197.36708808","3197.44060111","3200.44303417","0","3200.45812917","3207.54959106",""
"sujeto_0020974","1","4","18","114","3207.67612219","inverse","3","1","2","¿Cuántos jugadores hay en un 
equipo de baseball?","9","8","","1","1","0","competitive","left","0.540812969208","3208.21698022","4.45918703079","3212.8337841","4.07512688637","3216.90895224","1.92487311363","3218.86812711","3220.48238301","3220.55200815","3223.55495811","1","3223.5694232","3228.54462719",""
"sujeto_0020974","1","4","19","115","3228.67091203","direct","2","1","1","¿Cuántos Oscar ganó
 la película titanic?","13","11","","1","1","1","competitive","left","0.804993867874","3229.47598004","4.19500613213","3233.84462214","2.81126999855","3236.6559341","3.18873000145","3239.87804413","3241.18007612","3241.26292801","3244.26593304","1","3244.27995205","3248.88263822",""
"sujeto_0020974","1","4","20","116","3249.03206515","inverse","4","1","4","¿En qué año comenzó
la segunda guerra mundial?","1939","1976","left","0","0","1","competitive","left","0.855207204819","3249.88732314","4.14479279518","3254.18669105","4.39822292328","3258.58497715","1.60177707672","3260.23899722","3262.03880501","3262.12340307","3265.12639213","1","3265.14035201","3269.12698817",""
"sujeto_0020974","1","4","21","117","3269.2592361","direct","2","1","4","¿Cuántos biomas hay en Uruguay?","5","4","","0","0","1","competitive","left","0.574717998505","3269.834059","4.4252820015","3274.43171","4.59218192101","3279.02393818","1.40781807899","3280.46626711","3282.26364613","3282.33417916","3285.33504605","0","3285.35160518","3291.60103321",""
"sujeto_0020974","1","4","22","118","3291.73730206","inverse","2","1","3","¿Cuándo murió Pablo Escobar?","1993","1997","","1","1","1","competitive","left","0.7946600914","3292.53201413","4.2053399086","3296.89379311","4.57208991051","3301.46592903","1.42791008949","3302.94445419","3304.72729611","3304.8126812","3307.81567812","1","3307.83001924","3313.53371",""
"sujeto_0020974","1","4","23","119","3313.66493821","direct","1","1","4","¿Qué serie ha ganado mas premios?","Friends","Murphy Brown","","1","1","0","competitive","left","0.646955966949","3314.31196213","4.35304403305","3318.82125807","2.653621912","3321.47493219","3.346378088","3324.87168121","3326.22410321","3326.30705523","3329.31002021","1","3329.32394624","3334.88556409",""
"sujeto_0020974","1","4","24","120","3335.02595019","inverse","4","1","2","¿Cuántas fichas tiene el dominó?","26","28","","1","1","1","competitive","right","0.681035041809","3335.70705914","4.31896495819","3340.19763303","3.74527692795","3343.94295406","2.25472307205","3346.2328341","3347.28811407","3347.36762524","3350.37064409","1","3350.38449812","3355.62698722",""
"sujeto_0020974","1","4","25","121","3355.75299501","direct","2","1","4","¿Cuántos son los dientes de leche?","20","25","","0","0","1","competitive","left","0.572427988052","3356.32548904","4.42757201195","3360.89316201","3.54967999458","3364.44293523","2.45032000542","3366.94431305","3368.65469718","3368.72904015","3371.73202419","0","3371.74625516","3373.89096308",""
"sujeto_0020974","1","4","26","122","3374.03210616","inverse","3","1","3","¿Cuántos gramos son una onza?","22","28","","0","0","1","competitive","right","1.77283501625","3375.80500722","3.22716498375","3379.18661308","3.09836101532","3382.28501415","2.90163898468","3385.21949601","3387.21435118","3387.28751421","3390.2904892","0","3390.30592823","3396.5950222",""
"sujeto_0020974","1","4","27","123","3396.756814","direct","3","1","1","¿Cuándo salió el primer album
 de los Beatles?","1963","1962","","1","1","1","competitive","right","0.534142017365","3397.29100609","4.46585798264","3401.91444206","3.29351592064","3405.20800114","2.70648407936","3407.94813323","3409.11173606","3409.18285823","3412.18302822","1","3412.1990912","3415.97111201",""
"sujeto_0020974","1","4","28","124","3416.10055709","inverse","3","1","3","¿Quién fundó la empresa apple?","Carlos Slim","Steve Jobs","","1","1","1","competitive","right","0.904332876205","3417.00494123","4.09566712379","3421.25525212","4.14772891998","3425.40304613","1.85227108002","3427.30779314","3428.42245007","3428.49121404","3431.4942081","1","3431.50828004","3437.80615401",""
"sujeto_0020974","1","4","29","125","3437.9440012","direct","4","1","2","¿Cuántos municipios hay
 en Montevideo?","8","7","","1","1","1","individual","left","0.774959087372","3438.71902704","4.22504091263","3443.10196614","4.12791705132","3447.22992611","1.87208294868","3449.13631415","3451.05107307","3451.08709502","3454.09006619","1","3454.10499001","3456.18613601",""
"sujeto_0020974","1","4","30","126","3456.32323718","inverse","1","1","1","¿Cuántos kilómetros hay
 de Montevideo a Artigas?","632","599","","0","0","0","competitive","left","0.672695159912","3456.99597812","4.32730484009","3461.51108313","3.65287613869","3465.16402221","2.34712386131","3467.56235123","3469.04549313","3469.1136632","3472.11662006","0","3472.13065314","3478.18273807",""
"sujeto_0020974","1","4","31","127","3478.31591105","direct","2","1","2","¿En qué año nació 
Leonardo Da Vinci?","1452","1511","","1","1","0","competitive","left","0.979985952377","3479.29594111","4.02001404762","3483.48985505","4.95406603813","3488.44398403","1.04593396187","3489.54067302","3491.39430213","3491.47511506","3494.47810221","1","3494.49204612","3497.63844919",""
"sujeto_0020974","1","4","32","128","3497.76025105","inverse","3","1","1","¿A qué continente
 pertenece el país Gabón?","Africa","Oceanía","","0","0","1","competitive","left","0.704792022705","3498.46508718","4.29520797729","3502.91603923","4.82085394859","3507.73693705","1.17914605141","3508.96719122","3510.77884007","3510.8519361","3513.85493302","0","3513.86916709","3519.10700321",""
