"code","nro_aplicante","nro_bloque","nro_trial_bloque","nro_trial_global","show_game_type","choice_order","rival","pay_individual","pay_competitive","question","answer_left_text","answer_right_text","correct_answer","outcome_individual","outcome_competitive","outcome_rival","game_type","answer","social_time","rt_game_type","feedback_delay","show_question","answer_time","rt_answer_global","feedback_delay_2","show_jitter","jitter_time","show_outcome","outcome_time","outcome_participant_real","show_final_jitter","second_jitter_time","inicio_descanso"
"sujeto_dccc88fd","1","1","1","1","24.2427577972","direct","3","1","4","¿Cuántos centímetros corresponden
al talle 36 del calzado?","23","24","","0","0","1","competitive","right","3.55924105644","27.8020629883","1.44075894356","29.4140658379","5.97996497154","35.3941078186","0.0200350284576","35.44942379","36.4777219296","36.5491859913","39.552164793","0","39.5659518242","41.728500843",""
"sujeto_dccc88fd","1","1","2","2","41.8848068714","inverse","3","1","2","¿Cuántas metros mide la Intendencia
Municipal de Montevideo? ","84","78","","0","0","1","competitive","left","2.23717403412","44.1220228672","2.76282596588","47.0406248569","5.19247484207","52.2331409454","0.807525157928","53.0740509033","54.9518489838","55.0245189667","58.0274949074","0","58.0420248508","60.1347949505",""
"sujeto_dccc88fd","1","1","3","3","60.2768099308","direct","1","1","3","¿Cuántas La Pasiva
 hay en uruguay?","15","11","","1","1","1","competitive","right","3.3423640728","63.6192448139","1.6576359272","65.4308998585","4.46231102943","69.893255949","1.53768897057","71.4671788216","73.0788588524","73.1511747837","76.1538329124","1","76.1684398651","80.4467818737",""
"sujeto_dccc88fd","1","1","4","4","80.5867698193","inverse","3","1","3","¿De que color es la camiseta de uruguay?","blanca","celeste","right","1","1","1","competitive","right","3.19354200363","83.7803778648","1.80645799637","85.7599329948","2.81942009926","88.5794239044","3.18057990074","91.810461998","93.0151798725","93.0953888893","96.0983378887","1","96.1061418056","99.5600609779",""
"sujeto_dccc88fd","1","1","5","5","99.7078979015","direct","2","1","1","¿Cuánto metros mide
la torre Eiffel?","333","324","","1","1","1","individual","right","2.1515390873","101.859502792","2.8484609127","104.868045807","4.14544200897","109.013556004","1.85455799103","110.904609919","112.425963879","112.471917868","115.474897861","1","115.489151955","122.525852919",""
"sujeto_dccc88fd","1","1","6","6","122.674392939","inverse","3","1","4","¿Cuantas ciudades existen
 en todo el uruguay?","63","72","","0","0","1","competitive","right","2.07920503616","124.753641844","2.92079496384","127.831723928","3.8478372097","131.679605961","2.1521627903","133.883238792","134.937752008","135.01678586","138.019762993","0","138.03430891","145.660813808",""
"sujeto_dccc88fd","1","1","7","7","145.819386959","direct","1","1","1","¿Cuantos estados tiene África?","52","54","","1","1","0","individual","left","1.91135001183","147.730846882","3.08864998817","150.974802971","3.40390706062","154.378748894","2.59609293938","157.026385784","158.89041996","158.927839994","161.930794001","1","161.945261002","167.706287861",""
"sujeto_dccc88fd","1","1","8","8","167.848481894","inverse","4","1","4","¿En qué año nació
 Stephen Hawking?","1952","1942","","0","0","1","competitive","left","2.56836986542","170.416917801","2.43163013458","173.020226955","4.08364915848","177.103920937","1.91635084152","179.073499918","180.517793894","180.590114832","183.593092918","0","183.607778788","189.707144976",""
"sujeto_dccc88fd","1","1","9","9","189.859483957","direct","2","1","3","¿Cuánto años tenía Artigas
 cuando se fue a Paraguay?","56","57","","1","1","1","competitive","right","2.13758206367","191.997111797","2.86241793633","195.0324049","4.22058391571","199.253051996","1.77941608429","201.084306002","202.633828878","202.718580961","205.721583843","1","205.736881018","211.784185886",""
"sujeto_dccc88fd","1","1","10","10","211.920879841","inverse","1","1","2","¿Cuantos milímetros 
mide una hoja A2?","420x592","420x594","","0","0","1","competitive","right","2.56225681305","214.483179808","2.43774318695","217.112135887","5.00406980515","222.116266012","0.995930194855","223.163477898","224.731920958","224.813907862","227.816898823","0","227.831140995","234.904788017",""
"sujeto_dccc88fd","1","1","11","11","235.048749924","direct","3","1","3","¿Cuál es la menor temperatura 
registrada en Uruguay?","-5.4","-7.4","","0","0","1","competitive","left","1.78350782394","236.832327843","3.21649217606","240.222954988","4.66836190224","244.891383886","1.33163809776","246.272461891","247.953785896","248.039254904","251.042210817","0","251.05674386","254.790041924",""
"sujeto_dccc88fd","1","1","12","12","254.942451","inverse","2","1","2","¿Cuantos años hace que 
se fundó facebook?","18","17","","0","0","0","competitive","left","3.05299901962","257.995493889","1.94700098038","260.100391865","3.70506882668","263.805523872","2.29493117332","266.151313782","267.524060011","267.602962971","270.605953932","0","270.620653868","273.395344973",""
"sujeto_dccc88fd","1","1","13","13","273.540103912","direct","1","1","4","¿Cuál animal es más
 pesado en promedio?","Rinoceronte","Hipopotamo","","0","0","0","competitive","left","1.92449784279","275.464742899","3.07550215721","278.727163792","5.12046790123","283.8476789","0.87953209877","284.828704834","285.907955885","285.978855848","288.981833935","0","288.995914936","292.836927891",""
"sujeto_dccc88fd","1","1","14","14","292.997555017","inverse","1","1","2","¿Qué personaje de dragon ball 
murió más veces?","Chaoz","Krillin","","1","1","0","competitive","right","3.08614802361","296.083759785","1.91385197639","298.165589809","5.98505091667","304.150733948","0.0149490833282","304.222012997","305.679844856","305.75532794","308.758308887","1","308.772868872","316.545799017",""
"sujeto_dccc88fd","1","1","15","15","316.690462828","direct","3","1","2","La universidad de oxford. 
existe desde:","1096","1249","","1","1","0","competitive","left","2.22142505646","318.911950827","2.77857494354","321.849015951","4.28189611435","326.130972862","1.71810388565","327.90089798","328.949703932","329.035331011","332.038321972","1","332.052032948","338.742856979",""
"sujeto_dccc88fd","1","1","16","16","338.888148785","inverse","3","1","1","¿Qué escritor latino ganó antes
 el premio nobel?"," García Marquez","Neruda","","0","0","1","individual","left","2.36980605125","341.258019924","2.63019394875","344.059475899","4.32460284233","348.384118795","1.67539715767","350.112298965","351.852304935","351.896262884","354.899233818","0","354.913949966","358.37446785",""
"sujeto_dccc88fd","1","1","17","17","358.515719891","direct","4","1","3","¿Cuántos dientes tiene un
 tiburón blanco?","6000","3000","","0","0","1","competitive","right","1.84035301208","360.356115818","3.15964698792","363.70498085","3.75712609291","367.462168932","2.24287390709","369.756098986","370.795048952","370.873341799","373.876329899","0","373.890599966","378.700277805",""
"sujeto_dccc88fd","1","1","18","18","378.842108011","inverse","4","1","1","¿Cuánto mide el paralelo Ecuador?","40.000km","70.000km","","0","0","1","individual","left","1.28756308556","380.129774809","3.71243691444","383.998147011","3.85409808159","387.852285862","2.14590191841","390.047300816","392.003419876","392.048034906","395.051018","0","395.066531897","398.669118881",""
"sujeto_dccc88fd","1","1","19","19","398.816643","direct","4","1","2","¿Cuál fue el primer libro 
de Stephen King?","Carrie","The Stand","","1","1","1","competitive","right","2.61278915405","401.429497004","2.38721084595","403.975999832","4.31646895409","408.292531013","1.68353104591","410.027432919","411.77154398","411.844314814","414.847291946","1","414.86190486","419.336318016",""
"sujeto_dccc88fd","1","1","20","20","419.480475903","inverse","2","1","3","¿Qué civilización practicaba
 la momificación?","Grecia","Egipto","right","0","0","1","competitive","right","2.59806680679","422.078588009","2.40193319321","424.651011944","3.22160816193","427.872698784","2.77839183807","430.704221964","432.643483877","432.721614838","435.724542856","1","435.738911867","439.967657804",""
"sujeto_dccc88fd","1","1","21","21","440.124553919","direct","4","1","4","¿Cuántos millones de visitas
 recibe google por minuto?","3.0","4.5","","0","0","1","competitive","right","1.07323598862","441.197863817","3.92676401138","445.29587698","4.22783708572","449.523751974","1.77216291428","451.331596851","452.846487999","452.931806803","455.934800863","0","455.950042963","463.072722912",""
"sujeto_dccc88fd","1","1","22","22","463.200895786","inverse","1","1","3","La máquina de fax. se inventó en:","1843","1960","","0","0","1","competitive","right","1.81893396378","465.019893885","3.18106603622","468.37477994","4.32605004311","472.700889826","1.67394995689","474.41027689","475.652383804","475.744455814","478.747430801","0","478.762151957","481.997773886",""
"sujeto_dccc88fd","1","1","23","23","482.129365921","direct","2","1","4","En la verdadera historia de los
 300 espartanos. habían:","300 soldados","4300 soldados","","1","1","1","competitive","right","0.913638830185","483.043083906","4.08636116982","487.30171895","4.20328116417","491.505042791","1.79671883583","493.353557825","494.613771915","494.687722921","497.690718889","1","497.704404831","501.506167889",""
"sujeto_dccc88fd","1","1","24","24","501.639208794","inverse","1","1","4","¿Cuántos milímetros crece
 el pelo por día?","0.4","0.04","","0","0","0","competitive","right","1.06788396835","502.70717001","3.93211603165","506.811934948","3.94222998619","510.754203796","2.05777001381","512.845950842","514.606683969","514.681011915","517.684000969","0","517.698527813","524.433640957",""
"sujeto_dccc88fd","1","1","25","25","524.583170891","direct","4","1","1","¿Cuánto mide la baldosa gris 
clásica de Montevideo?","22x22 cm.","20x20 cm.","","1","1","1","individual","left","1.12912082672","525.712361813","3.87087917328","529.740692854","5.00359201431","534.744323969","0.996407985687","535.792137861","537.787401915","537.826044798","540.829024792","1","540.844236851","546.387022018",""
"sujeto_dccc88fd","1","1","26","26","546.528414011","inverse","2","1","2","¿Cuántas películas de rápidos
 y furiosos hay?","10","11","","1","1","0","competitive","right","3.64899396896","550.177452803","1.35100603104","551.701098919","4.08437204361","555.785511017","1.91562795639","557.752023935","559.11004591","559.186473846","562.189430952","1","562.204033852","564.238736868",""
"sujeto_dccc88fd","1","1","27","27","564.371870995","direct","3","1","1","¿Cuántos masters 1000
 ganó Del Potro?","1","2","","1","1","1","individual","right","1.56769013405","565.939635992","3.43230986595","569.528512001","3.68005800247","573.208629847","2.31994199753","575.561870813","577.316459894","577.362939835","580.365867853","1","580.380980015","587.777345896",""
"sujeto_dccc88fd","1","1","28","28","587.915910959","inverse","2","1","4","¿Cuántos meses dura el 
embarazo de una leona?","3 meses","4 meses","","0","0","1","competitive","right","0.926820993423","588.842777967","4.07317900658","593.073341846","5.10043406487","598.173817873","0.899565935135","599.125294924","600.236377954","600.309126854","603.312109947","0","603.326304913","610.048779011",""
"sujeto_dccc88fd","1","1","29","29","610.194833994","direct","1","1","1","¿En qué año fue creado
 el sandwich?","1762","1653","","1","1","0","individual","right","0.940046072006","611.134930849","4.05995392799","615.351256847","2.72761797905","618.078934908","3.27238202095","621.385526896","622.984058857","623.021153927","626.024087906","1","626.038309813","629.508882999",""
"sujeto_dccc88fd","1","1","30","30","629.657073975","inverse","4","1","2","El nombre de la moneda de Vietnam es:","Dinar","Dong","","0","0","1","","","","","","","","","","","","","","","634.679793835","640.84821701",""
"sujeto_dccc88fd","1","1","31","31","640.994720936","direct","2","1","1","¿cuantos aleteos puede dar 
un colibrí por segundo?","120","50","","0","0","0","competitive","left","3.10732102394","644.102104902","1.89267897606","646.134163857","3.9858880043","650.120092869","2.0141119957","652.186616898","653.918751001","654.004168987","657.007073879","0","657.021248817","661.233501911",""
"sujeto_dccc88fd","1","1","32","32","661.373462915","inverse","4","1","3","¿Qué altura promedio tienen
 los hombres uruguayos?","1.73 m","1.72 m","","1","1","1","competitive","right","1.3837249279","662.757231951","3.6162750721","666.529033899","4.41018390656","670.939258814","1.58981609344","672.578569889","673.841018915","673.912194014","676.91513896","1","676.929884911","681.40583086",""
"sujeto_dccc88fd","1","2","1","33","824.223536968","direct","1","1","1","¿En qué año nació 
el actor Bradd Pitt?","1967","1963","","1","1","1","competitive","right","2.48279809952","826.706398964","2.51720190048","829.39418292","3.22312879562","832.617383957","2.77687120438","835.448487997","836.544341803","836.616233826","839.61924386","1","839.633807898","845.561350822","681.420934916"
"sujeto_dccc88fd","1","2","2","34","845.700915813","inverse","2","1","1","¿Cual es el segundo 
monte más alto?","Kanchenjunga","K2","","1","1","1","individual","right","3.21856999397","848.919535875","1.78143000603","850.874558926","4.19092798233","855.06552887","1.80907201767","856.926436901","858.378868818","858.427903891","861.430881977","1","861.44429183","864.874183893",""
"sujeto_dccc88fd","1","2","3","35","865.029864788","direct","3","1","1","¿Cuándo finalizó la construcción
 del Palacio Legislativo?","1925","1917","","0","0","1","individual","left","1.6851849556","866.715094805","3.3148150444","870.21901679","3.96856808662","874.187626839","2.03143191338","876.26995182","877.911645889","877.954213858","880.957180977","0","880.971800804","886.669366837",""
"sujeto_dccc88fd","1","2","4","36","886.806515932","inverse","3","1","3","¿Cuántos integrantes tenía
 en su inicio  el cuarteto de nos?","3","4","","1","1","1","competitive","left","1.08438110352","887.890942812","3.91561889648","891.980362892","3.20762586594","895.188047886","2.79237413406","898.030038834","899.163136005","899.248464823","902.251452923","1","902.265530825","907.915358782",""
"sujeto_dccc88fd","1","2","5","37","908.050822973","direct","2","1","3","¿Qué valor tiene el número pi?","3.14","4.18","left","0","0","1","competitive","left","3.10562610626","911.15651083","1.89437389374","913.207957983","2.99061799049","916.198621988","3.00938200951","919.259366989","920.713567972","920.794245005","923.79723382","1","923.811798811","930.732777834",""
"sujeto_dccc88fd","1","2","6","38","930.879385948","inverse","2","1","2","¿Cuál es la esperanza de vida
 en Uruguay?","75","77","","1","1","0","competitive","right","1.59755897522","932.477010012","3.40244102478","936.037306786","3.00469994545","939.042059898","2.99530005455","942.087162018","943.740988016","943.823060989","946.82606101","1","946.839514971","953.302538872",""
"sujeto_dccc88fd","1","2","7","39","953.441034794","direct","1","1","2","¿Cuantos pisos tiene la torre 
de las comunicaciones?","26","32","","1","1","0","competitive","right","2.73646092415","956.17757082","2.26353907585","958.614820957","4.36680102348","962.981663942","1.63319897652","964.667571783","966.496389866","966.567885876","969.570829868","1","969.586084843","971.732297897",""
"sujeto_dccc88fd","1","2","8","40","971.871032953","inverse","2","1","4","¿En qué país sudamericano 
no hay McDonalds?","Bolivia","Venezuela","","0","0","1","competitive","right","2.8380420208","974.709148884","2.1619579792","977.040442944","5.0555741787","982.096076965","0.944425821304","983.091442823","984.400823832","984.475394964","987.478353977","0","987.492305994","993.852064848",""
"sujeto_dccc88fd","1","2","9","41","993.996543884","direct","3","1","1","¿En qué año empieza
 la Edad Media?","476","512","","1","1","1","individual","left","4.30793380737","998.304544926","0.692066192627","999.137187004","3.27835798264","1002.41558695","2.72164201736","1005.18839693","1006.59217882","1006.63964486","1009.64257097","1","1009.65723801","1012.64579296",""
"sujeto_dccc88fd","1","2","10","42","1012.79272294","inverse","3","1","4","¿Hace cuántos años surgió
 el ser humano?","200mil","300mil","","0","0","0","competitive","right","1.12034916878","1013.9131279","3.87965083122","1017.94763994","5.96439194679","1023.91207194","0.0356080532074","1023.99892092","1025.88492084","1025.96640682","1028.96939087","0","1028.98351789","1032.2939949",""
"sujeto_dccc88fd","1","2","11","43","1032.45215201","direct","3","1","4","¿Cuántas cuadras tiene
 actualmente 18 de julio? ","36","33","","0","0","1","competitive","right","1.08016204834","1033.53238392","3.91983795166","1037.60519886","3.46719288826","1041.0724318","2.53280711174","1043.65741181","1045.35971189","1045.44233489","1048.445333","0","1048.45956182","1053.18579698",""
"sujeto_dccc88fd","1","2","12","44","1053.32840395","inverse","1","1","4","¿Qué juego de equipo se 
considera mas rápido?","Lacrosse","Badminton","","0","0","0","competitive","left","1.01525211334","1054.34373498","3.98474788666","1058.48631597","5.06256818771","1063.54892492","0.937431812286","1064.5370748","1065.77975988","1065.85497189","1068.85797095","0","1068.87252092","1076.86770201",""
"sujeto_dccc88fd","1","2","13","45","1077.00702286","direct","1","1","3","¿Qué promedio de edad 
vive una jirafa? ","25","20","","0","0","1","competitive","left","1.44517183304","1078.45223999","3.55482816696","1082.16531086","5.09495401382","1087.26030183","0.905045986176","1088.19938588","1089.96085691","1090.03393984","1093.03687692","0","1093.05149889","1099.0072329",""
"sujeto_dccc88fd","1","2","14","46","1099.13592601","inverse","1","1","2","¿Cuántos grandes lagos hay?","7","5","","0","0","1","competitive","right","3.82670712471","1102.96273184","1.17329287529","1104.29393601","4.72884106636","1109.02283978","1.27115893364","1110.32885695","1111.62101483","1111.69622779","1114.69920683","0","1114.70812798","1122.52949691",""
"sujeto_dccc88fd","1","2","15","47","1122.67603993","direct","3","1","2","¿Cuántos discos de estudio
 grabó Johhny Cash? ","54","43","","1","1","0","individual","left","2.84404206276","1125.52015686","2.15595793724","1127.83861685","4.77263498306","1132.61131382","1.22736501694","1133.89162993","1135.17027187","1135.20890093","1138.21188188","1","1138.22607183","1144.87698483",""
"sujeto_dccc88fd","1","2","16","48","1145.02712297","inverse","4","1","1","¿Cuántos barrios tiene
 Montevideo? ","71","62","","0","0","1","individual","left","1.23639011383","1146.26355791","3.76360988617","1150.18457079","5.034044981","1155.21865892","0.965955018997","1156.23622584","1157.24330783","1157.28599286","1160.28897095","0","1160.30320692","1165.76523399",""
"sujeto_dccc88fd","1","2","17","49","1165.90535784","direct","3","1","3","¿Qué edad tiene Homero Simpson?","36","42","","0","0","1","individual","right","0.580545902252","1166.48597479","4.41945409775","1171.07962584","2.55832600594","1173.63801384","3.44167399406","1177.129848","1178.50589299","1178.54820681","1181.55114198","0","1181.5657289","1185.95444393",""
"sujeto_dccc88fd","1","2","18","50","1186.10065889","inverse","4","1","2","¿Cuántos países con monarquía 
hay en europa actualmente? ","6","10","","1","1","1","competitive","left","3.20261788368","1189.30334496","1.79738211632","1191.2894609","4.67689085007","1195.96641588","1.32310914993","1197.32576489","1198.76407695","1198.84277487","1201.84483194","1","1201.86041784","1208.01718497",""
"sujeto_dccc88fd","1","2","19","51","1208.16153288","direct","2","1","3","¿Cuántos capítulos de
 Friends existen? ","236","228","","1","1","1","competitive","right","1.69212603569","1209.85376382","3.30787396431","1213.31911182","4.06659984589","1217.38574886","1.93340015411","1219.36935687","1220.6749289","1220.75400281","1223.7569859","1","1223.77122498","1226.14681196",""
"sujeto_dccc88fd","1","2","20","52","1226.28971791","inverse","1","1","3","¿Cuántas óperas compuso Mozart? ","27","22","","1","1","1","competitive","right","2.12227797508","1228.41206098","2.87772202492","1231.44570398","4.0533850193","1235.49915695","1.9466149807","1237.49351382","1238.78568602","1238.86094785","1241.86396384","1","1241.87842178","1249.18989682",""
"sujeto_dccc88fd","1","2","21","53","1249.34658194","direct","4","1","3","¿Cuántos mundiales de fútbol 
femenino ha realizado FIFA? ","9","7","","1","1","1","competitive","right","2.17981481552","1251.526443","2.82018518448","1254.50733185","4.37413191795","1258.8815248","1.62586808205","1260.55847192","1261.80218387","1261.87628293","1264.87928486","1","1264.8939569","1270.99643898",""
"sujeto_dccc88fd","1","2","22","54","1271.14481688","inverse","3","1","2","¿Cuál es la temperatura 
media anual en Montevideo? ","17.5","16.3","","0","0","1","competitive","left","1.99294900894","1273.13783097","3.00705099106","1276.30230498","5.14856100082","1281.45092583","0.851438999176","1282.354002","1284.29260778","1284.37091398","1287.37386394","0","1287.38928699","1293.95882583",""
"sujeto_dccc88fd","1","2","23","55","1294.10601687","direct","2","1","2","¿En qué año se estrenó el
 videojuego The Sims? ","2000","2002","","0","0","0","competitive","left","1.9331638813","1296.03928089","3.0668361187","1299.29651499","4.04170894623","1303.33828497","1.95829105377","1305.33224583","1307.19426179","1307.2663548","1310.26932693","0","1310.28457284","1317.67823982",""
"sujeto_dccc88fd","1","2","24","56","1317.81920385","inverse","2","1","1","¿Cuál es la canción con 
mas covers? ","Yesterday","Stand by me","","0","0","0","competitive","left","1.66830301285","1319.48754978","3.33169698715","1322.96066594","4.0948741436","1327.0555799","1.9051258564","1329.01173401","1330.41030979","1330.49505687","1333.49800086","0","1333.51330495","1337.68412995",""
"sujeto_dccc88fd","1","2","25","57","1337.83082986","direct","1","1","4","¿Cuánto duró la guerra
 de los 100 años?","116","123","","0","0","0","competitive","left","2.0160369873","1339.84691191","2.9839630127","1343.00460291","4.80034613609","1347.8050158","1.19965386391","1349.05358291","1350.53440595","1350.6209228","1353.62389493","0","1353.63941288","1355.959203",""
"sujeto_dccc88fd","1","2","26","58","1356.10628295","inverse","4","1","4","¿Qué color tiene la  bandera de Brasil?","Amarillo","Naranja","left","0","0","1","competitive","left","1.0394051075","1357.14575601","3.9605948925","1361.26336384","4.05982685089","1365.32325792","1.94017314911","1367.29857183","1368.86509085","1368.94928479","1371.95224094","1","1371.96699595","1374.99979782",""
"sujeto_dccc88fd","1","2","27","59","1375.15101886","direct","4","1","3","¿Qué carabela de 
Colon no volvió del viaje?","Santa María","La pinta","","0","0","1","competitive","left","1.15541386604","1376.30648589","3.84458613396","1380.33860493","4.80594086647","1385.14460897","1.19405913353","1386.39180493","1387.88287187","1387.95845389","1390.96142292","0","1390.97663879","1393.07612681",""
"sujeto_dccc88fd","1","2","28","60","1393.22855592","inverse","4","1","4","¿Cuántos huesos tiene
 un adulto humano?","217","206","","0","0","1","competitive","right","1.06709384918","1394.29575086","3.93290615082","1398.38332295","2.6904900074","1401.07387495","3.3095099926","1404.43425894","1405.7052989","1405.7858119","1408.78878498","0","1408.80338287","1416.64108992",""
"sujeto_dccc88fd","1","2","29","61","1416.97126698","direct","1","1","1","¿Qué país africano fue 
fundado por esclavos?","Liberia","Chad","","0","0","0","competitive","right","2.1066930294","1419.07799888","2.8933069706","1422.16143584","4.94366908073","1427.10514879","1.05633091927","1428.19804382","1430.1897068","1430.2648809","1433.26786995","0","1433.28293896","1441.27379799",""
"sujeto_dccc88fd","1","2","30","62","1441.41698694","inverse","4","1","2","¿A cuánto asciende la cima
 del monte Everest?","7.990 mts","8.848 mts","","0","0","1","competitive","left","1.30044913292","1442.71750998","3.69955086708","1446.59166694","3.22483301163","1449.81655788","2.77516698837","1452.642313","1453.82716584","1453.9102478","1456.91324902","0","1456.928298","1464.1080339",""
"sujeto_dccc88fd","1","2","31","63","1464.26332283","direct","4","1","1","¿Cuál es el país mas chico?","Sealand","Luxemburgo","","1","1","1","individual","right","2.57938599586","1466.84276199","2.42061400414","1469.42181587","4.72198987007","1474.14386582","1.27801012993","1475.47231793","1477.33582592","1477.37371898","1480.3767128","1","1480.39107394","1483.51337385",""
"sujeto_dccc88fd","1","2","32","64","1483.64207101","inverse","2","1","4","¿Cuántas pirámides hay en Egipto?","10000","11000","","1","1","1","competitive","left","1.52293205261","1485.165066","3.47706794739","1488.77974582","4.1393289566","1492.91911578","1.8606710434","1494.83062387","1495.86422181","1495.94877481","1498.95176888","1","1498.96529388","1504.07436895",""
"sujeto_dccc88fd","1","3","1","65","1608.14918685","direct","2","1","2","¿Cuál es el quinto país con 
mas extensión?","Canadá","Brasil","","1","1","0","competitive","left","2.35548305511","1610.50474691","2.64451694489","1613.31209302","4.72767591476","1618.03982592","1.27232408524","1619.3487339","1620.68202996","1620.7662468","1623.7692368","1","1623.78355193","1631.50989199","1504.08941889"
"sujeto_dccc88fd","1","3","2","66","1631.65178585","inverse","1","1","2","¿Qué rasgo facial no tiene
 la Mona Lisa?","Cejas","Pómulos","","0","0","1","competitive","left","3.19529700279","1634.84712791","1.80470299721","1636.80835891","5.07176494598","1641.88016987","0.928235054016","1642.86145186","1644.61186981","1644.6950078","1647.69800496","0","1647.71321297","1653.98454285",""
"sujeto_dccc88fd","1","3","3","67","1654.13353682","direct","4","1","3","¿Cuál es el país con 
mayor población?","Esados Unidos","China","right","0","0","1","competitive","right","1.59476709366","1655.72834897","3.40523290634","1659.28811479","2.82529091835","1662.11346698","3.17470908165","1665.33694601","1666.98294091","1667.05446196","1670.05739284","1","1670.07213092","1673.43942499",""
"sujeto_dccc88fd","1","3","4","68","1673.590734","inverse","1","1","1","La palabra dinosaurio significa","Lagarto Terrible","Lagarto Dragón","","1","1","0","individual","","1.91582393646","1675.50660491","3.08417606354","1678.78228784","6","1684.78244996","0","1684.79770184","1685.96779394","1686.01701784","1689.01999092","0","1689.03465796","1691.89651489",""
"sujeto_dccc88fd","1","3","5","69","1692.05384898","direct","2","1","3","¿Qué es el membrillero?","Arbol","Arbusto","","0","0","0","competitive","right","1.26893806458","1693.32283783","3.73106193542","1697.22451997","4.22440719604","1701.44898486","1.77559280396","1703.25893593","1705.21302485","1705.29383183","1708.29679894","0","1708.31106281","1714.77510285",""
"sujeto_dccc88fd","1","3","6","70","1714.93036079","inverse","3","1","3","¿Alrededor de qué planeta orbita 
el satélite Europa?","Jupiter","Saturno","","1","1","1","competitive","left","2.47980499268","1717.41020989","2.52019500732","1720.10222483","5.03501701355","1725.13728285","0.96498298645","1726.15511298","1727.69994187","1727.78916097","1730.79209185","1","1730.80648994","1733.01169086",""
"sujeto_dccc88fd","1","3","7","71","1733.17442489","direct","3","1","1","¿Donde fue el mundial de 
fútbol de 1954?","Suiza","Suecia","","1","1","1","individual","left","2.61092495918","1735.78539395","2.38907504082","1738.34292388","3.79743981361","1742.14042592","2.20256018639","1744.38058901","1745.63324285","1745.68260384","1748.68479991","1","1748.69945979","1752.61126184",""
"sujeto_dccc88fd","1","3","8","72","1752.75069284","inverse","1","1","4","¿Cuál de los 7 enanitos
no tenía barba?","Bashful","Mudito","","1","1","0","competitive","right","1.64987301826","1754.40061188","3.35012698174","1757.90670681","3.80196285248","1761.70871687","2.19803714752","1763.95755291","1765.53764892","1765.62537289","1768.62836885","1","1768.64281082","1773.57190084",""
"sujeto_dccc88fd","1","3","9","73","1773.71339202","direct","3","1","2","¿Cual red social es
mas utilizada mundialmente?","Instagram","Facebook","","1","1","0","competitive","left","1.74747991562","1775.46094084","3.25252008438","1778.86638784","3.77752399445","1782.6439538","2.22247600555","1784.900805","1786.81815195","1786.90263987","1789.90564895","1","1789.91993093","1792.8544569",""
"sujeto_dccc88fd","1","3","10","74","1793.00549102","inverse","4","1","1","¿Cuándo se inició la copa
 América de fútbol?","1916","1923","","1","1","1","individual","left","1.23773002625","1794.24326491","3.76226997375","1798.17616391","3.57492995262","1801.7511549","2.42507004738","1804.22708297","1806.12453294","1806.161515","1809.16444683","1","1809.17907786","1811.83518696",""
"sujeto_dccc88fd","1","3","11","75","1811.98045993","direct","3","1","4","¿Cuántos presidentes de EEUU
han muerto asesinados?","3","4","","0","0","1","competitive","left","1.09980010986","1813.08033299","3.90019989014","1817.15470195","3.31768202782","1820.47245002","2.68231797218","1823.2055409","1824.68878698","1824.77373481","1827.77668881","0","1827.79040599","1831.43450689",""
"sujeto_dccc88fd","1","3","12","76","1831.57579184","inverse","2","1","4","¿Cuántas veces participó EEUU
 en la copa América?","4","5","","0","0","1","competitive","left","2.07674694061","1833.65260983","2.92325305939","1836.73142195","4.22715210915","1840.95862079","1.77284789085","1842.76694679","1844.21106887","1844.30044985","1847.30346584","0","1847.31769991","1853.43488598",""
"sujeto_dccc88fd","1","3","13","77","1853.58618879","direct","4","1","1","¿Cuál de estos países 
no formaba la URSS?","Azeribayán","Afganistán","","0","0","1","individual","right","1.65662908554","1855.24286699","3.34337091446","1858.74303889","5.46682500839","1864.20992684","0.533174991608","1864.79355788","1866.10666585","1866.14298701","1869.14596295","0","1869.16061878","1877.14279699",""
"sujeto_dccc88fd","1","3","14","78","1877.29580379","inverse","1","1","1","¿En qué año se inauguró
 el teatro Solís?","1867","1856","","0","0","0","individual","left","3.27023410797","1880.56610584","1.72976589203","1882.45439982","3.90469908714","1886.35914493","2.09530091286","1888.50636983","1889.56271601","1889.60751486","1892.61047482","0","1892.62469697","1899.27251101",""
"sujeto_dccc88fd","1","3","15","79","1899.40948296","direct","1","1","4","¿A qué velocidad vuela 
el avión más rápido?","3529","3874","","0","0","0","competitive","right","1.63380002975","1901.04332995","3.36619997025","1904.5672009","4.422123909","1908.98939085","1.577876091","1910.61885595","1912.37435889","1912.45256686","1915.455549","0","1915.469697","1917.57998085",""
"sujeto_dccc88fd","1","3","16","80","1917.72193694","inverse","3","1","4","¿De qué año es la primer 
película cinematográfica?","1897","1888","","0","0","0","competitive","left","2.06256699562","1919.78456879","2.93743300438","1922.87795687","5.42457389832","1928.30256891","0.575426101685","1928.91192579","1930.04492784","1930.12790084","1933.13088799","0","1933.14552593","1938.55529189",""
"sujeto_dccc88fd","1","3","17","81","1938.69718695","direct","2","1","3","¿Cuántos países 
tiene nuestro planeta?","191","194","","1","1","1","competitive","right","0.998591184616","1939.69582486","4.00140881538","1943.85018492","4.39260196686","1948.24284482","1.60739803314","1949.88606501","1951.24324393","1951.320153","1954.32178593","1","1954.33720493","1957.57551885",""
"sujeto_dccc88fd","1","3","18","82","1957.72191596","inverse","2","1","2","¿Cuántos habitantes
 tiene Buenos Aires?","2.9000.000","3650000","","0","0","0","competitive","left","3.22009706497","1960.94209099","1.77990293503","1962.89790893","4.38217496872","1967.28014588","1.61782503128","1968.94924378","1970.34650993","1970.41639781","1973.41935086","0","1973.43413186","1979.26353788",""
"sujeto_dccc88fd","1","3","19","83","1979.40204501","direct","2","1","1","¿Cuántos kilos forman una tonelada?","1000","1500","left","1","1","1","individual","left","3.59723496437","1982.99934602","1.40276503563","1984.5760119","4.1322581768","1988.70830894","1.8677418232","1990.61049581","1992.4978199","1992.54440188","1995.54737687","1","1995.56229281","2001.51972294",""
"sujeto_dccc88fd","1","3","20","84","2001.69764495","inverse","4","1","4","¿Cuántos estados tiene la 
República del Perú? ","24","23","","0","0","1","competitive","right","0.836851119995","2002.53457785","4.16314888","2006.87126589","4.24827599525","2011.11960793","1.75172400475","2012.92244887","2013.94378185","2014.02269292","2017.02569485","0","2017.04011083","2021.9854269",""
"sujeto_dccc88fd","1","3","21","85","2022.14177799","direct","3","1","3","¿En qué año nació Cristóbal Colón? ","1451","1447","","0","0","1","competitive","left","1.12591314316","2023.267766","3.87408685684","2027.29347682","5.93927407265","2033.232795","0.0607259273529","2033.32974696","2035.17560196","2035.24732685","2038.25031686","0","2038.26500893","2042.49300194",""
"sujeto_dccc88fd","1","3","22","86","2042.6326859","inverse","4","1","4","¿Cuánto mide la 
Montaña Aconcagua? ","6234","6962","","0","0","1","competitive","left","2.65025687218","2045.28297591","2.34974312782","2047.80594897","3.736068964","2051.54208493","2.263931036","2053.86023092","2055.14958286","2055.22827983","2058.22884202","0","2058.24545002","2065.42907286",""
"sujeto_dccc88fd","1","3","23","87","2065.58088398","direct","2","1","4","¿Cuánto mide el punto
 más profundo del océano? ","12508","11003","","0","0","1","competitive","right","1.13628602028","2066.71723485","3.86371397972","2070.75509691","3.58217477798","2074.33733082","2.41782522202","2076.80553079","2078.05706596","2078.13969398","2081.1408298","0","2081.15752387","2085.36376786",""
"sujeto_dccc88fd","1","3","24","88","2085.50870299","inverse","1","1","3","¿Cuántos álbumes ha publicado 
el cantante Jaime Roos? ","41","34","","0","0","1","competitive","left","1.10769295692","2086.61643982","3.89230704308","2090.66468382","3.27676486969","2093.94149899","2.72323513031","2096.69875288","2098.18858099","2098.26711583","2101.27009702","0","2101.28425789","2107.48041201",""
"sujeto_dccc88fd","1","3","25","89","2107.63635778","direct","4","1","3","¿En qué año nació el 
ex-presidente Jorge Battle? ","1921","1927","","1","1","1","competitive","right","1.96428108215","2109.600703","3.03571891785","2112.79179788","4.93088984489","2117.72273088","1.06911015511","2118.84460282","2120.5752759","2120.66145492","2123.66447282","1","2123.67911291","2127.16516685",""
"sujeto_dccc88fd","1","3","26","90","2127.31381488","inverse","1","1","3","¿Cuántas presidencias 
constitucionales  hubo en Uruguay? ","41","42","","0","0","1","competitive","left","3.49904799461","2130.81292796","1.50095200539","2132.48733497","4.03258800507","2136.51996684","1.96741199493","2138.53850579","2139.74228501","2139.82234097","2142.82533097","0","2142.84004593","2148.62373686",""
"sujeto_dccc88fd","1","3","27","91","2148.77491593","direct","1","1","2","¿Quién escribió mas sinfonías?","Mozart","Haydn","","1","1","0","competitive","left","2.13820099831","2150.91319299","2.86179900169","2153.93162298","4.19841599464","2158.13007879","1.80158400536","2159.96668601","2161.18418288","2161.26710987","2164.27005291","1","2164.28448796","2168.03589892",""
"sujeto_dccc88fd","1","3","28","92","2168.16940784","inverse","4","1","2","¿En qué año nació Michael Jackson?","1958","1953","","1","1","1","individual","right","3.49884796143","2171.66832495","1.50115203857","2173.33992386","4.0224199295","2177.36238885","1.9775800705","2179.39339399","2181.37163782","2181.41079402","2184.41377187","1","2184.42797899","2190.29028797",""
"sujeto_dccc88fd","1","3","29","93","2190.43057179","direct","3","1","2","¿En qué año entró en vigencia 
la ley antitabaco en Uruguay?","2005","2006","","1","1","1","competitive","left","2.86793398857","2193.2985518","2.13206601143","2195.60188293","4.8736770153","2200.4756","1.1263229847","2201.63633895","2203.23109293","2203.31980181","2206.32278681","1","2206.33741689","2211.67143798",""
"sujeto_dccc88fd","1","3","30","94","2211.82255387","inverse","3","1","1","¿Cuándo se subió el 
primer video a youtube?","2004","2005","","0","0","1","individual","right","1.10323500633","2212.92585993","3.89676499367","2216.9976089","3.28719186783","2220.2848618","2.71280813217","2223.04801297","2224.3537128","2224.39984179","2227.40275884","0","2227.41730595","2235.17291188",""
"sujeto_dccc88fd","1","3","31","95","2235.30223894","direct","2","1","1","¿Cuántos habitantes tiene India?","1200 millones","1300 millones","","0","0","0","individual","right","2.00672721863","2237.30903196","2.99327278137","2240.47772384","3.67230701447","2244.15007687","2.32769298553","2246.52781892","2248.49743485","2248.54612589","2251.5490489","0","2251.5637238","2257.61123586",""
"sujeto_dccc88fd","1","3","32","96","2257.7814908","inverse","4","1","2","¿A qué edad murió Bob Marley?","36","37","","0","0","1","competitive","right","2.9447081089","2260.72624683","2.0552918911","2262.97091579","2.31138300896","2265.28235984","3.68861699104","2269.02320981","2270.92108798","2271.00828791","2274.0107708","0","2274.02600288","2277.12846899",""
"sujeto_dccc88fd","1","4","1","97","2399.82323384","direct","2","1","1","¿Cuantos años dirigió la selección 
uruguaya Tabarez?","15 años","13 años","","0","0","0","individual","left","2.14245986938","2401.96575999","2.85754013062","2404.9950099","0.14869093895","2405.14377284","5.85130906105","2411.0471108","2412.23826694","2412.28180981","2415.28474283","0","2415.29898095","2422.37097788","2277.14342999"
"sujeto_dccc88fd","1","4","2","98","2422.50058198","inverse","4","1","1","¿Cuantas teclas tiene un teclado 
de computadora generalmente? ","Entre 99 y 108","Entre 109 y 113","","1","1","1","individual","right","1.78538703918","2424.28601599","3.21461296082","2427.67504787","5.1419479847","2432.81705499","0.858052015305","2433.71015596","2434.71290278","2434.76038194","2437.76332593","1","2437.778198","2440.14963889",""
"sujeto_dccc88fd","1","4","3","99","2440.2958169","direct","1","1","1","¿Cuál Departamento tiene
 mayor superficie?","Río Negro","Soriano","","0","0","0","competitive","left","2.19828820229","2442.4941678","2.80171179771","2445.44897199","5.04215717316","2450.49117398","0.957842826843","2451.48599792","2453.19947481","2453.28642988","2456.28941679","0","2456.30441093","2460.63050294",""
"sujeto_dccc88fd","1","4","4","100","2460.77266884","inverse","3","1","2","¿Cuál es el apellido de las 
hermanastras  de  cenicienta?","Tremaine","Truman","","0","0","1","competitive","left","1.69562697411","2462.46836782","3.30437302589","2465.92859101","4.53971099854","2470.46833992","1.46028900146","2471.97915483","2473.84872293","2473.93046498","2476.93343902","0","2476.94728589","2479.64325786",""
"sujeto_dccc88fd","1","4","5","101","2479.78265381","direct","4","1","4","¿Cuál película ganó un
 Oscar a mejor película?","Alto Impacto","Cache","","0","0","1","competitive","left","2.46873497963","2482.25145388","2.53126502037","2484.952034","4.91846489906","2489.87055779","1.08153510094","2491.00707579","2492.12642479","2492.20752287","2495.21049094","0","2495.22586799","2497.49047899",""
"sujeto_dccc88fd","1","4","6","102","2497.62636089","inverse","1","1","3","¿A cuántos centímetros
equivale la medida pié?","25","30","","0","0","1","competitive","right","2.75535702705","2500.38179398","2.24464297295","2502.79513597","4.76452898979","2507.55974078","1.23547101021","2508.83363485","2509.87362981","2509.9504478","2512.95343184","0","2512.96801496","2518.36900091",""
"sujeto_dccc88fd","1","4","7","103","2518.50218582","direct","2","1","2","¿Qué departamento es mas grande?","Cerro Largo","Paysandú","","0","0","0","competitive","right","2.67871594429","2521.18097591","2.32128405571","2523.6577239","3.55211400986","2527.20989394","2.44788599014","2529.71043992","2531.31021595","2531.39425397","2534.39723492","0","2534.41159987","2538.52157593",""
"sujeto_dccc88fd","1","4","8","104","2538.66338301","inverse","2","1","3","¿Quién pintó la Mona Lisa?","Picasso","Da Vinci","right","0","0","1","competitive","right","1.41167593002","2540.075104","3.58832406998","2543.81933093","2.86378312111","2546.68315792","3.13621687889","2549.86949992","2551.47534895","2551.55439186","2554.55732489","1","2554.57248878","2556.7348268",""
"sujeto_dccc88fd","1","4","9","105","2556.89040399","direct","4","1","3","¿Cuántos litros hay en un galon?","3.54","3.78","","1","1","1","competitive","right","1.04490709305","2557.93539596","3.95509290695","2562.06241679","3.45781111717","2565.52026582","2.54218888283","2568.11329699","2569.63117099","2569.71472192","2572.7177","1","2572.73134398","2578.52366281",""
"sujeto_dccc88fd","1","4","10","106","2578.66609097","inverse","4","1","1","¿Cuántas teclas tiene
 un piano moderno?","80","88","","0","0","1","individual","left","1.54535388947","2580.2115109","3.45464611053","2583.823488","5.37907004356","2589.20261979","0.620929956436","2589.85873795","2590.86723089","2590.90917182","2593.91213894","0","2593.92643285","2600.7242198",""
"sujeto_dccc88fd","1","4","11","107","2600.87773299","direct","4","1","3","¿Cuántos países hay en África?","54","62","","0","0","1","competitive","right","2.21793603897","2603.09572291","2.78206396103","2606.03427196","2.47947907448","2608.51379085","3.52052092552","2612.06862283","2613.75917482","2613.83809686","2616.84108591","0","2616.85481191","2624.65959692",""
"sujeto_dccc88fd","1","4","12","108","2624.78951883","inverse","1","1","3","¿En qué siglo se crearon
 las primeras pistolas?","XV","XIII","","1","1","1","competitive","left","1.30043697357","2626.09000087","3.69956302643","2629.94705486","4.661921978","2634.60903788","1.338078022","2635.98160386","2637.9294548","2638.01635695","2641.01932502","1","2641.03358579","2644.26670599",""
"sujeto_dccc88fd","1","4","13","109","2644.43513989","direct","3","1","4","¿En qué año se estrenó 
la serie friends?","1994","1995","","0","0","1","competitive","right","1.24007081985","2645.67528582","3.75992918015","2649.58656001","3.83267307281","2653.41929388","2.16732692719","2655.63955283","2657.51487279","2657.58981895","2660.59281182","0","2660.60855484","2665.6146059",""
"sujeto_dccc88fd","1","4","14","110","2665.75954485","inverse","3","1","4","¿En qué año nació Hitler?","1889","1887","","0","0","1","competitive","left","0.978785037994","2666.73839879","4.02121496201","2670.91890788","4.06042003632","2674.97938991","1.93957996368","2676.94997001","2678.06426787","2678.15066385","2681.15363097","0","2681.16831088","2686.19531584",""
"sujeto_dccc88fd","1","4","15","111","2686.33704281","direct","1","1","4","¿Cuánto pesa un elefante Africano?","6000 kilos","5400 kilos","","0","0","0","competitive","left","2.44247508049","2688.77958179","2.55752491951","2691.49612594","3.89937901497","2695.39556599","2.10062098503","2697.54869699","2698.90462589","2698.9828279","2701.98582292","0","2702.00019002","2708.70725679",""
"sujeto_dccc88fd","1","4","16","112","2708.85161686","inverse","1","1","2","¿Qué porcentaje de 
la población es zurda?","10%","7%","","1","1","0","competitive","left","1.26816606522","2710.11988091","3.73183393478","2714.02573299","2.95911216736","2716.98490596","3.04088783264","2720.07585692","2721.31895995","2721.39355993","2724.39655185","1","2724.41187596","2730.38952279",""
"sujeto_dccc88fd","1","4","17","113","2730.52991796","direct","1","1","2","¿En qué año se estrenó
Volver al futuro?","1984","1985","","0","0","1","competitive","left","1.6309800148","2732.16093588","3.3690199852","2735.68680191","4.46520614624","2740.15207291","1.53479385376","2741.7360189","2743.29783702","2743.36970592","2746.37270999","0","2746.38730001","2753.47876287",""
"sujeto_dccc88fd","1","4","18","114","2753.63900995","inverse","3","1","2","¿Cuántos jugadores hay en un 
equipo de baseball?","9","8","","1","1","0","competitive","left","1.25515508652","2754.89420986","3.74484491348","2758.79863381","0.697567939758","2759.49626398","5.30243206024","2764.8474648","2766.46173096","2766.5500648","2769.55307794","1","2769.56782889","2774.54510999",""
"sujeto_dccc88fd","1","4","19","115","2774.68610692","direct","2","1","1","¿Cuántos Oscar ganó
 la película titanic?","13","11","","1","1","1","competitive","right","3.29633688927","2777.98254895","1.70366311073","2779.843539","3.48685407639","2783.33045292","2.51314592361","2785.89464784","2787.19673896","2787.2787199","2790.28172398","1","2790.29622388","2794.89888883",""
"sujeto_dccc88fd","1","4","20","116","2795.0465188","inverse","4","1","4","¿En qué año comenzó
la segunda guerra mundial?","1939","1976","left","0","0","1","competitive","left","1.50010490417","2796.54666996","3.49989509583","2800.22040391","3.54623293877","2803.76668692","2.45376706123","2806.25404","2808.05390787","2808.1392498","2811.1422348","1","2811.15647101","2815.1436069",""
"sujeto_dccc88fd","1","4","21","117","2815.29129887","direct","2","1","4","¿Cuántos biomas hay en Uruguay?","5","4","","0","0","1","competitive","right","0.980489969254","2816.27186179","4.01951003075","2820.46258187","2.6742310524","2823.13685179","3.3257689476","2826.51279092","2828.30876899","2828.3815999","2831.3845849","0","2831.39921379","2837.64863181",""
"sujeto_dccc88fd","1","4","22","118","2837.80008793","inverse","2","1","3","¿Cuándo murió Pablo Escobar?","1993","1997","","1","1","1","competitive","right","1.15699601173","2838.9571538","3.84300398827","2842.95969987","3.06236791611","2846.02212596","2.93763208389","2848.99356198","2850.77641582","2850.86115789","2853.86411381","1","2853.88055992","2859.58422899",""
"sujeto_dccc88fd","1","4","23","119","2859.74678302","direct","1","1","4","¿Qué serie ha ganado mas premios?","Friends","Murphy Brown","","1","1","0","competitive","left","1.11044502258","2860.85727382","3.88955497742","2864.90405583","4.27319407463","2869.1773119","1.72680592537","2870.9551239","2872.3075459","2872.38940191","2875.39239192","1","2875.40664792","2880.96824694",""
"sujeto_dccc88fd","1","4","24","120","2881.10765791","inverse","4","1","2","¿Cuántas fichas tiene el dominó?","26","28","","1","1","1","competitive","right","1.56674599648","2882.6744678","3.43325400352","2886.28297782","3.97948908806","2890.2625258","2.02051091194","2892.31633401","2893.37164497","2893.45046902","2896.4533968","1","2896.46873188","2901.71184087",""
"sujeto_dccc88fd","1","4","25","121","2901.85323191","direct","2","1","4","¿Cuántos son los dientes de leche?","20","25","","0","0","1","competitive","left","1.62834715843","2903.48164296","3.37165284157","2907.00766182","4.40099000931","2911.40871501","1.59900999069","2913.05725193","2914.76758099","2914.84217381","2917.8451519","0","2917.85964298","2920.00537682",""
"sujeto_dccc88fd","1","4","26","122","2920.14439988","inverse","3","1","3","¿Cuántos gramos son una onza?","22","28","","0","0","1","competitive","left","1.60245299339","2921.74692392","3.39754700661","2925.30331087","3.72759699821","2929.03094792","2.27240300179","2931.33664083","2933.3315258","2933.40441298","2936.40739083","0","2936.4220109","2942.71225286",""
"sujeto_dccc88fd","1","4","27","123","2942.85738301","direct","3","1","1","¿Cuándo salió el primer album
 de los Beatles?","1963","1962","","1","1","1","individual","right","1.35364699364","2944.21109891","3.64635300636","2948.0139668","3.54406189919","2951.55809593","2.45593810081","2954.04805183","2955.21164894","2955.24933386","2958.2522788","1","2958.26662397","2962.03865981",""
"sujeto_dccc88fd","1","4","28","124","2962.18565798","inverse","3","1","3","¿Quién fundó la empresa apple?","Carlos Slim","Steve Jobs","","1","1","1","competitive","left","2.55647015572","2964.74218082","2.44352984428","2967.35804391","4.40409183502","2971.76217985","1.59590816498","2973.40961695","2974.52430487","2974.61064887","2977.6136229","1","2977.62793398","2983.92577291",""
"sujeto_dccc88fd","1","4","29","125","2984.07876492","direct","4","1","2","¿Cuántos municipios hay
 en Montevideo?","8","7","","1","1","1","competitive","right","1.35445809364","2985.43326879","3.64554190636","2989.23428297","2.3660171032","2991.6003449","3.6339828968","2995.28448296","2997.19924378","2997.26958299","3000.27255392","1","3000.28808999","3002.36919093",""
"sujeto_dccc88fd","1","4","30","126","3002.50584579","inverse","1","1","1","¿Cuántos kilómetros hay
 de Montevideo a Artigas?","632","599","","0","0","0","competitive","left","1.39051103592","3003.89643002","3.60948896408","3007.662323","3.68508315086","3011.34744883","2.31491684914","3013.71318889","3015.19628","3015.28122187","3018.28421593","0","3018.29885793","3024.35097194",""
"sujeto_dccc88fd","1","4","31","127","3024.49937296","direct","2","1","2","¿En qué año nació 
Leonardo Da Vinci?","1452","1511","","1","1","0","competitive","left","1.35710501671","3025.85652184","3.64289498329","3029.65716195","3.29735517502","3032.9545579","2.70264482498","3035.70822001","3037.56185198","3037.64237189","3040.64536285","1","3040.66000295","3043.80641198",""
"sujeto_dccc88fd","1","4","32","128","3043.96187186","inverse","3","1","1","¿A qué continente
 pertenece el país Gabón?","Africa","Oceanía","","0","0","1","individual","left","2.03077483177","3045.99271798","2.96922516823","3049.11662984","4.50703597069","3053.623739","1.49296402931","3055.16692591","3056.97855902","3057.01721191","3060.02018285","0","3060.03569388","3065.27358389",""
