"code","nro_aplicante","nro_bloque","nro_trial_bloque","nro_trial_global","show_game_type","choice_order","rival","pay_individual","pay_competitive","question","answer_left_text","answer_right_text","correct_answer","outcome_individual","outcome_competitive","outcome_rival","game_type","answer","social_time","rt_game_type","feedback_delay","show_question","answer_time","rt_answer_global","feedback_delay_2","show_jitter","jitter_time","show_outcome","outcome_time","outcome_participant_real","show_final_jitter","second_jitter_time","inicio_descanso"
"sujeto_0051018","11","1","1","1","567.236264944","direct","3","1","4","¿Cuántos centímetros corresponden
al talle 36 del calzado?","23","24","","0","0","1","competitive","right","2.48752498627","569.723852158","2.51247501373","572.407972097","5.24278402328","577.650800943","0.757215976715","578.444097042","579.472392082","579.544595957","582.547587156","0","582.561855078","584.724385023",""
"sujeto_0051018","11","1","2","2","584.863486052","inverse","3","1","2","¿Cuántas metros mide la Intendencia
Municipal de Montevideo? ","84","78","","0","0","1","competitive","","2.32924294472","587.192764044","2.67075705528","590.034919977","6","596.035046101","0","596.052727938","597.930747986","598.004310131","601.007280111","0","601.022176027","603.114933968",""
"sujeto_0051018","11","1","3","3","603.25714016","direct","1","1","3","¿Cuántas La Pasiva
 hay en uruguay?","15","11","","1","1","1","competitive","right","2.34968805313","605.606868982","2.65031194687","608.409600973","3.42523694038","611.834902048","2.57476305962","614.462083101","616.073739052","616.14705801","619.150021076","1","619.164251089","623.440422058",""
"sujeto_0051018","11","1","4","4","623.582311153","inverse","3","1","3","¿De que color es la camiseta de uruguay?","blanca","celeste","right","1","1","1","competitive","right","2.03548312187","625.617835045","2.96451687813","628.755445004","2.20534896851","630.960855007","3.79465103149","634.804718971","636.009496927","636.089956999","639.092911005","1","639.10712409","642.561048985",""
"sujeto_0051018","11","1","5","5","642.741692066","direct","2","1","1","¿Cuánto metros mide
la torre Eiffel?","333","324","","1","1","1","competitive","right","1.42716407776","644.168954134","3.57283592224","647.914473057","2.81730985641","650.731822014","3.18269014359","653.964041948","655.485419989","655.565984011","658.568958044","1","658.583733082","665.620434999",""
"sujeto_0051018","11","1","6","6","665.752704144","inverse","3","1","4","¿Cuantas ciudades existen
 en todo el uruguay?","63","72","","0","0","1","competitive","left","1.71613502502","667.468902111","3.28386497498","670.942096949","3.81962394714","674.761757135","2.18037605286","676.994190931","678.049010038","678.128828049","681.131787062","0","681.145791054","688.772375107",""
"sujeto_0051018","11","1","7","7","688.913938046","direct","1","1","1","¿Cuantos estados tiene África?","52","54","","1","1","0","competitive","left","1.54587292671","690.459859133","3.45412707329","694.08545804","2.58038282394","696.665884018","3.41961717606","700.119509935","701.983560085","702.05528307","705.058251143","1","705.072258949","710.833292007",""
"sujeto_0051018","11","1","8","8","710.974138975","inverse","4","1","4","¿En qué año nació
 Stephen Hawking?","1952","1942","","0","0","1","competitive","left","1.86169505119","712.835896015","3.13830494881","716.133533955","4.47124290466","720.604838133","1.52875709534","722.185178995","723.629508018","723.701794147","726.704427004","0","726.719345093","732.818660975",""
"sujeto_0051018","11","1","9","9","732.953958035","direct","2","1","3","¿Cuánto años tenía Artigas
 cuando se fue a Paraguay?","56","57","","1","1","1","competitive","left","1.54488587379","734.498888969","3.45511412621","738.111565113","3.76823997498","741.879848003","2.23176002502","744.161451101","745.710958958","745.780331135","748.783301115","1","748.797295094","754.844591141",""
"sujeto_0051018","11","1","10","10","754.98222208","inverse","1","1","2","¿Cuantos milímetros 
mide una hoja A2?","420x592","420x594","","0","0","1","competitive","right","2.13850021362","757.120763063","2.86149978638","760.123921156","5.57094097137","765.694904089","0.429059028625","766.173345089","767.741737127","767.82370615","770.824418068","0","770.841289043","777.914926052",""
"sujeto_0051018","11","1","11","11","778.058809996","direct","3","1","3","¿Cuál es la menor temperatura 
registrada en Uruguay?","-5.4","-7.4","","0","0","1","competitive","left","1.572026968","779.630897999","3.427973032","783.232540131","2.85630607605","786.088885069","3.14369392395","789.284106016","790.966145039","791.052487135","794.055464029","0","794.069507122","797.802787066",""
"sujeto_0051018","11","1","12","12","797.938116074","inverse","2","1","2","¿Cuantos años hace que 
se fundó facebook?","18","17","","0","0","0","competitive","left","1.48178911209","799.420014143","3.51821088791","803.144923925","3.00190806389","806.146898985","2.99809193611","809.195205927","810.567938089","810.646252155","813.649240017","0","813.663412094","816.438051939",""
"sujeto_0051018","11","1","13","13","816.582010984","direct","1","1","4","¿Cuál animal es más
 pesado en promedio?","Rinoceronte","Hipopotamo","","0","0","0","competitive","right","1.81080794334","818.392889977","3.18919205666","821.804008961","5.80078482628","827.604859114","0.199215173721","827.856507063","828.935727119","829.022987127","832.024428129","0","832.040379047","835.880421162",""
"sujeto_0051018","11","1","14","14","836.008044958","inverse","1","1","2","¿Qué personaje de dragon ball 
murió más veces?","Chaoz","Krillin","","1","1","0","competitive","left","1.25677204132","837.264894009","3.74322795868","841.16270113","4.4371740818","845.599914074","1.5628259182","847.215068102","848.672809124","848.749099016","851.752081156","1","851.766901016","859.539837122",""
"sujeto_0051018","11","1","15","15","859.685035944","direct","3","1","2","La universidad de oxford. 
existe desde:","1096","1249","","1","1","0","competitive","right","2.30978393555","861.994884014","2.69021606445","864.840485096","4.52534008026","869.365885019","1.47465991974","870.877129078","871.925935984","872.01076293","875.013725996","1","875.027868032","881.716423035",""
"sujeto_0051018","11","1","16","16","881.846235991","inverse","3","1","1","¿Qué escritor latino ganó antes
 el premio nobel?"," García Marquez","Neruda","","0","0","1","competitive","right","1.31062293053","883.156903028","3.68937706947","887.005303144","4.25952100754","891.264887094","1.74047899246","893.039099932","894.779101133","894.856418133","897.859403133","0","897.873522043","901.334046125",""
"sujeto_0051018","11","1","17","17","901.475973129","direct","4","1","3","¿Cuántos dientes tiene un
 tiburón blanco?","6000","3000","","0","0","1","competitive","right","2.29489207268","903.770931959","2.70510792732","906.627751112","3.43703389168","910.064814091","2.56296610832","912.664803028","913.703784943","913.78352809","916.786520004","0","916.80046916","921.608433008",""
"sujeto_0051018","11","1","18","18","921.734894037","inverse","4","1","1","¿Cuánto mide el paralelo Ecuador?","40.000km","70.000km","","0","0","1","competitive","left","3.07094192505","924.805902004","1.92905807495","926.923574924","4.82322597504","931.74684","1.17677402496","932.976376057","934.932507038","935.010173082","938.013152122","0","938.028034925","941.63061595",""
"sujeto_0051018","11","1","19","19","941.762912989","direct","4","1","2","¿Cuál fue el primer libro 
de Stephen King?","Carrie","The Stand","","1","1","1","competitive","right","1.35891485214","943.121902943","3.64108514786","946.935763121","3.66703796387","950.602859974","2.33296203613","952.986449003","954.730575085","954.803960085","957.806930065","1","957.822016954","962.296463013",""
"sujeto_0051018","11","1","20","20","962.42300415","inverse","2","1","3","¿Qué civilización practicaba
 la momificación?","Grecia","Egipto","right","0","0","1","competitive","right","1.98197507858","964.405059099","3.01802492142","967.594506025","3.07928919792","970.67383194","2.92071080208","973.629702091","975.568997145","975.648263931","978.648427963","1","978.665498972","982.894295931",""
"sujeto_0051018","11","1","21","21","983.033942938","direct","4","1","4","¿Cuántos millones de visitas
 recibe google por minuto?","3.0","4.5","","0","0","1","competitive","right","1.46292209625","984.496936083","3.53707790375","988.190104961","2.6457259655","990.835875034","3.3542740345","994.223477125","995.738326073","995.809108019","998.812093973","0","998.825936079","1005.94841599",""
"sujeto_0051018","11","1","22","22","1006.07721615","inverse","1","1","3","La máquina de fax. se inventó en:","1843","1960","","0","0","1","competitive","left","2.19264507294","1008.26992393","2.80735492706","1011.23335409","2.62050414085","1013.85390401","3.37949585915","1017.28406405","1018.52617311","1018.60336399","1021.60634899","0","1021.62141609","1024.857692",""
"sujeto_0051018","11","1","23","23","1024.98899007","direct","2","1","4","En la verdadera historia de los
 300 espartanos. habían:","300 soldados","4300 soldados","","1","1","1","competitive","","1.64193987846","1026.631006","3.35806012154","1030.14500499","6","1036.14513302","0","1036.16065097","1037.42186308","1037.49672794","1040.49970007","0","1040.51378512","1044.315557",""
"sujeto_0051018","11","1","24","24","1044.44867992","inverse","1","1","4","¿Cuántos milímetros crece
 el pelo por día?","0.4","0.04","","0","0","0","competitive","right","2.14916205406","1046.59788799","2.85083794594","1049.60313892","3.11763811111","1052.72081804","2.88236188889","1055.63857794","1057.39930105","1057.47430706","1060.47727799","0","1060.49134398","1067.22441912",""
"sujeto_0051018","11","1","25","25","1067.35930014","direct","4","1","1","¿Cuánto mide la baldosa gris 
clásica de Montevideo?","22x22 cm.","20x20 cm.","","1","1","1","competitive","left","1.38355898857","1068.74290514","3.61644101143","1072.54858112","3.7752571106","1076.32390404","2.2247428894","1078.58420515","1080.5794661","1080.65174603","1083.65469599","1","1083.66968894","1089.21250296",""
"sujeto_0051018","11","1","26","26","1089.33791304","inverse","2","1","2","¿Cuántas películas de rápidos
 y furiosos hay?","10","11","","1","1","0","competitive","right","1.06693696976","1090.40490103","3.93306303024","1094.49112296","4.24671697617","1098.73790598","1.75328302383","1100.52688313","1101.88490415","1101.96128702","1104.96427393","1","1104.97847009","1107.01317215",""
"sujeto_0051018","11","1","27","27","1107.14752698","direct","3","1","1","¿Cuántos masters 1000
 ganó Del Potro?","1","2","","1","1","1","individual","right","2.37629795074","1109.52389503","2.62370204926","1112.33660793","4.88815593719","1117.22480011","1.11184406281","1118.38910103","1120.143718","1120.18970704","1123.19243002","1","1123.20651603","1130.60286999",""
"sujeto_0051018","11","1","28","28","1130.74157906","inverse","2","1","4","¿Cuántos meses dura el 
embarazo de una leona?","3 meses","4 meses","","0","0","1","competitive","right","1.30423402786","1132.04586911","3.69576597214","1135.91675997","4.56104803085","1140.4778471","1.43895196915","1141.96746802","1143.07855916","1143.15121293","1146.15417504","0","1146.16815209","1152.89066315",""
"sujeto_0051018","11","1","29","29","1153.05296612","direct","1","1","1","¿En qué año fue creado
 el sandwich?","1762","1653","","1","1","0","competitive","left","2.0999121666","1155.15292311","2.9000878334","1158.20984006","3.63301086426","1161.84291315","2.36698913574","1164.25981402","1165.85837507","1165.92767501","1168.92839313","1","1168.94554806","1172.41614199",""
"sujeto_0051018","11","1","30","30","1172.56355596","inverse","4","1","2","El nombre de la moneda de Vietnam es:","Dinar","Dong","","0","0","1","competitive","right","1.84332203865","1174.40692401","3.15667796135","1177.73694015","3.82696413994","1181.5639441","2.17303586006","1183.77059412","1185.20249295","1185.27245092","1188.27543902","0","1188.28955102","1194.45641804",""
"sujeto_0051018","11","1","31","31","1194.62457013","direct","2","1","1","¿cuantos aleteos puede dar 
un colibrí por segundo?","120","50","","0","0","0","competitive","right","2.15230703354","1196.77692008","2.84769296646","1199.79744506","3.83545303345","1203.63293815","2.16454696655","1205.84989214","1207.58225513","1207.66813493","1210.67108202","0","1210.68507814","1214.89735699",""
"sujeto_0051018","11","1","32","32","1215.03693604","inverse","4","1","3","¿Qué altura promedio tienen
 los hombres uruguayos?","1.73 m","1.72 m","","1","1","1","competitive","left","1.07641291618","1216.11342502","3.92358708382","1220.191751","2.94513201714","1223.13695097","3.05486798286","1226.22646594","1227.48837996","1227.56132412","1230.56431103","1","1230.57820916","1235.05410099",""
"sujeto_0051018","11","2","1","33","1374.75763392","direct","1","1","1","¿En qué año nació 
el actor Bradd Pitt?","1967","1963","","1","1","1","competitive","left","1.78925395012","1376.54695415","3.21074604988","1379.92521715","3.01863694191","1382.94389105","2.98136305809","1385.97352695","1387.06941009","1387.14119101","1390.14418197","1","1390.15825105","1396.08582401","1235.06899714"
"sujeto_0051018","11","2","2","34","1396.22672105","inverse","2","1","1","¿Cual es el segundo 
monte más alto?","Kanchenjunga","K2","","1","1","1","individual","right","2.262155056","1398.48894","2.737844944","1401.38612914","4.20575714111","1405.59195614","1.79424285889","1407.43728209","1408.88969994","1408.93797994","1411.94041896","1","1411.95567107","1415.38557005",""
"sujeto_0051018","11","2","3","35","1415.52325416","direct","3","1","1","¿Cuándo finalizó la construcción
 del Palacio Legislativo?","1925","1917","","0","0","1","competitive","right","1.89163804054","1417.41493607","3.10836195946","1420.71252203","3.62232589722","1424.33491206","2.37767410278","1426.76402307","1428.404423","1428.48088408","1431.48384213","0","1431.49909711","1437.19641995",""
"sujeto_0051018","11","2","4","36","1437.33392501","inverse","3","1","3","¿Cuántos integrantes tenía
 en su inicio  el cuarteto de nos?","3","4","","1","1","1","competitive","right","1.45699286461","1438.79101801","3.54300713539","1442.49057412","3.64928197861","1446.13990116","2.35071802139","1448.54113102","1449.67422295","1449.75867605","1452.76167107","1","1452.77552104","1458.42441511",""
"sujeto_0051018","11","2","5","37","1458.57768393","direct","2","1","3","¿Qué valor tiene el número pi?","3.14","4.18","left","0","0","1","competitive","left","0.848248958588","1459.42597604","4.15175104141","1463.73140597","1.92648005486","1465.65792608","4.07351994514","1469.78360796","1471.23778915","1471.31841612","1474.32139516","1","1474.33614206","1481.25712204",""
"sujeto_0051018","11","2","6","38","1481.58731914","inverse","2","1","2","¿Cuál es la esperanza de vida
 en Uruguay?","75","77","","1","1","0","competitive","right","1.019562006","1482.60694599","3.980437994","1486.74664807","3.86918401718","1490.61589098","2.13081598282","1492.79721999","1494.45103097","1494.53185606","1497.53235602","1","1497.548558","1504.0115881",""
"sujeto_0051018","11","2","7","39","1504.15012097","direct","1","1","2","¿Cuantos pisos tiene la torre 
de las comunicaciones?","26","32","","1","1","0","competitive","left","2.3247358799","1506.47492313","2.6752641201","1509.30728698","3.70755600929","1513.01490307","2.29244399071","1515.35983706","1517.18838811","1517.26018596","1520.26315999","1","1520.27825809","1522.42446899",""
"sujeto_0051018","11","2","8","40","1522.56292295","inverse","2","1","4","¿En qué país sudamericano 
no hay McDonalds?","Bolivia","Venezuela","","0","0","1","competitive","left","1.56602597237","1524.12906194","3.43397402763","1527.75080204","4.34507489204","1532.09594297","1.65492510796","1533.78460193","1535.09397101","1535.16873193","1538.1717031","0","1538.18659902","1544.54442215",""
"sujeto_0051018","11","2","9","41","1544.68788695","direct","3","1","1","¿En qué año empieza
 la Edad Media?","476","512","","1","1","1","competitive","left","1.98106598854","1546.66905904","3.01893401146","1549.8434341","3.08804607391","1552.93152094","2.91195392609","1555.89501309","1557.29874206","1557.38036513","1560.38334608","1","1560.39722109","1563.38442397",""
"sujeto_0051018","11","2","10","42","1563.53301811","inverse","3","1","4","¿Hace cuántos años surgió
 el ser humano?","200mil","300mil","","0","0","0","competitive","right","1.47288703918","1565.00594807","3.52711296082","1568.68916893","3.42563509941","1572.11483812","2.57436490059","1574.72309494","1576.60911298","1576.69014215","1579.6931231","0","1579.70824504","1583.01871204",""
"sujeto_0051018","11","2","11","43","1583.15945697","direct","3","1","4","¿Cuántas cuadras tiene
 actualmente 18 de julio? ","36","33","","0","0","1","competitive","left","2.78845405579","1585.94797516","2.21154594421","1588.34704804","3.34184408188","1591.68895912","2.65815591812","1594.39977002","1596.10203505","1596.18469405","1599.18767214","0","1599.20175314","1603.92804193",""
"sujeto_0051018","11","2","12","44","1604.05341697","inverse","1","1","4","¿Qué juego de equipo se 
considera mas rápido?","Lacrosse","Badminton","","0","0","0","competitive","left","2.52848505974","1606.581949","2.47151494026","1609.22473598","2.79620099068","1612.02097607","3.20379900932","1615.25981903","1616.50292706","1616.57815313","1619.58114314","0","1619.59499407","1627.59014606",""
"sujeto_0051018","11","2","13","45","1627.72985315","direct","1","1","3","¿Qué promedio de edad 
vive una jirafa? ","25","20","","0","0","1","competitive","left","1.79310703278","1629.52301002","3.20689296722","1632.88917303","4.09772086143","1636.98695397","1.90227913857","1638.92336106","1640.68485904","1640.7574091","1643.76039696","0","1643.77417707","1649.72987008",""
"sujeto_0051018","11","2","14","46","1649.8760941","inverse","1","1","2","¿Cuántos grandes lagos hay?","7","5","","0","0","1","competitive","left","1.43883299828","1651.3149941","3.56116700172","1655.03347397","3.52239894867","1658.55593204","2.47760105133","1661.08353496","1662.37569714","1662.45137596","1665.45243216","0","1665.46862316","1673.29000711",""
"sujeto_0051018","11","2","15","47","1673.4371531","direct","3","1","2","¿Cuántos discos de estudio
 grabó Johhny Cash? ","54","43","","1","1","0","individual","right","3.64087319374","1677.07806993","1.35912680626","1678.596066","3.37086892128","1681.96697712","2.62913107872","1684.64619493","1685.92443705","1685.96417499","1688.96709299","1","1688.98122501","1695.62841916",""
"sujeto_0051018","11","2","16","48","1695.76566911","inverse","4","1","1","¿Cuántos barrios tiene
 Montevideo? ","71","62","","0","0","1","individual","right","2.37919402122","1698.14492893","2.62080597878","1700.92342305","2.19651079178","1703.11999607","3.80348920822","1706.95661807","1707.96370411","1708.00940299","1711.01239514","0","1711.02629995","1716.48441601",""
"sujeto_0051018","11","2","17","49","1716.62748003","direct","3","1","3","¿Qué edad tiene Homero Simpson?","36","42","","0","0","1","competitive","left","2.10239291191","1718.729918","2.89760708809","1721.78523493","4.98763799667","1726.77293396","1.01236200333","1727.83414316","1729.21012807","1729.28551292","1732.28849316","0","1732.30337405","1736.69208908",""
"sujeto_0051018","11","2","18","50","1736.8386941","inverse","4","1","2","¿Cuántos países con monarquía 
hay en europa actualmente? ","6","10","","1","1","1","competitive","left","2.28522205353","1739.12397909","2.71477794647","1741.99508309","4.71888899803","1746.71401596","1.28111100197","1748.04628611","1749.48442101","1749.56369615","1752.56669712","1","1752.58095813","1758.73775697",""
"sujeto_0051018","11","2","19","51","1758.91572404","direct","2","1","3","¿Cuántos capítulos de
 Friends existen? ","236","228","","1","1","1","competitive","left","3.03322386742","1761.94901896","1.96677613258","1764.07081604","3.06302285194","1767.13387394","2.93697714806","1770.10670614","1771.41228414","1771.49198198","1774.49497294","1","1774.50817895","1776.88377213",""
"sujeto_0051018","11","2","20","52","1777.02661705","inverse","1","1","3","¿Cuántas óperas compuso Mozart? ","27","22","","1","1","1","competitive","right","1.58928394318","1778.61597395","3.41071605682","1782.18230104","2.86364102364","1785.04600215","3.13635897636","1788.21590996","1789.50805807","1789.58437705","1792.58735895","1","1792.60126305","1799.91272902",""
"sujeto_0051018","11","2","21","53","1800.06915307","direct","4","1","3","¿Cuántos mundiales de fútbol 
femenino ha realizado FIFA? ","9","7","","1","1","1","competitive","left","3.10476517677","1803.17398906","1.89523482323","1805.22680593","3.69113707542","1808.91801095","2.30886292458","1811.27790213","1812.52163506","1812.59584904","1815.5988071","1","1815.61265898","1821.71511912",""
"sujeto_0051018","11","2","22","54","1821.88109398","inverse","3","1","2","¿Cuál es la temperatura 
media anual en Montevideo? ","17.5","16.3","","0","0","1","competitive","right","1.82682800293","1823.70804","3.17317199707","1827.05555701","4.88437485695","1831.93997192","1.11562514305","1833.10708809","1835.04444695","1835.12380004","1838.12444711","0","1838.14153409","1844.7110641",""
"sujeto_0051018","11","2","23","55","1844.84293914","direct","2","1","2","¿En qué año se estrenó el
 videojuego The Sims? ","2000","2002","","0","0","0","competitive","right","2.73301005363","1847.57601714","2.26698994637","1849.99916101","2.97771596909","1852.97693014","3.02228403091","1856.05048203","1857.91245604","1857.98528409","1860.98826694","0","1861.00339103","1868.39704299",""
"sujeto_0051018","11","2","24","56","1868.53850508","inverse","2","1","1","¿Cuál es la canción con 
mas covers? ","Yesterday","Stand by me","","0","0","0","competitive","left","1.54239201546","1870.08096004","3.45760798454","1873.69590497","4.81899309158","1878.5149591","1.18100690842","1879.7466681","1881.14440393","1881.21397805","1884.216923","0","1884.23095894","1888.40175104",""
"sujeto_0051018","11","2","25","57","1888.54980206","direct","1","1","4","¿Cuánto duró la guerra
 de los 100 años?","116","123","","0","0","0","competitive","right","2.29109597206","1890.84096193","2.70890402794","1893.70330501","3.60257196426","1897.30593705","2.39742803574","1899.74011207","1901.22043514","1901.29080296","1904.29377413","0","1904.30867696","1906.62846613",""
"sujeto_0051018","11","2","26","58","1906.77629495","inverse","4","1","4","¿Qué color tiene la  bandera de Brasil?","Amarillo","Naranja","left","0","0","1","competitive","left","1.67465209961","1908.45100808","3.32534790039","1911.94884801","2.3590798378","1914.30798793","3.6409201622","1917.99880505","1919.565341","1919.63410997","1922.6370821","1","1922.65125108","1925.68405414",""
"sujeto_0051018","11","2","27","59","1925.85244203","direct","4","1","3","¿Qué carabela de 
Colon no volvió del viaje?","Santa María","La pinta","","0","0","1","competitive","right","1.68250703812","1927.53504515","3.31749296188","1931.02598715","4.89592504501","1935.92197108","1.10407495499","1937.07698107","1938.56801796","1938.64355707","1941.64653611","0","1941.66067195","1943.76013112",""
"sujeto_0051018","11","2","28","60","1943.92955804","inverse","4","1","4","¿Cuántos huesos tiene
 un adulto humano?","217","206","","0","0","1","competitive","right","1.39733099937","1945.32695198","3.60266900063","1949.13445616","2.95045590401","1952.0849781","3.04954409599","1955.18503904","1956.45606899","1956.53629398","1959.53928399","0","1959.55317807","1967.39084911",""
"sujeto_0051018","11","2","29","61","1967.53875995","direct","1","1","1","¿Qué país africano fue 
fundado por esclavos?","Liberia","Chad","","0","0","0","competitive","right","2.0501909256","1969.58899713","2.9498090744","1972.71311092","4.68173599243","1977.39490604","1.31826400757","1978.76461697","1980.75626206","1980.8315351","1983.83450913","0","1983.84914613","1991.83995295",""
"sujeto_0051018","11","2","30","62","1991.98404193","inverse","4","1","2","¿A cuánto asciende la cima
 del monte Everest?","7.990 mts","8.848 mts","","0","0","1","competitive","left","3.54184317589","1995.52593398","1.45815682411","1997.1423161","4.69461202621","2001.83696699","1.30538797379","2003.19233203","2004.37715507","2004.45965314","2007.46267104","0","2007.47676301","2014.66049099",""
"sujeto_0051018","11","2","31","63","2014.81084204","direct","4","1","1","¿Cuál es el país mas chico?","Sealand","Luxemburgo","","1","1","1","individual","right","3.31808400154","2018.12898803","1.68191599846","2019.97024107","3.55965614319","2023.52996492","2.44034385681","2026.02201796","2027.88555002","2027.92260194","2030.92557311","1","2030.94089413","2034.06318307",""
"sujeto_0051018","11","2","32","64","2034.20917702","inverse","2","1","4","¿Cuántas pirámides hay en Egipto?","10000","11000","","1","1","1","competitive","right","1.9777610302","2036.18698597","3.0222389698","2039.38094711","4.46302700043","2043.84401512","1.53697299957","2045.415133","2046.44874716","2046.51601911","2049.51643896","1","2049.53262806","2054.64171505",""
"sujeto_0051018","11","3","1","65","2165.76147795","direct","2","1","2","¿Cuál es el quinto país con 
mas extensión?","Canadá","Brasil","","1","1","0","competitive","left","1.47547411919","2167.23699594","3.52452588081","2170.91538596","4.95645093918","2175.87187195","1.04354906082","2176.94985414","2178.28310704","2178.36711693","2181.36842299","1","2181.38451409","2189.11084199","2054.65608001"
"sujeto_0051018","11","3","2","66","2189.25250912","inverse","1","1","2","¿Qué rasgo facial no tiene
 la Mona Lisa?","Cejas","Pómulos","","0","0","1","competitive","","2.10845899582","2191.36103415","2.89154100418","2194.40895796","6","2200.40910792","0","2200.42869401","2202.17904902","2202.26295614","2205.26591301","0","2205.28101707","2211.55236793",""
"sujeto_0051018","11","3","3","67","2211.68149114","direct","4","1","3","¿Cuál es el país con 
mayor población?","Esados Unidos","China","right","0","0","1","competitive","right","1.65946602821","2213.34102011","3.34053397179","2216.83922315","3.8466501236","2220.68590808","2.1533498764","2222.88905001","2224.53502607","2224.60723805","2227.61022305","1","2227.62439203","2230.99173093",""
"sujeto_0051018","11","3","4","68","2231.12616706","inverse","1","1","1","La palabra dinosaurio significa","Lagarto Terrible","Lagarto Dragón","","1","1","0","competitive","","0.973845005035","2232.10008001","4.02615499496","2236.2819891","6","2242.28209805","0","2242.29726815","2243.46760511","2243.55051208","2246.55349898","0","2246.56749511","2249.42842603",""
"sujeto_0051018","11","3","5","69","2249.56957006","direct","2","1","3","¿Qué es el membrillero?","Arbol","Arbusto","","0","0","0","competitive","right","3.03639292717","2252.60602593","1.96360707283","2254.75535893","3.96757006645","2258.72299314","2.03242993355","2260.80848503","2262.7626071","2262.84317493","2265.84616804","0","2265.86048102","2272.32448697",""
"sujeto_0051018","11","3","6","70","2272.46209502","inverse","3","1","3","¿Alrededor de qué planeta orbita 
el satélite Europa?","Jupiter","Saturno","","1","1","1","competitive","right","1.85186982155","2274.31402898","3.14813017845","2277.63495994","5.25902295113","2282.89405012","0.740977048874","2283.68867707","2285.23234296","2285.30547094","2288.30843806","1","2288.32246614","2290.52764797",""
"sujeto_0051018","11","3","7","71","2290.65752196","direct","3","1","1","¿Donde fue el mundial de 
fútbol de 1954?","Suiza","Suecia","","1","1","1","competitive","left","2.3694601059","2293.02702594","2.6305398941","2295.81254601","3.53439593315","2299.3469851","2.46560406685","2301.86347008","2303.11608815","2303.19860101","2306.20158696","1","2306.21553016","2310.127321",""
"sujeto_0051018","11","3","8","72","2310.26644015","inverse","1","1","4","¿Cuál de los 7 enanitos
no tenía barba?","Bashful","Mudito","","1","1","0","competitive","right","1.69550299644","2311.96200705","3.30449700356","2315.42309499","3.3378469944","2318.76098394","2.6621530056","2321.47242904","2323.05257607","2323.14057803","2326.14356112","1","2326.15736508","2331.08442593",""
"sujeto_0051018","11","3","9","73","2331.22529602","direct","3","1","2","¿Cual red social es
mas utilizada mundialmente?","Instagram","Facebook","","1","1","0","competitive","right","1.35070586205","2332.57610893","3.64929413795","2336.41683698","3.23609685898","2339.65299296","2.76390314102","2342.46683693","2344.38421702","2344.46898293","2347.47196603","1","2347.486058","2350.42042899",""
"sujeto_0051018","11","3","10","74","2350.55448008","inverse","4","1","1","¿Cuándo se inició la copa
 América de fútbol?","1916","1923","","1","1","1","competitive","left","1.42944216728","2351.98399711","3.57055783272","2355.76034212","2.983533144","2358.74393415","3.016466856","2361.81005692","2363.70748496","2363.77840114","2366.78136897","1","2366.79561496","2369.45178604",""
"sujeto_0051018","11","3","11","75","2369.59844303","direct","3","1","4","¿Cuántos presidentes de EEUU
han muerto asesinados?","3","4","","0","0","1","competitive","right","2.23650503159","2371.83499408","2.76349496841","2374.78497195","2.58901596069","2377.37404799","3.41098403931","2380.83720994","2382.3211081","2382.40589213","2385.406394","0","2385.42259097","2389.06670499",""
"sujeto_0051018","11","3","12","76","2389.20799398","inverse","2","1","4","¿Cuántas veces participó EEUU
 en la copa América?","4","5","","0","0","1","competitive","left","1.77695703506","2390.98502398","3.22304296494","2394.38094711","4.86404299736","2399.24502993","1.13595700264","2400.43008399","2401.8741951","2401.94693899","2404.94990611","0","2404.96358204","2411.076437",""
"sujeto_0051018","11","3","13","77","2411.23249292","direct","4","1","1","¿Cuál de estos países 
no formaba la URSS?","Azeribayán","Afganistán","","0","0","1","individual","left","2.96743798256","2414.19999695","2.03256201744","2416.40784693","4.20117402077","2420.60906601","1.79882597923","2422.45915914","2423.77224207","2423.81026101","2426.81323814","0","2426.82740211","2434.80954313",""
"sujeto_0051018","11","3","14","78","2434.94497514","inverse","1","1","1","¿En qué año se inauguró
 el teatro Solís?","1867","1856","","0","0","0","competitive","right","2.31900596619","2437.26404715","2.68099403381","2440.13603497","3.37986302376","2443.51595998","2.62013697624","2446.17158413","2447.22781396","2447.30641913","2450.30844092","0","2450.32243395","2456.97020316",""
"sujeto_0051018","11","3","15","79","2457.12458801","direct","1","1","4","¿A qué velocidad vuela 
el avión más rápido?","3529","3874","","0","0","0","competitive","left","2.86935591698","2459.99401093","2.13064408302","2462.29645205","4.1354868412","2466.43197799","1.8645131588","2468.34961915","2470.10514212","2470.18412805","2473.18706703","0","2473.20137715","2475.311656",""
"sujeto_0051018","11","3","16","80","2475.47003794","inverse","3","1","4","¿De qué año es la primer 
película cinematográfica?","1897","1888","","0","0","0","competitive","left","1.60893106461","2477.07903814","3.39106893539","2480.63758993","3.80044198036","2484.43809295","2.19955801964","2486.689888","2487.82282615","2487.90773201","2490.91074705","0","2490.9249301","2496.3347311",""
"sujeto_0051018","11","3","17","81","2496.50957704","direct","2","1","3","¿Cuántos países 
tiene nuestro planeta?","191","194","","1","1","1","competitive","right","3.10139918327","2499.61104012","1.89860081673","2501.68383503","3.15612483025","2504.84000015","2.84387516975","2507.73671913","2509.09392905","2509.17039609","2512.17337394","1","2512.18852615","2515.42679405",""
"sujeto_0051018","11","3","18","82","2515.57327604","inverse","2","1","2","¿Cuántos habitantes
 tiene Buenos Aires?","2.9000.000","3650000","","0","0","0","competitive","left","2.6105799675","2518.18389201","2.3894200325","2520.74395514","3.41900706291","2524.16302013","2.58099293709","2526.79566097","2528.19237494","2528.26404405","2531.26697898","0","2531.28087115","2537.10842299",""
"sujeto_0051018","11","3","19","83","2537.24970198","direct","2","1","1","¿Cuántos kilos forman una tonelada?","1000","1500","left","1","1","1","","","","","","","","","","","","","","","2542.27162695","2548.22900915",""
"sujeto_0051018","11","3","20","84","2548.37200093","inverse","4","1","4","¿Cuántos estados tiene la 
República del Perú? ","24","23","","0","0","1","competitive","left","2.64999604225","2551.02204204","2.35000395775","2553.54409099","3.39291286469","2556.93704605","2.60708713531","2559.59672499","2560.61888814","2560.69733214","2563.70033193","0","2563.71433902","2568.65964198",""
"sujeto_0051018","11","3","21","85","2568.79917502","direct","3","1","3","¿En qué año nació Cristóbal Colón? ","1451","1447","","0","0","1","competitive","left","2.50781202316","2571.30703497","2.49218797684","2573.95469999","3.41629695892","2577.37106395","2.58370304108","2579.99036098","2581.83627415","2581.92516112","2584.92814493","0","2584.94207311","2589.17006707",""
"sujeto_0051018","11","3","22","86","2589.31009293","inverse","4","1","4","¿Cuánto mide la 
Montaña Aconcagua? ","6234","6962","","0","0","1","competitive","right","1.11294293404","2590.42310596","3.88705706596","2594.47967505","4.3052752018","2598.78501606","1.6947247982","2600.53276205","2601.82213211","2601.90052199","2604.90352702","0","2604.91727495","2612.10089993",""
"sujeto_0051018","11","3","23","87","2612.25248504","direct","2","1","4","¿Cuánto mide el punto
 más profundo del océano? ","12508","11003","","0","0","1","individual","right","2.55151486397","2614.80406594","2.44848513603","2617.40750194","3.31539607048","2620.72295904","2.68460392952","2623.44579101","2624.69640207","2624.74742794","2627.75041008","0","2627.76464105","2631.97089005",""
"sujeto_0051018","11","3","24","88","2632.11556315","inverse","1","1","3","¿Cuántos álbumes ha publicado 
el cantante Jaime Roos? ","41","34","","0","0","1","","","","","","","","","","","","","","","2637.13904595","2643.33243704",""
"sujeto_0051018","11","3","25","89","2643.47101998","direct","4","1","3","¿En qué año nació el 
ex-presidente Jorge Battle? ","1921","1927","","1","1","1","competitive","right","1.86599493027","2645.33705807","3.13400506973","2648.65831804","3.03965592384","2651.69803596","2.96034407616","2654.71158409","2656.44228315","2656.51326203","2659.51622796","1","2659.53060007","2663.01658607",""
"sujeto_0051018","11","3","26","90","2663.1670711","inverse","1","1","3","¿Cuántas presidencias 
constitucionales  hubo en Uruguay? ","41","42","","0","0","1","competitive","right","1.75994706154","2664.92708302","3.24005293846","2668.32113099","3.74187493324","2672.06305194","2.25812506676","2674.35477495","2675.55853415","2675.63950396","2678.64248896","0","2678.65676594","2684.43639112",""
"sujeto_0051018","11","3","27","91","2684.57501316","direct","1","1","2","¿Quién escribió mas sinfonías?","Mozart","Haydn","","1","1","0","competitive","left","2.86002707481","2687.43510294","2.13997292519","2689.72982693","2.48117399216","2692.21104193","3.51882600784","2695.76581907","2696.98329496","2697.06816411","2700.07112598","1","2700.0850141","2703.83642006",""
"sujeto_0051018","11","3","28","92","2704.00386906","inverse","4","1","2","¿En qué año nació Michael Jackson?","1958","1953","","1","1","1","competitive","right","2.02317380905","2706.02711201","2.97682619095","2709.15805411","4.13184118271","2713.28993416","1.86815881729","2715.21016192","2717.18837595","2717.260638","2720.26363015","1","2720.278754","2726.14039993",""
"sujeto_0051018","11","3","29","93","2726.28004813","direct","3","1","2","¿En qué año entró en vigencia 
la ley antitabaco en Uruguay?","2005","2006","","1","1","1","competitive","right","3.54594302177","2729.82604408","1.45405697823","2731.45392013","5.20111107826","2736.6550951","0.798888921738","2737.50566602","2739.10043502","2739.17195606","2742.17489505","1","2742.19008803","2747.52408195",""
"sujeto_0051018","11","3","30","94","2747.65821195","inverse","3","1","1","¿Cuándo se subió el 
primer video a youtube?","2004","2005","","0","0","1","competitive","left","2.18580698967","2749.84408402","2.81419301033","2752.81341004","3.29750800133","2756.1109581","2.70249199867","2758.84832406","2760.15397716","2760.23297811","2763.23593593","0","2763.25108695","2771.00670815",""
"sujeto_0051018","11","3","31","95","2771.13550997","direct","2","1","1","¿Cuántos habitantes tiene India?","1200 millones","1300 millones","","0","0","0","individual","left","2.15547204018","2773.29102516","2.84452795982","2776.29184914","2.73310112953","2779.02500701","3.26689887047","2782.34312296","2784.31278896","2784.36201215","2787.36491299","0","2787.38006902","2793.42442012",""
"sujeto_0051018","11","3","32","96","2793.56433105","inverse","4","1","2","¿A qué edad murió Bob Marley?","36","37","","0","0","1","individual","right","3.38262319565","2796.947016","1.61737680435","2798.75419211","2.2797729969","2801.03402495","3.7202270031","2804.78800011","2806.68579316","2806.72353601","2809.72650814","0","2809.74036407","2812.84281898",""
"sujeto_0051018","11","4","1","97","2971.96620393","direct","2","1","1","¿Cuantos años dirigió la selección 
uruguaya Tabarez?","15 años","13 años","","0","0","0","competitive","right","2.37983512878","2974.34610295","2.62016487122","2977.13031602","2.95367598534","2980.08403111","3.04632401466","2983.180125","2984.37125397","2984.44889593","2987.45185304","0","2987.465832","2994.53783798","2812.85863996"
"sujeto_0051018","11","4","2","98","2994.68389511","inverse","4","1","1","¿Cuantas teclas tiene un teclado 
de computadora generalmente? ","Entre 99 y 108","Entre 109 y 113","","1","1","1","competitive","left","1.19816803932","2995.88213706","3.80183196068","2999.84123302","5.33084797859","3005.1721251","0.669152021408","3005.89343715","3006.89619994","3006.97662711","3009.97961211","1","3009.99356198","3012.36441207",""
"sujeto_0051018","11","4","3","99","3012.51249695","direct","1","1","1","¿Cuál Departamento tiene
 mayor superficie?","Río Negro","Soriano","","0","0","0","competitive","right","2.24448609352","3014.7570281","2.75551390648","3017.66790414","2.40606403351","3020.07402706","3.59393596649","3023.71573997","3025.42841816","3025.50063515","3028.503618","0","3028.51883411","3032.84440804",""
"sujeto_0051018","11","4","4","100","3032.98716593","inverse","3","1","2","¿Cuál es el apellido de las 
hermanastras  de  cenicienta?","Tremaine","Truman","","0","0","1","competitive","left","0.888975858688","3033.87618899","4.11102414131","3038.14418411","4.09075903893","3042.23498011","1.90924096107","3044.17873096","3046.04826307","3046.12898898","3049.13194299","0","3049.14714599","3051.84310508",""
"sujeto_0051018","11","4","5","101","3051.982054","direct","4","1","4","¿Cuál película ganó un
 Oscar a mejor película?","Alto Impacto","Cache","","0","0","1","competitive","left","3.15195989609","3055.13410711","1.84804010391","3057.18786812","3.32217097282","3060.5100801","2.67782902718","3063.23817205","3064.35753608","3064.44039011","3067.44335794","0","3067.45728612","3069.72040415",""
"sujeto_0051018","11","4","6","102","3069.85887694","inverse","1","1","3","¿A cuántos centímetros
equivale la medida pié?","25","30","","0","0","1","competitive","right","1.96822500229","3071.82720113","3.03177499771","3075.02956796","3.1014559269","3078.13108802","2.8985440731","3081.07845592","3082.11845493","3082.19692898","3085.19985199","0","3085.21402311","3090.61492515",""
"sujeto_0051018","11","4","7","103","3090.76575398","direct","2","1","2","¿Qué departamento es mas grande?","Cerro Largo","Paysandú","","0","0","0","competitive","right","3.40726304054","3094.17309213","1.59273695946","3095.923913","3.17910385132","3099.1030581","2.82089614868","3101.95901704","3103.55882001","3103.64404607","3106.64699411","0","3106.66023803","3110.77019596",""
"sujeto_0051018","11","4","8","104","3110.91238213","inverse","2","1","3","¿Quién pintó la Mona Lisa?","Picasso","Da Vinci","right","0","0","1","competitive","right","3.18965697289","3114.10208511","1.81034302711","3116.06792903","3.03912496567","3119.10709596","2.96087503433","3122.11876297","3123.724617","3123.80390716","3126.80686092","1","3126.82081509","3128.98310494",""
"sujeto_0051018","11","4","9","105","3129.12240314","direct","4","1","3","¿Cuántos litros hay en un galon?","3.54","3.78","","1","1","1","competitive","left","3.53163790703","3132.65411615","1.46836209297","3134.32412815","3.09187293053","3137.41606307","2.90812706947","3140.37693715","3141.89481807","3141.97884011","3144.98184299","1","3144.99617815","3150.78853393",""
"sujeto_0051018","11","4","10","106","3150.93200898","inverse","4","1","1","¿Cuántas teclas tiene
 un piano moderno?","80","88","","0","0","1","competitive","right","3.17499804497","3154.10707903","1.82500195503","3156.08815312","2.78992009163","3158.87811303","3.21007990837","3162.13963199","3163.14808011","3163.22405696","3166.22704196","0","3166.24120903","3173.03891015",""
"sujeto_0051018","11","4","11","107","3173.17560697","direct","4","1","3","¿Cuántos países hay en África?","54","62","","0","0","1","competitive","right","1.637403965","3174.81307793","3.362596035","3178.33322001","2.31576704979","3180.64904714","3.68423295021","3184.36688614","3186.05638695","3186.13511801","3189.13806009","0","3189.15224314","3196.95637393",""
"sujeto_0051018","11","4","12","108","3197.10360503","inverse","1","1","3","¿En qué siglo se crearon
 las primeras pistolas?","XV","XIII","","1","1","1","competitive","left","1.83748888969","3198.94117713","3.16251111031","3202.27858996","3.38542199135","3205.66405296","2.61457800865","3208.32931805","3210.27718711","3210.34715104","3213.35009003","1","3213.36505914","3216.59812212",""
"sujeto_0051018","11","4","13","109","3216.73357606","direct","3","1","4","¿En qué año se estrenó 
la serie friends?","1994","1995","","0","0","1","competitive","right","1.95051217079","3218.68413711","3.04948782921","3221.90529108","3.32772803307","3225.2330811","2.67227196693","3227.94051695","3229.81586695","3229.89122701","3232.89416003","0","3232.90909696","3237.91511798",""
"sujeto_0051018","11","4","14","110","3238.04384613","inverse","3","1","4","¿En qué año nació Hitler?","1889","1887","","0","0","1","competitive","right","1.09624314308","3239.14013505","3.90375685692","3243.19975114","2.36428594589","3245.56409693","3.63571405411","3249.24957609","3250.36392093","3250.43500113","3253.435745","0","3253.45189714","3258.47886896",""
"sujeto_0051018","11","4","15","111","3258.60385513","direct","1","1","4","¿Cuánto pesa un elefante Africano?","6000 kilos","5400 kilos","","0","0","0","competitive","right","2.22020101547","3260.82412195","2.77979898453","3263.75962114","3.49836206436","3267.25804114","2.50163793564","3269.81189704","3271.16782498","3271.24644709","3274.24942994","0","3274.26348495","3280.97055101",""
"sujeto_0051018","11","4","16","112","3281.11538911","inverse","1","1","2","¿Qué porcentaje de 
la población es zurda?","10%","7%","","1","1","0","competitive","right","2.19068598747","3283.30613995","2.80931401253","3286.27196598","3.22002792358","3289.492033","2.77997207642","3292.32275915","3293.56585598","3293.64079213","3296.64379811","1","3296.65868211","3302.63842201",""
"sujeto_0051018","11","4","17","113","3302.77681208","direct","1","1","2","¿En qué año se estrenó
Volver al futuro?","1984","1985","","0","0","1","competitive","left","1.62421822548","3304.40110207","3.37578177452","3307.93280196","3.50320696831","3311.43605208","2.49679303169","3313.98278713","3315.544626","3315.61789107","3318.62086201","0","3318.63476515","3325.72622108",""
"sujeto_0051018","11","4","18","114","3325.88625193","inverse","3","1","2","¿Cuántos jugadores hay en un 
equipo de baseball?","9","8","","1","1","0","competitive","left","2.80781197548","3328.6941371","2.19218802452","3331.04256415","4.17444396019","3335.21707201","1.82555603981","3337.09523797","3338.70948911","3338.77929306","3341.78224301","1","3341.79603195","3346.77327394",""
"sujeto_0051018","11","4","19","115","3346.89811611","direct","2","1","1","¿Cuántos Oscar ganó
 la película titanic?","13","11","","1","1","1","competitive","left","3.73094701767","3350.62911797","1.26905298233","3352.05683208","2.67615914345","3354.73302913","3.32384085655","3358.10715294","3359.40922403","3359.49152493","3362.49451303","1","3362.50875711","3367.10844612",""
"sujeto_0051018","11","4","20","116","3367.24359107","inverse","4","1","4","¿En qué año comenzó
la segunda guerra mundial?","1939","1976","left","0","0","1","competitive","right","2.85446715355","3370.09811902","2.14553284645","3372.41577005","3.15331411362","3375.56914496","2.84668588638","3378.46718001","3380.26697898","3380.35233116","3383.35528207","0","3383.36927104","3387.35640597",""
"sujeto_0051018","11","4","21","117","3387.50424504","direct","2","1","4","¿Cuántos biomas hay en Uruguay?","5","4","","0","0","1","competitive","left","2.81883502007","3390.32312298","2.18116497993","3392.65650916","2.15357613564","3394.81012893","3.84642386436","3398.69420409","3400.49156213","3400.56286407","3403.56442094","0","3403.58040309","3409.82982111",""
"sujeto_0051018","11","4","22","118","3409.9819181","inverse","2","1","3","¿Cuándo murió Pablo Escobar?","1993","1997","","1","1","1","competitive","right","2.28910899162","3412.27107215","2.71089100838","3415.13354397","3.31154894829","3418.44513297","2.68845105171","3421.17295194","3422.95579815","3423.04111004","3426.04409695","1","3426.05840302","3431.76207209",""
"sujeto_0051018","11","4","23","119","3431.90966105","direct","1","1","4","¿Qué serie ha ganado mas premios?","Friends","Murphy Brown","","1","1","0","competitive","left","2.51134085655","3434.42104316","2.48865914345","3437.0653131","2.59264707565","3439.65802002","3.40735292435","3443.11712193","3444.46951199","3444.55219698","3447.55239916","1","3447.56959796","3453.12834907",""
"sujeto_0051018","11","4","24","120","3453.27077413","inverse","4","1","2","¿Cuántas fichas tiene el dominó?","26","28","","1","1","1","competitive","right","2.67629408836","3455.94713402","2.32370591164","3458.44308996","2.79095888138","3461.23411202","3.20904111862","3464.49485803","3465.55013514","3465.62947798","3468.63240814","1","3468.64729309","3473.88839912",""
"sujeto_0051018","11","4","25","121","3474.03148413","direct","2","1","4","¿Cuántos son los dientes de leche?","20","25","","0","0","1","competitive","right","2.30858492851","3476.340132","2.69141507149","3479.18654108","3.10449314117","3482.29109311","2.89550685883","3485.23919797","3486.94839716","3487.02389193","3490.02687216","0","3490.04128599","3492.18695307",""
"sujeto_0051018","11","4","26","122","3492.3595891","inverse","3","1","3","¿Cuántos gramos son una onza?","22","28","","0","0","1","individual","left","2.82648205757","3495.18614507","2.17351794243","3497.51245594","2.71354794502","3500.22604203","3.28645205498","3503.54849505","3505.54334712","3505.58368993","3508.58665705","0","3508.60138607","3514.89163399",""
"sujeto_0051018","11","4","27","123","3515.05257607","direct","3","1","1","¿Cuándo salió el primer album
 de los Beatles?","1963","1962","","1","1","1","individual","right","4.31450676918","3519.36716604","0.68549323082","3520.22441602","4.29553794861","3524.51998997","1.70446205139","3526.26024508","3527.42388201","3527.46088409","3530.46387196","1","3530.47911906","3534.25110793",""
"sujeto_0051018","11","4","28","124","3534.38057494","inverse","3","1","3","¿Quién fundó la empresa apple?","Carlos Slim","Steve Jobs","","1","1","1","competitive","right","2.1844599247","3536.5651021","2.8155400753","3539.53478408","4.06529021263","3543.60012007","1.93470978737","3545.58688307","3546.70150995","3546.77162814","3549.77461195","1","3549.78869915","3556.08656096",""
"sujeto_0051018","11","4","29","125","3556.22318316","direct","4","1","2","¿Cuántos municipios hay
 en Montevideo?","8","7","","1","1","1","competitive","right","2.21191692352","3558.43516397","2.78808307648","3561.3786211","3.80139684677","3565.18006516","2.19860315323","3567.43194199","3569.34671593","3569.43301916","3572.43593693","1","3572.44987202","3574.531003",""
"sujeto_0051018","11","4","30","126","3574.66873908","inverse","1","1","1","¿Cuántos kilómetros hay
 de Montevideo a Artigas?","632","599","","0","0","0","individual","left","3.305311203","3577.974123","1.694688797","3579.82304716","3.62101006508","3583.44413805","2.37898993492","3585.87375593","3587.35685897","3587.40906811","3590.41201806","0","3590.42611313","3596.475945",""
"sujeto_0051018","11","4","31","127","3596.62894106","direct","2","1","2","¿En qué año nació 
Leonardo Da Vinci?","1452","1511","","1","1","0","individual","right","1.89212799072","3598.52113414","3.10787200928","3601.802315","2.46778202057","3604.2701571","3.53221797943","3607.85143399","3609.70438814","3609.75381708","3612.7568171","1","3612.77090812","3615.91727614",""
"sujeto_0051018","11","4","32","128","3616.05591297","inverse","3","1","1","¿A qué continente
 pertenece el país Gabón?","Africa","Oceanía","","0","0","1","individual","right","3.99513602257","3620.05113101","1.00486397743","3621.20849705","3.45253992081","3624.66109514","2.54746007919","3627.26174212","3629.07242608","3629.11291194","3632.11587596","0","3632.13078713","3637.36869812",""
