"code","nro_aplicante","nro_bloque","nro_trial_bloque","nro_trial_global","show_game_type","choice_order","rival","pay_individual","pay_competitive","question","answer_left_text","answer_right_text","correct_answer","outcome_individual","outcome_competitive","outcome_rival","game_type","answer","social_time","rt_game_type","feedback_delay","show_question","answer_time","rt_answer_global","feedback_delay_2","show_jitter","jitter_time","show_outcome","outcome_time","outcome_participant_real","show_final_jitter","second_jitter_time","inicio_descanso"
"sujeto_63c82dc6","1","1","1","1","74.0264840126","direct","3","1","4","¿Cuántos centímetros corresponden
al talle 36 del calzado?","23","24","","0","0","1","competitive","left","1.26174998283","75.2882769108","3.73825001717","79.1948039532","4.82441186905","84.0192630291","1.17558813095","85.2312459946","86.2595448494","86.3320329189","89.3341629505","0","89.3491649628","91.5116698742",""
"sujeto_63c82dc6","1","1","2","2","91.6513228416","inverse","3","1","2","¿Cuántas metros mide la Intendencia
Municipal de Montevideo? ","84","78","","0","0","1","competitive","left","1.99503397942","93.6464240551","3.00496602058","96.8071238995","3.83129096031","100.638458967","2.16870903969","102.844609976","104.722650051","104.812711","107.815690994","0","107.830391884","109.923168898",""
"sujeto_63c82dc6","1","1","3","3","110.06578207","direct","1","1","3","¿Cuántas La Pasiva
 hay en uruguay?","15","11","","1","1","1","competitive","left","2.01569008827","112.081521034","2.98430991173","115.218564034","2.58195018768","117.800555944","3.41804981232","121.270097017","122.881780863","122.955307007","125.958292961","1","125.96876502","130.247110844",""
"sujeto_63c82dc6","1","1","4","4","130.386716843","inverse","3","1","3","¿De que color es la camiseta de uruguay?","blanca","celeste","right","1","1","1","competitive","right","1.5589029789","131.945668936","3.4410970211","135.527721882","2.646889925","138.174677849","3.353110075","141.576416969","142.781184912","142.862437963","145.862933874","1","145.879520893","149.333463907",""
"sujeto_63c82dc6","1","1","5","5","149.481261969","direct","2","1","1","¿Cuánto metros mide
la torre Eiffel?","333","324","","1","1","1","competitive","left","1.98944592476","151.470751047","3.01055407524","154.623513937","3.79528403282","158.418859959","2.20471596718","160.657533884","162.178920984","162.259338856","165.262325048","1","165.277063847","172.313695908",""
"sujeto_63c82dc6","1","1","6","6","172.461109877","inverse","3","1","4","¿Cuantas ciudades existen
 en todo el uruguay?","63","72","","0","0","1","competitive","left","2.09679794312","174.557950974","2.90320205688","177.618886948","3.60002303123","181.218950987","2.39997696877","183.66831398","184.723129988","184.802433014","187.805412054","0","187.819922924","195.442971945",""
"sujeto_63c82dc6","1","1","7","7","195.605097055","direct","1","1","1","¿Cuantos estados tiene África?","52","54","","1","1","0","competitive","left","1.86897110939","197.474164963","3.13102889061","200.764410973","3.68669581413","204.451159","2.31330418587","206.814477921","208.678499937","208.766258001","211.769239902","1","211.778559923","217.536290884",""
"sujeto_63c82dc6","1","1","8","8","217.67967701","inverse","4","1","4","¿En qué año nació
 Stephen Hawking?","1952","1942","","0","0","1","competitive","right","1.54753112793","219.227272987","3.45246887207","222.842658997","4.79465913773","227.63735795","1.20534086227","228.889569044","230.333885908","230.423549891","233.426514864","0","233.442534924","239.541898012",""
"sujeto_63c82dc6","1","1","9","9","239.676481962","direct","2","1","3","¿Cuánto años tenía Artigas
 cuando se fue a Paraguay?","56","57","","1","1","1","individual","left","1.15794110298","240.834465981","3.84205889702","244.819339991","4.44502520561","249.264410019","1.55497479439","250.869600058","252.419112921","252.471361876","255.47430706","1","255.488843918","261.536174059",""
"sujeto_63c82dc6","1","1","10","10","261.707031012","inverse","1","1","2","¿Cuantos milímetros 
mide una hoja A2?","420x592","420x594","","0","0","1","competitive","","1.20053720474","262.907635927","3.79946279526","266.865658045","6","272.865779877","0","272.881093025","274.449472904","274.533915997","277.536854982","0","277.551573992","284.625213861",""
"sujeto_63c82dc6","1","1","11","11","284.786013842","direct","3","1","3","¿Cuál es la menor temperatura 
registrada en Uruguay?","-5.4","-7.4","","0","0","1","competitive","left","2.39170503616","287.177778959","2.60829496384","289.942191839","3.37255811691","293.314812899","2.62744188309","295.994873047","297.676910877","297.758239031","300.761219978","0","300.774850845","304.508151054",""
"sujeto_63c82dc6","1","1","12","12","304.644149065","inverse","2","1","2","¿Cuantos años hace que 
se fundó facebook?","18","17","","0","0","0","competitive","left","1.97370815277","306.617971897","3.02629184723","309.804158926","3.22371697426","313.027917862","2.77628302574","315.852669954","317.224227905","317.303753853","320.306717873","0","320.321107864","323.095741987",""
"sujeto_63c82dc6","1","1","13","13","323.239361048","direct","1","1","4","¿Cuál animal es más
 pesado en promedio?","Rinoceronte","Hipopotamo","","0","0","0","competitive","right","3.39157605171","326.631002903","1.60842394829","328.396348","3.41266107559","331.809067965","2.58733892441","334.431571007","335.510841846","335.582954884","338.585891008","0","338.600462914","342.441482067",""
"sujeto_63c82dc6","1","1","14","14","342.63498807","inverse","1","1","2","¿Qué personaje de dragon ball 
murió más veces?","Chaoz","Krillin","","1","1","0","competitive","right","0.981182098389","343.616226912","4.01881790161","347.788881063","3.20626115799","350.995182991","2.79373884201","353.841326952","355.29913187","355.376364946","358.379162073","1","358.394171","366.167075872",""
"sujeto_63c82dc6","1","1","15","15","366.309294939","direct","3","1","2","La universidad de oxford. 
existe desde:","1096","1249","","1","1","0","competitive","right","1.80703496933","368.116392851","3.19296503067","371.469923019","3.67841005325","375.148376942","2.32158994675","377.503289938","378.552141905","378.637345076","381.640269995","1","381.654825926","388.345627069",""
"sujeto_63c82dc6","1","1","16","16","388.489629984","inverse","3","1","1","¿Qué escritor latino ganó antes
 el premio nobel?"," García Marquez","Neruda","","0","0","1","competitive","left","2.11380887032","390.603502035","2.88619112968","393.681200027","3.02118897438","396.702447891","2.97881102562","399.731997013","401.471999884","401.550626993","404.553570986","0","404.567930937","408.028193951",""
"sujeto_63c82dc6","1","1","17","17","408.169295073","direct","4","1","3","¿Cuántos dientes tiene un
 tiburón blanco?","6000","3000","","0","0","1","competitive","right","1.71629095078","409.885628939","3.28370904922","413.325162888","3.52638292313","416.851585865","2.47361707687","419.357847929","420.396801949","420.476800919","423.479737043","0","423.490222931","428.299856901",""
"sujeto_63c82dc6","1","1","18","18","428.44204402","inverse","4","1","1","¿Cuánto mide el paralelo Ecuador?","40.000km","70.000km","","0","0","1","competitive","right","2.57170820236","431.013813972","2.42829179764","433.615144968","3.80264997482","437.417855024","2.19735002518","439.670441866","441.626239061","441.70440197","444.707377911","0","444.721986055","448.324568033",""
"sujeto_63c82dc6","1","1","19","19","448.490638971","direct","4","1","2","¿Cuál fue el primer libro 
de Stephen King?","Carrie","The Stand","","1","1","1","competitive","left","2.31122779846","450.801939964","2.68877220154","453.646177053","4.22976207733","457.875983","1.77023792267","459.696258068","461.440373898","461.51385498","464.51680398","1","464.531352043","469.005796909",""
"sujeto_63c82dc6","1","1","20","20","469.149256945","inverse","2","1","3","¿Qué civilización practicaba
 la momificación?","Grecia","Egipto","right","0","0","1","competitive","right","1.88779783249","471.03718996","3.11220216751","474.339150906","2.69586586952","477.035062075","3.30413413048","480.389034033","482.328222036","482.408635855","485.41160202","1","485.425091028","489.653156042",""
"sujeto_63c82dc6","1","1","21","21","489.79441905","direct","4","1","4","¿Cuántos millones de visitas
 recibe google por minuto?","3.0","4.5","","0","0","1","competitive","right","1.74873805046","491.543220997","3.25126194954","494.949480057","3.4147131443","498.364259958","2.5852868557","501.0017519","502.516634941","502.603246927","505.606211901","0","505.620888948","512.743520021",""
"sujeto_63c82dc6","1","1","22","22","512.889382839","inverse","1","1","3","La máquina de fax. se inventó en:","1843","1960","","0","0","1","competitive","left","1.06795310974","513.957399845","3.93204689026","518.045582056","3.78879594803","521.834445953","2.21120405197","524.096760035","525.338860035","525.414625883","528.417615891","0","528.432348013","531.668642044",""
"sujeto_63c82dc6","1","1","23","23","531.817594051","direct","2","1","4","En la verdadera historia de los
 300 espartanos. habían:","300 soldados","4300 soldados","","1","1","1","competitive","left","2.29288005829","534.110522985","2.70711994171","537.005033016","4.22948718071","541.234586954","1.77051281929","543.055660963","544.316900969","544.406107903","547.409137964","1","547.423696995","551.225439072",""
"sujeto_63c82dc6","1","1","24","24","551.374485016","inverse","1","1","4","¿Cuántos milímetros crece
 el pelo por día?","0.4","0.04","","0","0","0","competitive","right","2.26216197014","553.636712074","2.73783802986","556.549810886","3.35190105438","559.901756048","2.64809894562","562.600175858","564.360858917","564.452139854","567.455118895","0","567.469672918","574.204777956",""
"sujeto_63c82dc6","1","1","25","25","574.353986979","direct","4","1","1","¿Cuánto mide la baldosa gris 
clásica de Montevideo?","22x22 cm.","20x20 cm.","","1","1","1","competitive","left","1.30786681175","575.661900997","3.69213318825","579.528600931","4.22229886055","583.750943899","1.77770113945","585.579927921","587.575188875","587.664141893","590.667130947","1","590.681724072","596.224528074",""
"sujeto_63c82dc6","1","1","26","26","596.366796017","inverse","2","1","2","¿Cuántas películas de rápidos
 y furiosos hay?","10","11","","1","1","0","competitive","right","0.904173135757","597.271020889","4.09582686424","601.522574902","4.4814350605","606.004050016","1.5185649395","607.574370861","608.932399988","609.008539915","612.010247946","1","612.02570796","614.06041503",""
"sujeto_63c82dc6","1","1","27","27","614.19452095","direct","3","1","1","¿Cuántos masters 1000
 ganó Del Potro?","1","2","","1","1","1","competitive","left","2.13767385483","616.33227706","2.86232614517","619.348330021","3.28578901291","622.634191036","2.71421098709","625.400542021","627.155119896","627.235070944","630.23801899","1","630.252395868","637.648752928",""
"sujeto_63c82dc6","1","1","28","28","637.782320023","inverse","2","1","4","¿Cuántos meses dura el 
embarazo de una leona?","3 meses","4 meses","","0","0","1","competitive","right","1.33892917633","639.121311903","3.66107082367","642.943971872","3.79737496376","646.741389036","2.20262503624","648.995120049","650.106171846","650.179359913","653.182322979","0","653.196922064","659.919405937",""
"sujeto_63c82dc6","1","1","29","29","660.06318593","direct","1","1","1","¿En qué año fue creado
 el sandwich?","1762","1653","","1","1","0","competitive","left","1.70926690102","661.772500992","3.29073309898","665.221543074","3.52097392082","668.742558002","2.47902607918","671.270307064","672.868874073","672.95448184","675.957453012","1","675.972270012","679.442893982",""
"sujeto_63c82dc6","1","1","30","30","679.591063023","inverse","4","1","2","El nombre de la moneda de Vietnam es:","Dinar","Dong","","0","0","1","competitive","left","0.931539058685","680.522671938","4.06846094131","684.745359898","3.72026205063","688.465688944","2.27973794937","690.797838926","692.229833841","692.315681934","695.318635941","0","695.33305192","701.501494884",""
"sujeto_63c82dc6","1","1","31","31","701.651893854","direct","2","1","1","¿cuantos aleteos puede dar 
un colibrí por segundo?","120","50","","0","0","0","competitive","left","2.13787293434","703.789842844","2.86212706566","706.811815977","3.75698208809","710.568840981","2.24301791191","712.862385035","714.594763041","714.680721045","717.683677912","0","717.69806385","721.910359859",""
"sujeto_63c82dc6","1","1","32","32","722.049802065","inverse","4","1","3","¿Qué altura promedio tienen
 los hombres uruguayos?","1.73 m","1.72 m","","1","1","1","competitive","right","0.913084983826","722.962934017","4.08691501617","727.220718861","3.4441819191","730.664945841","2.5558180809","733.271399021","734.533807039","734.606112957","737.609118938","1","737.623168945","742.099117994",""
"sujeto_63c82dc6","1","2","1","33","909.017652988","direct","1","1","1","¿En qué año nació 
el actor Bradd Pitt?","1967","1963","","1","1","1","competitive","left","1.65562200546","910.673317909","3.34437799454","914.16987896","2.71947979927","916.889420986","3.28052020073","920.22010994","921.315975904","921.388402939","924.391350985","1","924.406262875","930.333860874","742.114475965"
"sujeto_63c82dc6","1","2","2","34","930.47397089","inverse","2","1","1","¿Cual es el segundo 
monte más alto?","Kanchenjunga","K2","","1","1","1","competitive","left","3.13146090508","933.605475903","1.86853909492","935.644795895","3.22358393669","938.86843586","2.77641606331","941.69845295","943.150855064","943.23369503","946.236636877","1","946.25086689","949.680214882",""
"sujeto_63c82dc6","1","2","3","35","949.818768978","direct","3","1","1","¿Cuándo finalizó la construcción
 del Palacio Legislativo?","1925","1917","","0","0","1","competitive","left","1.71973586082","951.538563967","3.28026413918","954.990746021","3.46091604233","958.45172286","2.53908395767","961.025676012","962.66741395","962.742961884","965.745918036","0","965.760365009","971.457882881",""
"sujeto_63c82dc6","1","2","4","36","971.595417976","inverse","3","1","3","¿Cuántos integrantes tenía
 en su inicio  el cuarteto de nos?","3","4","","1","1","1","competitive","right","0.899366855621","972.494829893","4.10063314438","976.76906991","4.23776984215","981.00690484","1.76223015785","982.820179939","983.953275919","984.037661076","987.040683985","1","987.055120945","992.70489502",""
"sujeto_63c82dc6","1","2","5","37","992.839554071","direct","2","1","3","¿Qué valor tiene el número pi?","3.14","4.18","left","0","0","1","competitive","left","2.09938812256","994.939004898","2.90061187744","997.995699883","2.34329795837","1000.33906293","3.65670204163","1004.04706502","1005.50126696","1005.58252287","1008.58550096","1","1008.60030603","1015.52129507",""
"sujeto_63c82dc6","1","2","6","38","1015.66841197","inverse","2","1","2","¿Cuál es la esperanza de vida
 en Uruguay?","75","77","","1","1","0","competitive","right","1.73573303223","1017.40418696","3.26426696777","1020.84070897","2.2944688797","1023.13521886","3.7055311203","1026.87519789","1028.52899599","1028.61100101","1031.61317492","1","1031.62852597","1038.09154701",""
"sujeto_63c82dc6","1","2","7","39","1038.23007202","direct","1","1","2","¿Cuantos pisos tiene la torre 
de las comunicaciones?","26","32","","1","1","0","competitive","right","0.497246026993","1038.72736287","4.50275397301","1043.38648605","3.73486709595","1047.12141585","2.26513290405","1049.43850994","1051.26724887","1051.33882284","1054.34180188","1","1054.35710001","1056.50325704",""
"sujeto_63c82dc6","1","2","8","40","1056.65859795","inverse","2","1","4","¿En qué país sudamericano 
no hay McDonalds?","Bolivia","Venezuela","","0","0","1","competitive","left","1.94095802307","1058.599612","3.05904197693","1061.81413984","2.6673181057","1064.48151803","3.3326818943","1067.86454606","1069.1739459","1069.24922085","1072.25220704","0","1072.26665592","1078.62637186",""
"sujeto_63c82dc6","1","2","9","41","1078.78474903","direct","3","1","1","¿En qué año empieza
 la Edad Media?","476","512","","1","1","1","competitive","right","2.76883101463","1081.55364585","2.23116898537","1083.95629287","5.19331002235","1089.14966488","0.806689977646","1089.99389195","1091.39762902","1091.47773886","1094.48067784","1","1094.495121","1097.48361993",""
"sujeto_63c82dc6","1","2","10","42","1097.64666295","inverse","3","1","4","¿Hace cuántos años surgió
 el ser humano?","200mil","300mil","","0","0","0","competitive","right","1.8660671711","1099.51279497","3.1339328289","1102.83510685","4.72864985466","1107.56379604","1.27135014534","1108.88507891","1110.77114606","1110.85270786","1113.85567188","0","1113.86921501","1117.17967391",""
"sujeto_63c82dc6","1","2","11","43","1117.32060194","direct","3","1","4","¿Cuántas cuadras tiene
 actualmente 18 de julio? ","36","33","","0","0","1","competitive","right","1.53130793571","1118.85197902","3.46869206429","1122.47807097","4.15590381622","1126.63403797","1.84409618378","1128.52900791","1130.23128986","1130.31318593","1133.31617594","0","1133.33092594","1138.05720305",""
"sujeto_63c82dc6","1","2","12","44","1138.19890404","inverse","1","1","4","¿Qué juego de equipo se 
considera mas rápido?","Lacrosse","Badminton","","0","0","0","competitive","right","2.15210795403","1140.3510859","2.84789204597","1143.35463095","4.40446901321","1147.75917101","1.59553098679","1149.40781903","1150.65082097","1150.72506905","1153.72718","0","1153.74304485","1161.73821402",""
"sujeto_63c82dc6","1","2","13","45","1161.89359689","direct","1","1","3","¿Qué promedio de edad 
vive una jirafa? ","25","20","","0","0","1","competitive","left","1.02564287186","1162.91928792","3.97435712814","1167.06879401","3.16145014763","1170.23030686","2.83854985237","1173.10223794","1174.863765","1174.93682599","1177.93980289","0","1177.95492697","1183.91065288",""
"sujeto_63c82dc6","1","2","14","46","1184.05643487","inverse","1","1","2","¿Cuántos grandes lagos hay?","7","5","","0","0","1","competitive","left","1.53095197678","1185.58743691","3.46904802322","1189.21380305","2.89559912682","1192.1094439","3.10440087318","1195.24724007","1196.53937507","1196.61502194","1199.61800385","0","1199.63231492","1207.45323896",""
"sujeto_63c82dc6","1","2","15","47","1207.61858988","direct","3","1","2","¿Cuántos discos de estudio
 grabó Johhny Cash? ","54","43","","1","1","0","competitive","left","0.573018074036","1208.19168496","4.42698192596","1212.78753185","3.80607008934","1216.59364796","2.19392991066","1218.84080505","1220.11942196","1220.19088006","1223.19385505","1","1223.20853901","1229.85946798",""
"sujeto_63c82dc6","1","2","16","48","1230.00985885","inverse","4","1","1","¿Cuántos barrios tiene
 Montevideo? ","71","62","","0","0","1","competitive","right","1.35578012466","1231.365695","3.64421987534","1235.16892505","3.5389289856","1238.7078979","2.4610710144","1241.21968198","1242.22622585","1242.30481791","1245.30778599","0","1245.32161999","1250.78366685",""
"sujeto_63c82dc6","1","2","17","49","1250.93993402","direct","3","1","3","¿Qué edad tiene Homero Simpson?","36","42","","0","0","1","competitive","left","2.46197319031","1253.40195489","2.53802680969","1256.09789491","2.7679579258","1258.86589003","3.2320420742","1262.15033102","1263.52622485","1263.60033488","1266.60224295","0","1266.61787105","1271.00662398",""
"sujeto_63c82dc6","1","2","18","50","1271.15259695","inverse","4","1","2","¿Cuántos países con monarquía 
hay en europa actualmente? ","6","10","","1","1","1","competitive","left","1.12440490723","1272.27706695","3.87559509277","1276.32561588","3.52144598961","1279.84712791","2.47855401039","1282.37632489","1283.81463885","1283.89449191","1286.89722896","1","1286.91156101","1293.06838489",""
"sujeto_63c82dc6","1","2","19","51","1293.21279788","direct","2","1","3","¿Cuántos capítulos de
 Friends existen? ","236","228","","1","1","1","competitive","left","0.888604879379","1294.10152793","4.11139512062","1298.40099692","4.26526594162","1302.66630387","1.73473405838","1304.45373201","1305.75931406","1305.83747101","1308.84045196","1","1308.85478497","1311.23042893",""
"sujeto_63c82dc6","1","2","20","52","1311.373909","inverse","1","1","3","¿Cuántas óperas compuso Mozart? ","27","22","","1","1","1","competitive","left","1.0876891613","1312.46166205","3.9123108387","1316.52919197","4.44723987579","1320.97649503","1.55276012421","1322.56329298","1323.85545492","1323.92979097","1326.93072104","1","1326.94699907","1334.25840902",""
"sujeto_63c82dc6","1","2","21","53","1334.399266","direct","4","1","3","¿Cuántos mundiales de fútbol 
femenino ha realizado FIFA? ","9","7","","1","1","1","individual","right","0.566316127777","1334.96569395","4.43368387222","1339.57382989","4.3716480732","1343.94553494","1.6283519268","1345.62625599","1346.8699739","1346.91030097","1349.91328788","1","1349.92687607","1356.0293479",""
"sujeto_63c82dc6","1","2","22","54","1356.17925501","inverse","3","1","2","¿Cuál es la temperatura 
media anual en Montevideo? ","17.5","16.3","","0","0","1","individual","left","0.686487197876","1356.8657949","4.31351280212","1361.33613706","4.74360203743","1366.07979894","1.25639796257","1367.37065697","1369.30927086","1369.35471392","1372.35766697","0","1372.37301397","1378.94257188",""
"sujeto_63c82dc6","1","2","23","55","1379.09074807","direct","2","1","2","¿En qué año se estrenó el
 videojuego The Sims? ","2000","2002","","0","0","0","individual","right","0.780158042908","1379.87097287","4.21984195709","1384.24655199","4.66327404976","1388.90986586","1.33672595024","1390.28283906","1392.14482903","1392.18334389","1395.1863749","0","1395.20175505","1402.59541392",""
"sujeto_63c82dc6","1","2","24","56","1402.73586392","inverse","2","1","1","¿Cuál es la canción con 
mas covers? ","Yesterday","Stand by me","","0","0","0","competitive","left","1.415143013","1404.15107703","3.584856987","1407.89311099","4.72102212906","1412.61417699","1.27897787094","1413.94442797","1415.342978","1415.42780399","1418.43079805","0","1418.44539499","1422.616225",""
"sujeto_63c82dc6","1","2","25","57","1422.74662495","direct","1","1","4","¿Cuánto duró la guerra
 de los 100 años?","116","123","","0","0","0","competitive","right","3.11761498451","1425.86430907","1.88238501549","1427.9213469","3.85187792778","1431.77328396","2.14812207222","1433.97216797","1435.45214295","1435.52364397","1438.52662492","0","1438.54136801","1440.86114693",""
"sujeto_63c82dc6","1","2","26","58","1441.00976992","inverse","4","1","4","¿Qué color tiene la  bandera de Brasil?","Amarillo","Naranja","left","0","0","1","competitive","left","1.06054091454","1442.07035589","3.93945908546","1446.16415596","2.93227291107","1449.09648991","3.06772708893","1452.215101","1453.78161192","1453.86560893","1456.86859393","1","1456.88393188","1459.91673684",""
"sujeto_63c82dc6","1","2","27","59","1460.05188489","direct","4","1","3","¿Qué carabela de 
Colon no volvió del viaje?","Santa María","La pinta","","0","0","1","competitive","right","2.39261603355","1462.44454503","2.60738396645","1465.22451305","4.59101510048","1469.8155899","1.40898489952","1471.25811601","1472.74917603","1472.82567501","1475.82818103","0","1475.84293103","1477.94241595",""
"sujeto_63c82dc6","1","2","28","60","1478.09477592","inverse","4","1","4","¿Cuántos huesos tiene
 un adulto humano?","217","206","","0","0","1","competitive","right","1.52583098412","1479.62065196","3.47416901588","1483.2509799","3.06168699265","1486.31273198","2.93831300735","1489.283319","1490.55439997","1490.63519192","1493.63818884","0","1493.65290284","1501.4906199",""
"sujeto_63c82dc6","1","2","29","61","1501.63788199","direct","1","1","1","¿Qué país africano fue 
fundado por esclavos?","Liberia","Chad","","0","0","0","competitive","left","2.3839571476","1504.02190685","2.6160428524","1506.82783103","4.54894018173","1511.37681103","1.45105981827","1512.88096285","1514.87266588","1514.94822097","1517.95115805","0","1517.96629596","1525.95711398",""
"sujeto_63c82dc6","1","2","30","62","1526.10137892","inverse","4","1","2","¿A cuánto asciende la cima
 del monte Everest?","7.990 mts","8.848 mts","","0","0","1","competitive","right","0.783728837967","1526.88518405","4.21627116203","1531.25960994","4.39756798744","1535.65721989","1.60243201256","1537.30907798","1538.49397898","1538.57649088","1541.57943988","0","1541.59360003","1548.7776289",""
"sujeto_63c82dc6","1","2","31","63","1548.928792","direct","4","1","1","¿Cuál es el país mas chico?","Sealand","Luxemburgo","","1","1","1","competitive","right","1.26851916313","1550.19737792","3.73148083687","1554.10324287","4.28812813759","1558.39141393","1.71187186241","1560.15511298","1562.01860595","1562.107306","1565.11030793","1","1565.12360692","1568.24587893",""
"sujeto_63c82dc6","1","2","32","64","1568.3915","inverse","2","1","4","¿Cuántas pirámides hay en Egipto?","10000","11000","","1","1","1","competitive","left","1.69004416466","1570.08160591","3.30995583534","1573.5457499","3.46884393692","1577.01463604","2.53115606308","1579.5987339","1580.63230896","1580.71607685","1583.71907496","1","1583.73370004","1588.84276891",""
"sujeto_63c82dc6","1","3","1","65","1733.16449189","direct","2","1","2","¿Cuál es el quinto país con 
mas extensión?","Canadá","Brasil","","1","1","0","competitive","right","1.10988593102","1734.27442193","3.89011406898","1738.31789804","4.5585770607","1742.87651706","1.4414229393","1744.3687849","1745.70212197","1745.78583598","1748.78882384","1","1748.80355096","1756.52993107","1588.86233091"
"sujeto_63c82dc6","1","3","2","66","1756.67182684","inverse","1","1","2","¿Qué rasgo facial no tiene
 la Mona Lisa?","Cejas","Pómulos","","0","0","1","competitive","left","1.4007229805","1758.07258797","3.5992770195","1761.83033895","2.85137796402","1764.68176198","3.14862203598","1767.88033485","1769.63016891","1769.71545601","1772.71845889","0","1772.73296595","1779.00431085",""
"sujeto_63c82dc6","1","3","3","67","1779.15067601","direct","4","1","3","¿Cuál es el país con 
mayor población?","Esados Unidos","China","right","0","0","1","competitive","right","0.964215993881","1780.11496305","4.03578400612","1784.32523394","2.65968084335","1786.98495603","3.34031915665","1790.37585998","1792.02183986","1792.10978603","1795.11279607","1","1795.12818599","1798.49548388",""
"sujeto_63c82dc6","1","3","4","68","1798.64644289","inverse","1","1","1","La palabra dinosaurio significa","Lagarto Terrible","Lagarto Dragón","","1","1","0","competitive","right","2.26560091972","1800.91212106","2.73439908028","1803.79881907","5.89435791969","1809.69323993","0.105642080307","1809.85135198","1811.02169299","1811.10125589","1814.10420084","1","1814.11890507","1816.98073888",""
"sujeto_63c82dc6","1","3","5","69","1817.13660693","direct","2","1","3","¿Qué es el membrillero?","Arbol","Arbusto","","0","0","0","competitive","left","0.978608846664","1818.11527801","4.02139115334","1822.31114006","3.95217585564","1826.26337695","2.04782414436","1828.36234593","1830.31642985","1830.39712286","1833.40013194","0","1833.41475987","1839.87877202",""
"sujeto_63c82dc6","1","3","6","70","1840.03223491","inverse","3","1","3","¿Alrededor de qué planeta orbita 
el satélite Europa?","Jupiter","Saturno","","1","1","1","competitive","left","0.943263053894","1840.97556305","4.05673694611","1845.18983197","4.08173084259","1849.271626","1.91826915741","1851.24071193","1852.785465","1852.85834694","1855.86136389","1","1855.876894","1858.08206487",""
"sujeto_63c82dc6","1","3","7","71","1858.21129203","direct","3","1","1","¿Donde fue el mundial de 
fútbol de 1954?","Suiza","Suecia","","1","1","1","competitive","left","1.5064470768","1859.71780992","3.4935529232","1863.36521006","4.53555107117","1867.900805","1.46444892883","1869.41241884","1870.66505694","1870.74614787","1873.74914193","1","1873.76382303","1877.67561507",""
"sujeto_63c82dc6","1","3","8","72","1877.83240199","inverse","1","1","4","¿Cuál de los 7 enanitos
no tenía barba?","Bashful","Mudito","","1","1","0","competitive","right","1.69146299362","1879.52390885","3.30853700638","1882.99364686","4.49226284027","1887.48597097","1.50773715973","1889.02864599","1890.60816097","1890.679286","1893.68222904","1","1893.69692492","1898.62518191",""
"sujeto_63c82dc6","1","3","9","73","1898.76483703","direct","3","1","2","¿Cual red social es
mas utilizada mundialmente?","Instagram","Facebook","","1","1","0","competitive","right","0.761297941208","1899.52620387","4.23870205879","1903.92005801","2.57311892509","1906.49323893","3.42688107491","1909.97057199","1911.8879559","1911.97293997","1914.9759419","1","1914.99070501","1917.92520189",""
"sujeto_63c82dc6","1","3","10","74","1918.07510495","inverse","4","1","1","¿Cuándo se inició la copa
 América de fútbol?","1916","1923","","1","1","1","competitive","right","0.86016702652","1918.93531489","4.13983297348","1923.23114395","4.32719397545","1927.55838084","1.67280602455","1929.26544905","1931.1629169","1931.24956298","1934.25025392","1","1934.26788902","1936.92400885",""
"sujeto_63c82dc6","1","3","11","75","1937.06910205","direct","3","1","4","¿Cuántos presidentes de EEUU
han muerto asesinados?","3","4","","0","0","1","competitive","right","1.49434900284","1938.56351805","3.50565099716","1942.22483206","2.9077129364","1945.13261199","3.0922870636","1948.27486086","1949.75880694","1949.84324002","1952.8462379","0","1952.86093807","1956.50506997",""
"sujeto_63c82dc6","1","3","12","76","1956.64582491","inverse","2","1","4","¿Cuántas veces participó EEUU
 en la copa América?","4","5","","0","0","1","competitive","left","2.2488489151","1958.89472103","2.7511510849","1961.81743884","3.15825390816","1964.97575402","2.84174609184","1967.86933899","1969.31341004","1969.40430689","1972.4073","0","1972.42097592","1978.53814006",""
"sujeto_63c82dc6","1","3","13","77","1978.68906093","direct","4","1","1","¿Cuál de estos países 
no formaba la URSS?","Azeribayán","Afganistán","","0","0","1","competitive","left","1.13783288002","1979.82694387","3.86216711998","1983.86265397","5.25125694275","1989.11395502","0.748743057251","1989.91378498","1991.22680593","1991.31452203","1994.31750798","0","1994.33185792","2002.31395197",""
"sujeto_63c82dc6","1","3","14","78","2002.44959402","inverse","1","1","1","¿En qué año se inauguró
 el teatro Solís?","1867","1856","","0","0","0","competitive","left","1.59448194504","2004.04412484","3.40551805496","2007.60837698","3.79774785042","2011.40616894","2.20225214958","2013.65900493","2014.71526384","2014.79389691","2017.79686689","0","2017.81038904","2024.45815206",""
"sujeto_63c82dc6","1","3","15","79","2024.59574294","direct","1","1","4","¿A qué velocidad vuela 
el avión más rápido?","3529","3874","","0","0","0","competitive","right","1.15454888344","2025.75038505","3.84545111656","2029.76988792","4.47846102715","2034.24839091","1.52153897285","2035.82073689","2037.57622099","2037.65477705","2040.65776086","0","2040.67253995","2042.78279805",""
"sujeto_63c82dc6","1","3","16","80","2042.92458606","inverse","3","1","4","¿De qué año es la primer 
película cinematográfica?","1897","1888","","0","0","0","competitive","left","0.813934087753","2043.73860002","4.18606591225","2048.09620094","4.98526310921","2053.08150005","1.01473689079","2054.14800406","2055.28022695","2055.36550593","2058.368469","0","2058.38220787","2063.79197907",""
"sujeto_63c82dc6","1","3","17","81","2063.93347692","direct","2","1","3","¿Cuántos países 
tiene nuestro planeta?","191","194","","1","1","1","competitive","left","2.56723380089","2066.50077486","2.43276619911","2069.12295794","3.54276990891","2072.66577005","2.45723009109","2075.17513895","2076.53218198","2076.60964394","2079.61260891","1","2079.62714386","2082.86545992",""
"sujeto_63c82dc6","1","3","18","82","2083.01282406","inverse","2","1","2","¿Cuántos habitantes
 tiene Buenos Aires?","2.9000.000","3650000","","0","0","0","competitive","left","0.772005081177","2083.78487897","4.22799491882","2088.18262196","4.37230801582","2092.55499005","1.62769198418","2094.23210597","2095.629354","2095.71624088","2098.71917796","0","2098.73385501","2104.56320286",""
"sujeto_63c82dc6","1","3","19","83","2104.70299101","direct","2","1","1","¿Cuántos kilos forman una tonelada?","1000","1500","left","1","1","1","individual","left","0.690160989761","2105.39322186","4.30983901024","2109.86150193","2.77966094017","2112.64122486","3.22033905983","2115.89640188","2117.78376889","2117.83143592","2120.83437586","1","2120.84910798","2126.80649304",""
"sujeto_63c82dc6","1","3","20","84","2126.96717191","inverse","4","1","4","¿Cuántos estados tiene la 
República del Perú? ","24","23","","0","0","1","competitive","left","0.355127811432","2127.32234597","4.64487218857","2132.12311888","3.06117892265","2135.18434095","2.93882107735","2138.15761089","2139.17980504","2139.25966597","2142.26264691","0","2142.27683496","2147.22216201",""
"sujeto_63c82dc6","1","3","21","85","2147.36167192","direct","3","1","3","¿En qué año nació Cristóbal Colón? ","1451","1447","","0","0","1","individual","left","0.461822032928","2147.82357287","4.53817796707","2152.51704192","4.78047084808","2157.29758406","1.21952915192","2158.55268693","2160.39860296","2160.45300984","2163.45598197","0","2163.47143793","2167.69751191",""
"sujeto_63c82dc6","1","3","22","86","2167.83928704","inverse","4","1","4","¿Cuánto mide la 
Montaña Aconcagua? ","6234","6962","","0","0","1","competitive","left","0.907371997833","2168.7467339","4.09262800217","2172.99022198","1.25444483757","2174.24473596","4.74555516243","2179.04217601","2180.33122396","2180.41104198","2183.41323495","0","2183.42794204","2190.61161494",""
"sujeto_63c82dc6","1","3","23","87","2190.76331401","direct","2","1","4","¿Cuánto mide el punto
 más profundo del océano? ","12508","11003","","0","0","1","competitive","left","0.843588113785","2191.60697484","4.15641188622","2195.9236269","3.71227788925","2199.63596797","2.28772211075","2201.97448397","2203.22596788","2203.30956888","2206.31256485","0","2206.3263309","2210.53261304",""
"sujeto_63c82dc6","1","3","24","88","2210.66180086","inverse","1","1","3","¿Cuántos álbumes ha publicado 
el cantante Jaime Roos? ","41","34","","0","0","1","competitive","left","1.37027096748","2212.03213","3.62972903252","2215.81686091","3.46124005318","2219.27814698","2.53875994682","2221.85127306","2223.34110999","2223.41843605","2226.42124104","0","2226.43491697","2232.63106585",""
"sujeto_63c82dc6","1","3","25","89","2232.78697896","direct","4","1","3","¿En qué año nació el 
ex-presidente Jorge Battle? ","1921","1927","","1","1","1","competitive","left","1.1893389225","2233.97639394","3.8106610775","2237.96292806","4.25837206841","2242.22136307","1.74162793159","2243.99688005","2245.72757792","2245.81437492","2248.81734085","1","2248.83186293","2252.31791687",""
"sujeto_63c82dc6","1","3","26","90","2252.46755099","inverse","1","1","3","¿Cuántas presidencias 
constitucionales  hubo en Uruguay? ","41","42","","0","0","1","competitive","left","4.15785098076","2256.62544894","0.842149019241","2257.62356091","3.13389706612","2260.75749803","2.86610293388","2263.67312002","2264.87689495","2264.95764804","2267.95961404","0","2267.97544599","2273.75911403",""
"sujeto_63c82dc6","1","3","27","91","2273.9100759","direct","1","1","2","¿Quién escribió mas sinfonías?","Mozart","Haydn","","1","1","0","competitive","left","0.766550064087","2274.67667198","4.23344993591","2279.08421493","1.88844490051","2280.97272706","4.11155509949","2285.12940907","2286.34689093","2286.43041897","2289.43341684","1","2289.44821191","2293.19961691",""
"sujeto_63c82dc6","1","3","28","92","2293.33269095","inverse","4","1","2","¿En qué año nació Michael Jackson?","1958","1953","","1","1","1","competitive","left","0.658123970032","2293.99086595","4.34187602997","2298.49335289","3.37246108055","2301.86587501","2.62753891945","2304.54487085","2306.52311587","2306.59613204","2309.59910607","1","2309.61374187","2315.47602797",""
"sujeto_63c82dc6","1","3","29","93","2315.64899898","direct","3","1","2","¿En qué año entró en vigencia 
la ley antitabaco en Uruguay?","2005","2006","","1","1","1","competitive","left","0.788012981415","2316.43709397","4.21198701859","2320.82122493","4.58289885521","2325.40417695","1.41710114479","2326.87312508","2328.46790195","2328.54052496","2331.543468","1","2331.55893803","2336.89296699",""
"sujeto_63c82dc6","1","3","30","94","2337.04356599","inverse","3","1","1","¿Cuándo se subió el 
primer video a youtube?","2004","2005","","0","0","1","competitive","right","0.773694038391","2337.81733108","4.22630596161","2342.19864893","2.76655983925","2344.96527195","3.23344016075","2348.24940205","2349.55455995","2349.63443685","2352.63742304","0","2352.65205598","2360.40719199",""
"sujeto_63c82dc6","1","3","31","95","2360.55307198","direct","2","1","1","¿Cuántos habitantes tiene India?","1200 millones","1300 millones","","0","0","0","competitive","right","0.772322893143","2361.32546186","4.22767710686","2365.74609804","4.22836208344","2369.97452593","1.77163791656","2371.79760289","2373.76725006","2373.84861207","2376.85160303","0","2376.86603785","2382.91353106",""
"sujeto_63c82dc6","1","3","32","96","2383.0677619","inverse","4","1","2","¿A qué edad murió Bob Marley?","36","37","","0","0","1","competitive","right","0.726847887039","2383.79467702","4.27315211296","2388.22432089","3.88933300972","2392.11369896","2.11066699028","2394.27535295","2396.17319489","2396.26010394","2399.26314092","0","2399.27805305","2402.38050199",""
"sujeto_63c82dc6","1","4","1","97","2542.20385003","direct","2","1","1","¿Cuantos años dirigió la selección 
uruguaya Tabarez?","15 años","13 años","","0","0","0","competitive","left","1.88415813446","2544.08807087","3.11584186554","2547.37377596","4.03336215019","2551.40719986","1.96663784981","2553.42662191","2554.61781693","2554.69347692","2557.69644594","0","2557.71089101","2564.78297591","2402.39624286"
"sujeto_63c82dc6","1","4","2","98","2564.92870593","inverse","4","1","1","¿Cuantas teclas tiene un teclado 
de computadora generalmente? ","Entre 99 y 108","Entre 109 y 113","","1","1","1","competitive","right","1.41653299332","2566.34530902","3.58346700668","2570.09819889","3.67306900024","2573.77131295","2.32693099976","2576.15102196","2577.15316606","2577.23462605","2580.23760486","1","2580.25233984","2582.62377405",""
"sujeto_63c82dc6","1","4","3","99","2582.77087498","direct","1","1","1","¿Cuál Departamento tiene
 mayor superficie?","Río Negro","Soriano","","0","0","0","competitive","left","1.98945713043","2584.76039696","3.01054286957","2587.94318891","3.87423300743","2591.81746387","2.12576699257","2593.99539399","2595.70822787","2595.77934885","2598.78231287","0","2598.79700804","2603.12312603",""
"sujeto_63c82dc6","1","4","4","100","2603.26538086","inverse","3","1","2","¿Cuál es el apellido de las 
hermanastras  de  cenicienta?","Tremaine","Truman","","0","0","1","competitive","right","0.732171058655","2603.99762106","4.26782894135","2608.42270398","4.24989080429","2612.67265701","1.75010919571","2614.47452688","2616.34407687","2616.42537594","2619.42627692","0","2619.44258595","2622.13823199",""
"sujeto_63c82dc6","1","4","5","101","2622.27749205","direct","4","1","4","¿Cuál película ganó un
 Oscar a mejor película?","Alto Impacto","Cache","","0","0","1","competitive","left","1.58023500443","2623.85777688","3.41976499557","2627.4318819","3.87385106087","2631.30580091","2.12614893913","2633.48311687","2634.60219502","2634.68399096","2637.68698096","0","2637.70063806","2639.96528196",""
"sujeto_63c82dc6","1","4","6","102","2640.1187799","inverse","1","1","3","¿A cuántos centímetros
equivale la medida pié?","25","30","","0","0","1","competitive","right","0.840085983276","2640.958915","4.15991401672","2645.292243","3.30269098282","2648.59499598","2.69730901718","2651.34275794","2652.38275599","2652.46091485","2655.46383905","0","2655.47754192","2660.87851691",""
"sujeto_63c82dc6","1","4","7","103","2661.01263785","direct","2","1","2","¿Qué departamento es mas grande?","Cerro Largo","Paysandú","","0","0","0","competitive","right","1.01727485657","2662.02996087","3.98272514343","2666.16965485","3.78949308395","2669.95919394","2.21050691605","2672.22098684","2673.82075405","2673.90577888","2676.9087739","0","2676.92312193","2681.03303885",""
"sujeto_63c82dc6","1","4","8","104","2681.20817995","inverse","2","1","3","¿Quién pintó la Mona Lisa?","Picasso","Da Vinci","right","0","0","1","competitive","right","2.14204716682","2683.35027194","2.85795283318","2686.36373997","1.82156991959","2688.18535185","4.17843008041","2692.41371298","2694.01959395","2694.10007286","2697.103122","1","2697.11743402","2699.27977705",""
"sujeto_63c82dc6","1","4","9","105","2699.43577099","direct","4","1","3","¿Cuántos litros hay en un galon?","3.54","3.78","","1","1","1","competitive","left","3.17856621742","2702.61441088","1.82143378258","2704.60683393","3.67556786537","2708.28246903","2.32443213463","2710.65839887","2712.17625999","2712.25903702","2715.26204896","1","2715.27682996","2721.06919289",""
"sujeto_63c82dc6","1","4","10","106","2721.21155691","inverse","4","1","1","¿Cuántas teclas tiene
 un piano moderno?","80","88","","0","0","1","competitive","left","2.85001182556","2724.06161785","2.14998817444","2726.38446593","3.29706501961","2729.68157291","2.70293498039","2732.41948485","2733.42796898","2733.50356388","2736.50652385","0","2736.52087402","2743.31861401",""
"sujeto_63c82dc6","1","4","11","107","2743.47237301","direct","4","1","3","¿Cuántos países hay en África?","54","62","","0","0","1","competitive","right","0.730391979218","2744.202811","4.26960802078","2748.62913799","2.89361619949","2751.52281594","3.10638380051","2754.66306305","2756.35362697","2756.43134403","2759.4343369","0","2759.44973493","2767.25451088",""
"sujeto_63c82dc6","1","4","12","108","2767.39731097","inverse","1","1","3","¿En qué siglo se crearon
 las primeras pistolas?","XV","XIII","","1","1","1","competitive","right","0.954611778259","2768.35199404","4.04538822174","2772.572788","4.28621196747","2776.85906196","1.71378803253","2778.62523484","2780.57315493","2780.66004205","2783.66302299","1","2783.67733288","2786.91043687",""
"sujeto_63c82dc6","1","4","13","109","2787.06225491","direct","3","1","4","¿En qué año se estrenó 
la serie friends?","1994","1995","","0","0","1","competitive","right","1.20286798477","2788.26518202","3.79713201523","2792.23582292","3.63635396957","2795.87223792","2.36364603043","2798.28658891","2800.16192293","2800.23766303","2803.24066401","0","2803.25576496","2808.26184487",""
"sujeto_63c82dc6","1","4","14","110","2808.39095688","inverse","3","1","4","¿En qué año nació Hitler?","1889","1887","","0","0","1","competitive","left","0.821410894394","2809.21241307","4.17858910561","2813.56405497","4.66133213043","2818.22542691","1.33866786957","2819.59830594","2820.71266985","2820.79946399","2823.80240703","0","2823.81692195","2828.84392095",""
"sujeto_63c82dc6","1","4","15","111","2828.98404408","direct","1","1","4","¿Cuánto pesa un elefante Africano?","6000 kilos","5400 kilos","","0","0","0","competitive","left","2.12840294838","2831.11251187","2.87159705162","2834.14143395","3.7720849514","2837.91356087","2.2279150486","2840.1925199","2841.54841805","2841.62683702","2844.62981987","0","2844.64419103","2851.351264",""
"sujeto_63c82dc6","1","4","16","112","2851.49612784","inverse","1","1","2","¿Qué porcentaje de 
la población es zurda?","10%","7%","","1","1","0","competitive","left","0.611506938934","2852.10767889","4.38849306107","2856.66405606","3.27166509628","2859.93578601","2.72833490372","2862.71678805","2863.95989704","2864.03504801","2867.03806496","1","2867.05278587","2873.03254199",""
"sujeto_63c82dc6","1","4","17","113","2873.18754292","direct","1","1","2","¿En qué año se estrenó
Volver al futuro?","1984","1985","","0","0","1","competitive","right","0.777282953262","2873.96487093","4.22271704674","2878.36420488","4.54365682602","2882.9079299","1.45634317398","2884.39690185","2885.95871496","2886.03116989","2889.03417206","0","2889.04786992","2896.13932896",""
"sujeto_63c82dc6","1","4","18","114","2896.28254104","inverse","3","1","2","¿Cuántos jugadores hay en un 
equipo de baseball?","9","8","","1","1","0","competitive","left","0.784497022629","2897.06710291","4.21550297737","2901.45941901","3.32159996033","2904.78105807","2.67840003967","2907.5103929","2909.12465096","2909.21216798","2912.21515298","1","2912.22990894","2917.20714307",""
"sujeto_63c82dc6","1","4","19","115","2917.34682107","direct","2","1","1","¿Cuántos Oscar ganó
 la película titanic?","13","11","","1","1","1","competitive","right","0.878431081772","2918.22532296","4.12156891823","2922.50375485","3.61751794815","2926.12133503","2.38248205185","2928.554461","2929.85652089","2929.93931198","2932.94229388","1","2932.95656204","2937.55920887",""
"sujeto_63c82dc6","1","4","20","116","2937.70764184","inverse","4","1","4","¿En qué año comenzó
la segunda guerra mundial?","1939","1976","left","0","0","1","competitive","left","0.825773954391","2938.53346896","4.17422604561","2942.88102102","2.69637799263","2945.5774579","3.30362200737","2948.93164086","2950.73148203","2950.81693196","2953.819906","1","2953.83429289","2957.82143593",""
"sujeto_63c82dc6","1","4","21","117","2957.96939588","direct","2","1","4","¿Cuántos biomas hay en Uruguay?","5","4","","0","0","1","individual","left","2.14414787292","2960.11360908","2.85585212708","2963.12539697","2.6952188015","2965.82065701","3.3047811985","2969.15871501","2970.95519495","2970.99360394","2973.99654198","0","2974.01171589","2980.26113796",""
"sujeto_63c82dc6","1","4","22","118","2980.41215491","inverse","2","1","3","¿Cuándo murió Pablo Escobar?","1993","1997","","1","1","1","competitive","right","0.929666996002","2981.34189487","4.070333004","2985.57069087","2.74207091331","2988.31282306","3.25792908669","2991.62090802","2993.40370202","2993.48923898","2996.49222803","1","2996.50691485","3002.21060205",""
"sujeto_63c82dc6","1","4","23","119","3002.34431696","direct","1","1","4","¿Qué serie ha ganado mas premios?","Friends","Murphy Brown","","1","1","0","competitive","left","1.65322494507","3003.9976449","3.34677505493","3007.51463389","2.76435303688","3010.27904701","3.23564696312","3013.56478405","3014.91717005","3014.99988389","3018.00284696","1","3018.01829505","3023.57989097",""
"sujeto_63c82dc6","1","4","24","120","3023.73615885","inverse","4","1","2","¿Cuántas fichas tiene el dominó?","26","28","","1","1","1","competitive","right","0.617003917694","3024.35323286","4.38299608231","3028.90815187","2.48626208305","3031.39445591","3.51373791695","3034.95948291","3036.01481295","3036.0944109","3039.09740591","1","3039.11170197","3044.35481787",""
"sujeto_63c82dc6","1","4","25","121","3044.49663806","direct","2","1","4","¿Cuántos son los dientes de leche?","20","25","","0","0","1","competitive","left","0.724951028824","3045.22163987","4.27504897118","3049.65223503","3.35006713867","3053.00236297","2.64993286133","3055.70292997","3057.41327596","3057.48772693","3060.49069595","0","3060.50539684","3062.65108585",""
"sujeto_63c82dc6","1","4","26","122","3062.79123187","inverse","3","1","3","¿Cuántos gramos son una onza?","22","28","","0","0","1","competitive","right","1.11922693253","3063.91050506","3.88077306747","3067.94672203","3.63875317574","3071.58552003","2.36124682426","3073.99732804","3075.99219489","3076.06441402","3079.06735802","0","3079.08314586","3085.37340307",""
"sujeto_63c82dc6","1","4","27","123","3085.51780796","direct","3","1","1","¿Cuándo salió el primer album
 de los Beatles?","1963","1962","","1","1","1","competitive","left","0.749847888947","3086.26769996","4.25015211105","3090.69232392","2.98531484604","3093.67770505","3.01468515396","3096.74284101","3097.90648389","3097.97731495","3100.9803009","1","3100.99460101","3104.76662898",""
"sujeto_63c82dc6","1","4","28","124","3104.9136169","inverse","3","1","3","¿Quién fundó la empresa apple?","Carlos Slim","Steve Jobs","","1","1","1","competitive","right","3.32512998581","3108.23879194","1.67487001419","3110.08437896","1.99533581734","3112.079772","4.00466418266","3116.1361649","3117.25078893","3117.3378129","3120.34072089","1","3120.35507798","3126.65086389",""
"sujeto_63c82dc6","1","4","29","125","3126.80693889","direct","4","1","2","¿Cuántos municipios hay
 en Montevideo?","8","7","","1","1","1","competitive","right","0.595993041992","3127.40297794","4.40400695801","3131.96301794","3.40195703506","3135.36503696","2.59804296494","3138.01454091","3139.9292829","3140.01545095","3143.01841307","1","3143.03297305","3145.11409998",""
"sujeto_63c82dc6","1","4","30","126","3145.25123692","inverse","1","1","1","¿Cuántos kilómetros hay
 de Montevideo a Artigas?","632","599","","0","0","0","competitive","left","1.45892596245","3146.71023393","3.54107403755","3150.40564084","3.12251996994","3153.52820301","2.87748003006","3156.45700002","3157.94012189","3158.02447987","3161.02742386","0","3161.04296207","3167.09016705",""
"sujeto_63c82dc6","1","4","31","127","3167.24407387","direct","2","1","2","¿En qué año nació 
Leonardo Da Vinci?","1452","1511","","1","1","0","competitive","left","0.755743980408","3167.99989891","4.24425601959","3172.40106606","5.13027501106","3177.53140497","0.869724988937","3178.45323205","3180.306849","3180.38688493","3183.38986897","1","3183.40544701","3186.55187893",""
"sujeto_63c82dc6","1","4","32","128","3186.68968701","inverse","3","1","1","¿A qué continente
 pertenece el país Gabón?","Africa","Oceanía","","0","0","1","competitive","right","1.53374409676","3188.22349501","3.46625590324","3191.85982299","4.09067106247","3195.95055604","1.90932893753","3197.91113997","3199.72220492","3199.79492903","3202.79789186","0","3202.81361985","3208.05150294",""
