"code","nro_aplicante","nro_bloque","nro_trial_bloque","nro_trial_global","show_game_type","choice_order","rival","pay_individual","pay_competitive","question","answer_left_text","answer_right_text","correct_answer","outcome_individual","outcome_competitive","outcome_rival","game_type","answer","social_time","rt_game_type","feedback_delay","show_question","answer_time","rt_answer_global","feedback_delay_2","show_jitter","jitter_time","show_outcome","outcome_time","outcome_participant_real","show_final_jitter","second_jitter_time","inicio_descanso"
"sujeto_0073105","1","1","1","1","15.2872691154","direct","3","1","4","¿Cuántos centímetros corresponden
al talle 36 del calzado?","23","24","","0","0","1","competitive","right","1.9115588665","17.1988940239","3.0884411335","20.4424481392","5.13340091705","25.5758981705","0.866599082947","26.4938092232","27.5220592022","27.5939152241","30.5968391895","0","30.610877037","32.7734100819",""
"sujeto_0073105","1","1","2","2","32.9115672112","inverse","3","1","2","¿Cuántas metros mide la Intendencia
Municipal de Montevideo? ","84","78","","0","0","1","competitive","left","3.14726614952","36.058879137","1.85273385048","38.0679581165","5.75381588936","43.8218390942","0.246184110641","44.120139122","45.9975681305","46.070141077","49.0731170177","0","49.0881781578","51.180932045",""
"sujeto_0073105","1","1","3","3","51.3237700462","direct","1","1","3","¿Cuántas La Pasiva
 hay en uruguay?","15","11","","1","1","1","competitive","right","1.90206098557","53.2259020805","3.09793901443","56.4784581661","4.74737620354","61.2258961201","1.25262379646","62.5121011734","64.1237511635","64.1963632107","67.1993420124","1","67.2144532204","71.4927620888",""
"sujeto_0073105","1","1","4","4","71.616284132","inverse","3","1","3","¿De que color es la camiseta de uruguay?","blanca","celeste","right","1","1","1","competitive","left","2.72755599022","74.3438842297","2.27244400978","76.7718520164","5.46898794174","82.2408800125","0.531012058258","82.8239312172","84.0286750793","84.1072001457","87.1101782322","0","87.1240561008","90.5779750347",""
"sujeto_0073105","1","1","5","5","90.7093031406","direct","2","1","1","¿Cuánto metros mide
la torre Eiffel?","333","324","","1","1","1","individual","right","3.03357696533","93.7429461479","1.96642303467","95.8631670475","4.73769593239","100.60090518","1.26230406761","101.91683507","103.438175201","103.48314023","106.485556126","1","106.500798225","113.53748703",""
"sujeto_0073105","1","1","6","6","113.687147141","inverse","3","1","4","¿Cuantas ciudades existen
 en todo el uruguay?","63","72","","0","0","1","competitive","right","1.33177399635","115.018988132","3.66822600365","118.843035221","4.50879907608","123.35187602","1.49120092392","124.877435207","125.932257175","126.011918068","129.014879227","0","129.029306173","136.655888081",""
"sujeto_0073105","1","1","7","7","136.798821211","direct","1","1","1","¿Cuantos estados tiene África?","52","54","","1","1","0","individual","left","2.3730840683","139.171968222","2.6269159317","141.955480099","5.87535095215","147.830870152","0.124649047852","147.99004817","149.854070187","149.890213013","152.893180132","1","152.908317089","158.669347048",""
"sujeto_0073105","1","1","8","8","158.811423063","inverse","4","1","4","¿En qué año nació
 Stephen Hawking?","1952","1942","","0","0","1","competitive","left","2.47090101242","161.28238821","2.52909898758","163.997721195","3.24016404152","167.237926006","2.75983595848","170.051041126","171.495318174","171.568930149","174.571887016","0","174.585805178","180.685161114",""
"sujeto_0073105","1","1","9","9","180.840716124","direct","2","1","3","¿Cuánto años tenía Artigas
 cuando se fue a Paraguay?","56","57","","1","1","1","competitive","left","2.41018486023","183.250967026","2.58981513977","185.991829157","5.59711194038","191.588984013","0.402888059616","192.030396223","193.579868078","193.663804054","196.665531158","1","196.680824041","202.728094101",""
"sujeto_0073105","1","1","10","10","202.868755102","inverse","1","1","2","¿Cuantos milímetros 
mide una hoja A2?","420x592","420x594","","0","0","1","competitive","","1.92226815224","204.791091204","3.07773184776","208.006494045","6","214.006599188","0","214.023253202","215.59169817","215.674678087","218.677626133","0","218.692097187","225.76573801",""
"sujeto_0073105","1","1","11","11","225.930822134","direct","3","1","3","¿Cuál es la menor temperatura 
registrada en Uruguay?","-5.4","-7.4","","0","0","1","competitive","left","2.02415180206","227.955016136","2.97584819794","231.085234165","3.05776119232","234.14304018","2.94223880768","237.135523081","238.817571163","238.887118101","241.890100002","0","241.904689074","245.637986183",""
"sujeto_0073105","1","1","12","12","245.774381161","inverse","2","1","2","¿Cuantos años hace que 
se fundó facebook?","18","17","","0","0","0","competitive","left","1.44157218933","247.216025114","3.55842781067","250.927532196","4.01144003868","254.939040184","1.98855996132","256.962355137","258.335097075","258.412765026","261.415703058","0","261.430097103","264.204737186",""
"sujeto_0073105","1","1","13","13","264.332609177","direct","1","1","4","¿Cuál animal es más
 pesado en promedio?","Rinoceronte","Hipopotamo","","0","0","0","competitive","right","1.67235016823","266.005001068","3.32764983177","269.521342039","3.89859008789","273.419974089","2.10140991211","275.572079182","276.65132308","276.723290205","279.72627306","0","279.74053812","283.581513166",""
"sujeto_0073105","1","1","14","14","283.707774162","inverse","1","1","2","¿Qué personaje de dragon ball 
murió más veces?","Chaoz","Krillin","","1","1","0","competitive","right","1.5681271553","285.275959015","3.4318728447","288.864434004","4.21043610573","293.074931145","1.78956389427","294.898940086","296.356785059","296.433276176","299.43355608","1","299.449981213","307.221576214",""
"sujeto_0073105","1","1","15","15","307.350969076","direct","3","1","2","La universidad de oxford. 
existe desde:","1096","1249","","1","1","0","competitive","right","1.82899689674","309.180034161","3.17100310326","312.510075092","3.57286000252","316.082977057","2.42713999748","318.560366154","319.609125137","319.678188086","322.681117058","1","322.695026159","329.385516167",""
"sujeto_0073105","1","1","16","16","329.514121056","inverse","3","1","1","¿Qué escritor latino ganó antes
 el premio nobel?"," García Marquez","Neruda","","0","0","1","individual","left","2.50184893608","332.01604414","2.49815106392","334.669842005","5.35110497475","340.020994186","0.648895025253","340.722830057","342.461527109","342.507123232","345.509511232","0","345.524525166","348.985010147",""
"sujeto_0073105","1","1","17","17","349.145967007","direct","4","1","3","¿Cuántos dientes tiene un
 tiburón blanco?","6000","3000","","0","0","1","competitive","right","1.78199505806","350.928026199","3.21800494194","354.297727108","3.79720902443","358.094976187","2.20279097557","360.332079172","361.371029139","361.450309038","364.453249216","0","364.46745801","369.277087212",""
"sujeto_0073105","1","1","18","18","369.418166161","inverse","4","1","1","¿Cuánto mide el paralelo Ecuador?","40.000km","70.000km","","0","0","1","individual","right","1.81081604958","371.229046106","3.18918395042","374.575666189","3.85427999496","378.429987192","2.14572000504","380.625365019","382.581486225","382.627335072","385.630309105","0","385.645108223","389.247682095",""
"sujeto_0073105","1","1","19","19","389.414411068","direct","4","1","2","¿Cuál fue el primer libro 
de Stephen King?","Carrie","The Stand","","1","1","1","competitive","right","2.38697695732","391.801500082","2.61302304268","394.581883192","3.25503897667","397.836980104","2.74496102333","400.636469126","402.38057518","402.453817129","405.456801176","1","405.47186923","409.946263075",""
"sujeto_0073105","1","1","20","20","410.072514057","inverse","2","1","3","¿Qué civilización practicaba
 la momificación?","Grecia","Egipto","right","0","0","1","competitive","right","1.82853007317","411.901087999","3.17146992683","415.246138096","2.31594777107","417.562128067","3.68405222893","421.294753075","423.234054089","423.312972069","426.31590414","1","426.330792189","430.559582233",""
"sujeto_0073105","1","1","21","21","430.700856209","direct","4","1","4","¿Cuántos millones de visitas
 recibe google por minuto?","3.0","4.5","","0","0","1","competitive","right","1.69727897644","432.398180008","3.30272102356","435.856508017","3.28056097031","439.137109041","2.71943902969","441.906823158","443.421523094","443.492128134","446.49357605","0","446.51000309","453.63270402",""
"sujeto_0073105","1","1","22","22","453.760405064","inverse","1","1","3","La máquina de fax. se inventó en:","1843","1960","","0","0","1","competitive","left","1.83267688751","455.593158007","3.16732311249","458.934727192","3.36036205292","462.295130014","2.63963794708","464.968852997","466.210929155","466.28659606","469.289564133","0","469.303641081","472.537562132",""
"sujeto_0073105","1","1","23","23","472.673316002","direct","2","1","4","En la verdadera historia de los
 300 espartanos. habían:","300 soldados","4300 soldados","","1","1","1","competitive","right","1.7737660408","474.447154045","3.2262339592","477.828073025","4.09803295135","481.926176071","1.90196704865","483.878765106","485.139967203","485.213825226","488.21681118","1","488.230654001","492.032417059",""
"sujeto_0073105","1","1","24","24","492.16546917","inverse","1","1","4","¿Cuántos milímetros crece
 el pelo por día?","0.4","0.04","","0","0","0","competitive","left","1.36460614204","493.530119181","3.63539385796","497.318429232","3.94964909554","501.26812315","2.05035090446","503.371016026","505.131735086","505.204779148","508.207770109","0","508.222967148","514.958046198",""
"sujeto_0073105","1","1","25","25","515.090557098","direct","4","1","1","¿Cuánto mide la baldosa gris 
clásica de Montevideo?","22x22 cm.","20x20 cm.","","1","1","1","individual","right","2.12454891205","517.215172052","2.87545108795","520.281010151","4.68304300308","524.964092016","1.31695699692","526.334731102","528.329941034","528.369195223","531.369563103","1","531.386819124","536.929637194",""
"sujeto_0073105","1","1","26","26","537.054342031","inverse","2","1","2","¿Cuántas películas de rápidos
 y furiosos hay?","10","11","","1","1","0","competitive","left","1.75073695183","538.805121183","3.24926304817","542.211397171","2.50771903992","544.719158173","3.49228096008","548.261599064","549.619638205","549.696159124","552.698130131","1","552.714500189","554.749191999",""
"sujeto_0073105","1","1","27","27","554.882205009","direct","3","1","1","¿Cuántos masters 1000
 ganó Del Potro?","1","2","","1","1","1","individual","left","1.97892808914","556.861179113","3.02107191086","560.054105997","4.3780040741","564.43215704","1.6219959259","566.088300228","567.842919111","567.889873028","570.892848015","1","570.906769037","578.30155611",""
"sujeto_0073105","1","1","28","28","578.441558123","inverse","2","1","4","¿Cuántos meses dura el 
embarazo de una leona?","3 meses","4 meses","","0","0","1","competitive","right","1.57855796814","580.020183086","3.42144203186","583.582457066","3.55864691734","587.141164064","2.44135308266","589.6143682","590.725433111","590.799882174","593.801563025","0","593.816928148","600.539365053",""
"sujeto_0073105","1","1","29","29","600.671102047","direct","1","1","1","¿En qué año fue creado
 el sandwich?","1762","1653","","1","1","0","individual","right","1.94495296478","602.616127014","3.05504703522","605.825821161","2.92731499672","608.753195047","3.07268500328","611.878240108","613.476753235","613.512452126","616.513550997","1","616.530958176","620.001601219",""
"sujeto_0073105","1","1","30","30","620.148335218","inverse","4","1","2","El nombre de la moneda de Vietnam es:","Dinar","Dong","","0","0","1","competitive","right","2.10901904106","622.257441998","2.89098095894","625.304563046","3.17457795143","628.479182005","2.82542204857","631.35522604","632.787218094","632.855970144","635.858951092","0","635.874105215","642.042542219",""
"sujeto_0073105","1","1","31","31","642.175283194","direct","2","1","1","¿cuantos aleteos puede dar 
un colibrí por segundo?","120","50","","0","0","0","individual","left","2.34987902641","644.52523613","2.65012097359","647.330521107","3.00760602951","650.338172197","2.99239397049","653.382926226","655.115322113","655.151056051","658.154018164","0","658.168141127","662.380412102",""
"sujeto_0073105","1","1","32","32","662.522146225","inverse","4","1","3","¿Qué altura promedio tienen
 los hombres uruguayos?","1.73 m","1.72 m","","1","1","1","competitive","left","2.31905412674","664.841266155","2.68094587326","667.68893218","3.46116805077","671.150136232","2.53883194923","673.726569176","674.988951206","675.061942101","678.064953089","1","678.079082012","682.554996014",""
"sujeto_0073105","1","2","1","33","808.679819107","direct","1","1","1","¿En qué año nació 
el actor Bradd Pitt?","1967","1963","","1","1","1","individual","right","1.77939319611","810.459254026","3.22060680389","813.834664106","4.24555492401","818.080278158","1.75444507599","819.868997097","820.964858055","821.002809048","824.005554199","1","824.020506144","829.948071003","682.569821119"
"sujeto_0073105","1","2","2","34","830.088659048","inverse","2","1","1","¿Cual es el segundo 
monte más alto?","Kanchenjunga","K2","","1","1","1","individual","left","2.55059885979","832.639321089","2.44940114021","835.25853014","4.76176095009","840.020361185","1.23823904991","841.295021057","842.747388124","842.795899153","845.798876047","1","845.812982082","849.241549015",""
"sujeto_0073105","1","2","3","35","849.365112066","direct","3","1","1","¿Cuándo finalizó la construcción
 del Palacio Legislativo?","1925","1917","","0","0","1","individual","right","1.84111905098","851.206291199","3.15888094902","854.539095163","4.26409196854","858.803250074","1.73590803146","860.590057135","862.231744051","862.274319172","865.277289152","0","865.291398048","870.985569",""
"sujeto_0073105","1","2","4","36","871.1258111","inverse","3","1","3","¿Cuántos integrantes tenía
 en su inicio  el cuarteto de nos?","3","4","","1","1","1","competitive","right","2.20841884613","873.334296227","2.79158115387","876.299635172","3.23558998108","879.535287142","2.76441001892","882.350345135","883.483443022","883.551669121","886.554636002","1","886.568949223","892.218758106",""
"sujeto_0073105","1","2","5","37","892.356402159","direct","2","1","3","¿Qué valor tiene el número pi?","3.14","4.18","left","0","0","1","competitive","left","1.65384411812","894.010317087","3.34615588188","897.494068146","1.80316305161","899.297298193","4.19683694839","903.542259216","904.996468067","905.077459097","908.080444098","1","908.094376087","915.015363216",""
"sujeto_0073105","1","2","6","38","915.145892143","inverse","2","1","2","¿Cuál es la esperanza de vida
 en Uruguay?","75","77","","1","1","0","competitive","right","1.3433971405","916.489332199","3.6566028595","920.28581214","2.92645382881","923.212312222","3.07354617119","926.321230173","927.975030184","928.05601716","931.059036016","1","931.07309103","937.533513069",""
"sujeto_0073105","1","2","7","39","937.695170164","direct","1","1","2","¿Cuantos pisos tiene la torre 
de las comunicaciones?","26","32","","1","1","0","competitive","right","1.73313307762","939.428371191","3.26686692238","942.851334095","4.54793286324","947.399331093","1.45206713676","948.902029037","950.72956109","950.803060055","953.805565119","1","953.820476055","955.96668601",""
"sujeto_0073105","1","2","8","40","956.105858088","inverse","2","1","4","¿En qué país sudamericano 
no hay McDonalds?","Bolivia","Venezuela","","0","0","1","competitive","right","1.83547377586","957.94139719","3.16452622414","961.291309118","4.09097385406","965.38235116","1.90902614594","967.326566219","968.635936022","968.710998058","971.713985205","0","971.72907114","978.088801146",""
"sujeto_0073105","1","2","9","41","978.233351231","direct","3","1","1","¿En qué año empieza
 la Edad Media?","476","512","","1","1","1","individual","left","1.81694602966","980.050364017","3.18305397034","983.405806065","3.83753800392","987.24338603","2.16246199608","989.456157207","990.859926224","990.906867027","993.90985322","1","993.924885035","996.913472176",""
"sujeto_0073105","1","2","10","42","997.061527014","inverse","3","1","4","¿Hace cuántos años surgió
 el ser humano?","200mil","300mil","","0","0","0","competitive","left","1.33081698418","998.392412186","3.66918301582","1002.214957","2.80335497856","1005.01837111","3.19664502144","1008.26509023","1010.15117216","1010.23329616","1013.23352408","0","1013.25082421","1016.5612371",""
"sujeto_0073105","1","2","11","43","1016.70447922","direct","3","1","4","¿Cuántas cuadras tiene
 actualmente 18 de julio? ","36","33","","0","0","1","competitive","right","1.48491311073","1018.18949318","3.51508688927","1021.85856819","3.8827650547","1025.74137402","2.1172349453","1027.909374","1029.61165905","1029.69443202","1032.69744301","0","1032.71197414","1037.43823314",""
"sujeto_0073105","1","2","12","44","1037.57978415","inverse","1","1","4","¿Qué juego de equipo se 
considera mas rápido?","Lacrosse","Badminton","","0","0","0","competitive","left","1.62557220459","1039.205405","3.37442779541","1042.71967912","3.3286049366","1046.04834008","2.6713950634","1048.76898623","1050.01209211","1050.08720708","1053.0901711","0","1053.10492206","1061.10007215",""
"sujeto_0073105","1","2","13","45","1061.23993421","direct","1","1","3","¿Qué promedio de edad 
vive una jirafa? ","25","20","","0","0","1","competitive","right","1.55243206024","1062.79243422","3.44756793976","1066.38134623","3.24704790115","1069.62845421","2.75295209885","1072.42988706","1074.19141006","1074.26433611","1077.26729107","0","1077.28254223","1083.23752809",""
"sujeto_0073105","1","2","14","46","1083.38650417","inverse","1","1","2","¿Cuántos grandes lagos hay?","7","5","","0","0","1","competitive","left","1.46688318253","1084.85348201","3.53311681747","1088.52618217","2.82616114616","1091.35238409","3.17383885384","1094.55908012","1095.85120606","1095.92790818","1098.93091106","0","1098.94520521","1106.7665472",""
"sujeto_0073105","1","2","15","47","1106.91715217","direct","3","1","2","¿Cuántos discos de estudio
 grabó Johhny Cash? ","54","43","","1","1","0","competitive","left","1.39429807663","1108.31152821","3.60570192337","1112.07153106","4.15377807617","1116.22537017","1.84622192383","1118.12252903","1119.40117121","1119.4738121","1122.47617722","1","1122.490273","1129.14121604",""
"sujeto_0073105","1","2","16","48","1129.31209016","inverse","4","1","1","¿Cuántos barrios tiene
 Montevideo? ","71","62","","0","0","1","individual","right","1.27339315414","1130.58553004","3.72660684586","1134.46650505","2.05684995651","1136.52339602","3.94315004349","1140.5162611","1141.52326512","1141.56816316","1144.569561","0","1144.585639","1150.04765821",""
"sujeto_0073105","1","2","17","49","1150.18802214","direct","3","1","3","¿Qué edad tiene Homero Simpson?","36","42","","0","0","1","competitive","right","1.25344491005","1151.44153523","3.74655508995","1155.3434391","3.38787698746","1158.73138118","2.61212301254","1161.39432216","1162.7703371","1162.84533906","1165.84829116","0","1165.86336613","1170.24955702",""
"sujeto_0073105","1","2","18","50","1170.39866114","inverse","4","1","2","¿Cuántos países con monarquía 
hay en europa actualmente? ","6","10","","1","1","1","competitive","left","1.88980579376","1172.28853202","3.11019420624","1175.55448818","3.53388810158","1179.08843422","2.46611189842","1181.60280418","1183.0410831","1183.12072015","1186.123703","1","1186.13779807","1192.29461408",""
"sujeto_0073105","1","2","19","51","1192.42663622","direct","2","1","3","¿Cuántos capítulos de
 Friends existen? ","236","228","","1","1","1","competitive","left","1.08786010742","1193.51456404","3.91213989258","1197.5821631","4.2062318325","1201.78846407","1.7937681675","1203.63270712","1204.93825912","1205.01718616","1208.02017522","1","1208.03439903","1210.41004014",""
"sujeto_0073105","1","2","20","52","1210.58776808","inverse","1","1","3","¿Cuántas óperas compuso Mozart? ","27","22","","1","1","1","competitive","right","1.30466890335","1211.89250016","3.69533109665","1215.72467303","3.61877202988","1219.3435142","2.38122797012","1221.77507019","1223.06722522","1223.14318514","1226.14618921","1","1226.160043","1233.47151017",""
"sujeto_0073105","1","2","21","53","1233.61582112","direct","4","1","3","¿Cuántos mundiales de fútbol 
femenino ha realizado FIFA? ","9","7","","1","1","1","competitive","right","1.03960394859","1234.65547323","3.96039605141","1238.76947808","3.76698994637","1242.53652811","2.23301005363","1244.82100821","1246.0647161","1246.14790511","1249.15089703","1","1249.17212701","1255.27460313",""
"sujeto_0073105","1","2","22","54","1255.40689802","inverse","3","1","2","¿Cuál es la temperatura 
media anual en Montevideo? ","17.5","16.3","","0","0","1","competitive","left","1.17954611778","1256.5864892","3.82045388222","1260.56097817","3.15148711205","1263.71250701","2.84851288795","1266.613168","1268.55176306","1268.63176513","1271.63473821","0","1271.6490171","1278.21855116",""
"sujeto_0073105","1","2","23","55","1278.35046911","direct","2","1","2","¿En qué año se estrenó el
 videojuego The Sims? ","2000","2002","","0","0","0","competitive","right","1.2410337925","1279.59155107","3.7589662075","1283.49343705","3.13210296631","1286.62558222","2.86789703369","1289.54343319","1291.40539408","1291.47832513","1294.48129606","0","1294.49537921","1301.8890202",""
"sujeto_0073105","1","2","24","56","1302.01377916","inverse","2","1","1","¿Cuál es la canción con 
mas covers? ","Yesterday","Stand by me","","0","0","0","individual","right","1.87760400772","1303.89142513","3.12239599228","1307.17220402","4.65027809143","1311.82252717","1.34972190857","1313.22376013","1314.62228203","1314.67387414","1317.67684603","0","1317.69115806","1321.86200213",""
"sujeto_0073105","1","2","25","57","1321.99207211","direct","1","1","4","¿Cuánto duró la guerra
 de los 100 años?","116","123","","0","0","0","competitive","left","1.2314760685","1323.22360015","3.7685239315","1327.14837003","3.55612301826","1330.70455503","2.44387698174","1333.19962406","1334.68045521","1334.75008011","1337.7530551","0","1337.76813316","1340.08791614",""
"sujeto_0073105","1","2","26","58","1340.23664808","inverse","4","1","4","¿Qué color tiene la  bandera de Brasil?","Amarillo","Naranja","left","0","0","1","competitive","left","1.27985405922","1341.51657319","3.72014594078","1345.39126015","4.10623002052","1349.49753523","1.89376997948","1351.44226503","1353.00879121","1353.09326816","1356.09626412","1","1356.11027312","1359.14307213",""
"sujeto_0073105","1","2","27","59","1359.29567122","direct","4","1","3","¿Qué carabela de 
Colon no volvió del viaje?","Santa María","La pinta","","0","0","1","competitive","right","1.9289021492","1361.2246542","3.0710978508","1364.46798515","4.80350804329","1369.27155614","1.19649195671","1370.51991701","1372.01094723","1372.08720517","1375.09021306","0","1375.10434413","1377.20376611",""
"sujeto_0073105","1","2","28","60","1377.33901811","inverse","4","1","4","¿Cuántos huesos tiene
 un adulto humano?","217","206","","0","0","1","competitive","right","1.49053502083","1378.82962012","3.50946497917","1382.47738004","3.10414505005","1385.58158803","2.89585494995","1388.52789807","1389.79893303","1389.87952709","1392.88249922","0","1392.8965342","1400.73355412",""
"sujeto_0073105","1","2","29","61","1400.86903","direct","1","1","1","¿Qué país africano fue 
fundado por esclavos?","Liberia","Chad","","0","0","0","individual","","1.05851387978","1401.92760706","3.94148612022","1406.0032742","6","1412.00340605","0","1412.020262","1414.01191401","1414.05654311","1417.05948305","0","1417.07450414","1425.06535912",""
"sujeto_0073105","1","2","30","62","1425.20868802","inverse","4","1","2","¿A cuánto asciende la cima
 del monte Everest?","7.990 mts","8.848 mts","","0","0","1","competitive","right","1.38487410545","1426.59362721","3.61512589455","1430.36908817","2.81448197365","1433.1836381","3.18551802635","1436.41848111","1437.60333323","1437.68682504","1440.68981123","0","1440.70412016","1447.88816118",""
"sujeto_0073105","1","2","31","63","1448.02264619","direct","4","1","1","¿Cuál es el país mas chico?","Sealand","Luxemburgo","","1","1","1","individual","right","0.970890045166","1448.99357915","4.02910995483","1453.16343713","2.87605786324","1456.03955102","3.12394213676","1459.21382213","1461.0773592","1461.1155951","1464.11854911","1","1464.13260913","1467.25355101",""
"sujeto_0073105","1","2","32","64","1467.38470507","inverse","2","1","4","¿Cuántas pirámides hay en Egipto?","10000","11000","","1","1","1","competitive","right","1.09692406654","1468.48167419","3.90307593346","1472.54069614","4.15683102608","1476.69759202","1.84316897392","1478.59095216","1479.62453103","1479.70837808","1482.70955801","1","1482.72571921","1487.83354402",""
"sujeto_0073105","1","3","1","65","1603.48822403","direct","2","1","2","¿Cuál es el quinto país con 
mas extensión?","Canadá","Brasil","","1","1","0","competitive","right","1.46242308617","1604.95069504","3.53757691383","1608.64370918","2.8749229908","1611.51869822","3.1250770092","1614.69393015","1616.02722907","1616.09495616","1619.09791803","1","1619.11288714","1626.83927011","1487.84817815"
"sujeto_0073105","1","3","2","66","1626.98120904","inverse","1","1","2","¿Qué rasgo facial no tiene
 la Mona Lisa?","Cejas","Pómulos","","0","0","1","competitive","right","1.31247997284","1628.2937572","3.68752002716","1632.13584614","3.68484282494","1635.82073617","2.31515717506","1638.18831205","1639.93871403","1640.00697207","1643.00995207","0","1643.02428603","1649.29560709",""
"sujeto_0073105","1","3","3","67","1649.4427321","direct","4","1","3","¿Cuál es el país con 
mayor población?","Esados Unidos","China","right","0","0","1","competitive","right","1.92498683929","1651.36779308","3.07501316071","1654.59884214","3.00488209724","1657.60378623","2.99511790276","1660.65203714","1662.29753613","1662.36935019","1665.36954308","1","1665.38668823","1668.7539742",""
"sujeto_0073105","1","3","4","68","1668.88867521","inverse","1","1","1","La palabra dinosaurio significa","Lagarto Terrible","Lagarto Dragón","","1","1","0","individual","right","1.34103894234","1670.22975922","3.65896105766","1674.02748609","5.97418785095","1680.00174308","0.0258121490479","1680.06300807","1681.23333502","1681.27916813","1684.28152514","1","1684.29648614","1687.15830612",""
"sujeto_0073105","1","3","5","69","1687.31464911","direct","2","1","3","¿Qué es el membrillero?","Arbol","Arbusto","","0","0","0","competitive","left","1.07807183266","1688.39278817","3.92192816734","1692.45330405","2.6044280529","1695.05777311","3.3955719471","1698.50431514","1700.45752716","1700.53907418","1703.54153514","0","1703.55650616","1710.020509",""
"sujeto_0073105","1","3","6","70","1710.15813208","inverse","3","1","3","¿Alrededor de qué planeta orbita 
el satélite Europa?","Jupiter","Saturno","","1","1","1","competitive","left","0.917570829391","1711.07576919","4.08242917061","1715.31501412","2.77371096611","1718.08877301","3.22628903389","1721.36584902","1722.90952921","1722.98403001","1725.98702216","1","1726.00103021","1728.20619702",""
"sujeto_0073105","1","3","7","71","1728.35321522","direct","3","1","1","¿Donde fue el mundial de 
fútbol de 1954?","Suiza","Suecia","","1","1","1","individual","left","2.31650710106","1730.66977119","2.68349289894","1733.50577402","4.98987197876","1738.49571109","1.01012802124","1739.5598402","1740.8124702","1740.86048508","1743.86346316","1","1743.8775301","1747.78930402",""
"sujeto_0073105","1","3","8","72","1747.94528913","inverse","1","1","4","¿Cuál de los 7 enanitos
no tenía barba?","Bashful","Mudito","","1","1","0","competitive","right","1.54640197754","1749.49176121","3.45359802246","1753.10151815","4.96619200706","1758.06777406","1.03380799294","1759.15305114","1760.73319411","1760.80395722","1763.80693603","1","1763.82098007","1768.75006819",""
"sujeto_0073105","1","3","9","73","1768.87186408","direct","3","1","2","¿Cual red social es
mas utilizada mundialmente?","Instagram","Facebook","","1","1","0","competitive","right","1.81593990326","1770.68787718","3.18406009674","1774.04570007","4.66699790955","1778.71276808","1.33300209045","1780.09471703","1782.01210117","1782.09560513","1785.09858608","1","1785.11309505","1788.047575",""
"sujeto_0073105","1","3","10","74","1788.19968104","inverse","4","1","1","¿Cuándo se inició la copa
 América de fútbol?","1916","1923","","1","1","1","individual","right","3.26608586311","1791.46586919","1.73391413689","1793.38909411","3.83666086197","1797.22579622","2.16333913803","1799.44021511","1801.33758116","1801.37413502","1804.37710714","1","1804.39256907","1807.04866409",""
"sujeto_0073105","1","3","11","75","1807.22789121","direct","3","1","4","¿Cuántos presidentes de EEUU
han muerto asesinados?","3","4","","0","0","1","individual","left","0.832933187485","1808.06089616","4.16706681252","1812.39964914","2.73413515091","1815.13384509","3.26586484909","1818.4490211","1819.932971","1819.98382616","1822.98556614","0","1823.0011611","1826.64527106",""
"sujeto_0073105","1","3","12","76","1826.78628421","inverse","2","1","4","¿Cuántas veces participó EEUU
 en la copa América?","4","5","","0","0","1","competitive","left","1.21348714828","1827.99983811","3.78651285172","1831.93956113","4.15809297562","1836.09769106","1.84190702438","1837.97432303","1839.41754007","1839.49244714","1842.49543023","0","1842.50954318","1848.62540317",""
"sujeto_0073105","1","3","13","77","1848.76188016","direct","4","1","1","¿Cuál de estos países 
no formaba la URSS?","Azeribayán","Afganistán","","0","0","1","individual","right","0.905956983566","1849.66792011","4.09404301643","1853.90307307","3.51175689697","1857.41490006","2.48824310303","1859.95435405","1861.26743102","1861.30542707","1864.30838919","0","1864.32258105","1872.29979515",""
"sujeto_0073105","1","3","14","78","1872.44014406","inverse","1","1","1","¿En qué año se inauguró
 el teatro Solís?","1867","1856","","0","0","0","individual","left","1.23663401604","1873.67684412","3.76336598396","1877.59857821","4.79824709892","1882.39689422","1.20175290108","1883.64945507","1884.70576811","1884.75048614","1887.75345612","0","1887.76784801","1894.41564417",""
"sujeto_0073105","1","3","15","79","1894.55220318","direct","1","1","4","¿A qué velocidad vuela 
el avión más rápido?","3529","3874","","0","0","0","competitive","","1.29451918602","1895.84677911","3.70548081398","1899.71013403","6","1905.71026206","0","1905.72592115","1907.48142123","1907.56236601","1910.56534314","0","1910.57937407","1912.68962908",""
"sujeto_0073105","1","3","16","80","1912.84754419","inverse","3","1","4","¿De qué año es la primer 
película cinematográfica?","1897","1888","","0","0","0","competitive","right","1.24624800682","1914.09385514","3.75375199318","1918.00282311","4.17994689941","1922.18281507","1.82005310059","1924.05449104","1925.18750811","1925.27181005","1928.27478409","0","1928.2889421","1933.69869304",""
"sujeto_0073105","1","3","17","81","1933.84024","direct","2","1","3","¿Cuántos países 
tiene nuestro planeta?","191","194","","1","1","1","competitive","left","0.945630073547","1934.78593802","4.05436992645","1939.01426005","4.26352906227","1943.27783203","1.73647093773","1945.06458306","1946.42152715","1946.49946523","1949.5015831","1","1949.51702619","1952.75359011",""
"sujeto_0073105","1","3","18","82","1952.901016","inverse","2","1","2","¿Cuántos habitantes
 tiene Buenos Aires?","2.9000.000","3650000","","0","0","0","competitive","right","1.72579908371","1954.62685919","3.27420091629","1958.04069304","5.67906188965","1963.71981406","0.320938110352","1964.09257722","1965.48953509","1965.55870414","1968.56158805","0","1968.57576323","1974.40158701",""
"sujeto_0073105","1","3","19","83","1974.54472303","direct","2","1","1","¿Cuántos kilos forman una tonelada?","1000","1500","left","1","1","1","individual","left","0.991173028946","1975.53601217","4.00882697105","1979.70117903","3.19166994095","1982.89289117","2.80833005905","1985.75153613","1987.63885403","1987.68647003","1990.68944716","1","1990.70441008","1996.66157603",""
"sujeto_0073105","1","3","20","84","1996.80539513","inverse","4","1","4","¿Cuántos estados tiene la 
República del Perú? ","24","23","","0","0","1","competitive","right","2.17747497559","1998.98293614","2.82252502441","2001.97523713","3.89949798584","2005.87477016","2.10050201416","2008.01412201","2009.03630304","2009.115242","2012.11823201","0","2012.13261604","2017.07792711",""
"sujeto_0073105","1","3","21","85","2017.21681523","direct","3","1","3","¿En qué año nació Cristóbal Colón? ","1451","1447","","0","0","1","competitive","right","0.900100946426","2018.11696506","4.09989905357","2022.37361002","3.47414708138","2025.84781218","2.52585291862","2028.42391515","2030.26980901","2030.34216118","2033.34513402","0","2033.35929203","2037.58725309",""
"sujeto_0073105","1","3","22","86","2037.72769308","inverse","4","1","4","¿Cuánto mide la 
Montaña Aconcagua? ","6234","6962","","0","0","1","competitive","right","0.841177940369","2038.56893611","4.15882205963","2042.884058","4.38378500938","2047.26791215","1.61621499062","2048.9349401","2050.22430921","2050.30268216","2053.30556321","0","2053.31985116","2060.50350714",""
"sujeto_0073105","1","3","23","87","2060.69058919","direct","2","1","4","¿Cuánto mide el punto
 más profundo del océano? ","12508","11003","","0","0","1","competitive","left","1.26626491547","2061.95691609","3.73373508453","2065.84602213","4.69086885452","2070.53693318","1.30913114548","2071.88067603","2073.13219118","2073.21405506","2076.21703005","0","2076.23217821","2080.438447",""
"sujeto_0073105","1","3","24","88","2080.5828712","inverse","1","1","3","¿Cuántos álbumes ha publicado 
el cantante Jaime Roos? ","41","34","","0","0","1","competitive","","1.66999197006","2082.25293422","3.33000802994","2085.72312808","6","2091.72326803","0","2091.73611307","2093.22594619","2093.30606723","2096.30905509","0","2096.3232832","2102.51943922",""
"sujeto_0073105","1","3","25","89","2102.65760517","direct","4","1","3","¿En qué año nació el 
ex-presidente Jorge Battle? ","1921","1927","","1","1","1","competitive","right","0.763300895691","2103.42095518","4.23669910431","2107.8170352","4.33691906929","2112.15401912","1.66308093071","2113.86860204","2115.59928203","2115.66935301","2118.67233515","1","2118.68649006","2122.17253804",""
"sujeto_0073105","1","3","26","90","2122.32170606","inverse","1","1","3","¿Cuántas presidencias 
constitucionales  hubo en Uruguay? ","41","42","","0","0","1","competitive","left","2.42722606659","2124.74899817","2.57277393341","2127.49227405","3.94464492798","2131.43698215","2.05535507202","2133.52841616","2134.7321651","2134.81322908","2137.81620216","0","2137.83032513","2143.6139822",""
"sujeto_0073105","1","3","27","91","2143.74865222","direct","1","1","2","¿Quién escribió mas sinfonías?","Mozart","Haydn","","1","1","0","competitive","left","1.60434007645","2145.35304403","3.39565992355","2148.88889313","3.44106078148","2152.33000112","2.55893921852","2154.92262721","2156.14010715","2156.22381806","2159.22677302","1","2159.24078703","2162.99220204",""
"sujeto_0073105","1","3","28","92","2163.12590814","inverse","4","1","2","¿En qué año nació Michael Jackson?","1958","1953","","1","1","1","competitive","right","1.23203778267","2164.35802722","3.76796221733","2168.27882314","5.30907392502","2173.58793616","0.690926074982","2174.31546903","2176.29370618","2176.36553216","2179.36856413","1","2179.3827002","2185.24502015",""
"sujeto_0073105","1","3","29","93","2185.3853271","direct","3","1","2","¿En qué año entró en vigencia 
la ley antitabaco en Uruguay?","2005","2006","","1","1","1","competitive","","1.25863194466","2186.64402413","3.74136805534","2190.52688718","6","2196.52703905","0","2196.54239607","2198.13714504","2198.21233511","2201.21532416","0","2201.22944403","2206.56343508",""
"sujeto_0073105","1","3","30","94","2206.69768119","inverse","3","1","1","¿Cuándo se subió el 
primer video a youtube?","2004","2005","","0","0","1","individual","left","1.05431818962","2207.75211501","3.94568181038","2211.85452414","2.75941586494","2214.61398816","3.24058413506","2217.90462017","2219.2102952","2219.25651622","2222.25948811","0","2222.27359915","2230.029212",""
"sujeto_0073105","1","3","31","95","2230.17606306","direct","2","1","1","¿Cuántos habitantes tiene India?","1200 millones","1300 millones","","0","0","0","individual","right","0.951453924179","2231.12758923","4.04854607582","2235.33355522","2.89739608765","2238.23101902","3.10260391235","2241.38269401","2243.35232306","2243.40204906","2246.40501523","0","2246.4190681","2252.4665792",""
"sujeto_0073105","1","3","32","96","2252.60437322","inverse","4","1","2","¿A qué edad murió Bob Marley?","36","37","","0","0","1","competitive","right","1.22261190414","2253.82703304","3.77738809586","2257.74285722","5.2611579895","2263.0040791","0.738842010498","2263.77918315","2265.67700219","2265.74648023","2268.74946022","0","2268.76451015","2271.86692214",""
"sujeto_0073105","1","4","1","97","2411.22017908","direct","2","1","1","¿Cuantos años dirigió la selección 
uruguaya Tabarez?","15 años","13 años","","0","0","0","individual","left","1.49385690689","2412.714082","3.50614309311","2416.35947418","3.47063112259","2419.83016801","2.52936887741","2422.41061401","2423.60181308","2423.64480615","2426.6455512","0","2426.66186404","2433.73390102","2271.88291907"
"sujeto_0073105","1","4","2","98","2433.89722705","inverse","4","1","1","¿Cuantas teclas tiene un teclado 
de computadora generalmente? ","Entre 99 y 108","Entre 109 y 113","","1","1","1","individual","right","1.76485395432","2435.66215014","3.23514604568","2439.0548141","5.07833385468","2444.13321018","0.921666145325","2445.10604119","2446.10883904","2446.15623212","2449.15752006","1","2449.17424917","2451.5455482",""
"sujeto_0073105","1","4","3","99","2451.69229817","direct","1","1","1","¿Cuál Departamento tiene
 mayor superficie?","Río Negro","Soriano","","0","0","0","individual","left","2.4248611927","2454.11722612","2.5751388073","2456.83941817","2.72868514061","2459.56817102","3.27131485939","2462.89735222","2464.61083412","2464.64915919","2467.65206909","0","2467.66702914","2471.99307418",""
"sujeto_0073105","1","4","4","100","2472.13531613","inverse","3","1","2","¿Cuál es el apellido de las 
hermanastras  de  cenicienta?","Tremaine","Truman","","0","0","1","competitive","left","2.25350499153","2474.38889909","2.74649500847","2477.29123521","3.69791507721","2480.98921323","2.30208492279","2483.34226608","2485.21179509","2485.2934401","2488.29642105","0","2488.31058002","2491.00654411",""
"sujeto_0073105","1","4","5","101","2491.14552021","direct","4","1","4","¿Cuál película ganó un
 Oscar a mejor película?","Alto Impacto","Cache","","0","0","1","competitive","left","3.99064707756","2495.1362412","1.00935292244","2496.28498507","3.80617189407","2500.09122014","2.19382810593","2502.33590817","2503.4552362","2503.53668308","2506.53968","0","2506.55367303","2508.81824708",""
"sujeto_0073105","1","4","6","102","2508.98863721","inverse","1","1","3","¿A cuántos centímetros
equivale la medida pié?","25","30","","0","0","1","competitive","left","1.58854007721","2510.57724714","3.41145992279","2514.12651706","4.25659489632","2518.38317704","1.74340510368","2520.17826605","2521.21823406","2521.29501104","2524.29755902","0","2524.31254101","2529.71352005",""
"sujeto_0073105","1","4","7","103","2529.88066006","direct","2","1","2","¿Qué departamento es mas grande?","Cerro Largo","Paysandú","","0","0","0","competitive","right","2.29357290268","2532.17428613","2.70642709732","2535.03622413","3.15992379189","2538.19622016","2.84007620811","2541.0689671","2542.66870117","2542.73781705","2545.74079514","0","2545.75504112","2549.86498308",""
"sujeto_0073105","1","4","8","104","2550.0070672","inverse","2","1","3","¿Quién pintó la Mona Lisa?","Picasso","Da Vinci","right","0","0","1","competitive","right","0.911113023758","2550.91822505","4.08888697624","2555.16480422","5.45137214661","2560.61623907","0.548627853394","2561.21553111","2562.82141423","2562.899544","2565.90253711","1","2565.9169662","2568.07928109",""
"sujeto_0073105","1","4","9","105","2568.21885419","direct","4","1","3","¿Cuántos litros hay en un galon?","3.54","3.78","","1","1","1","competitive","left","1.37035703659","2569.58928108","3.62964296341","2573.37348008","3.12871003151","2576.50225401","2.87128996849","2579.40698123","2580.92488503","2581.00914502","2584.01212406","1","2584.02606511","2589.81842208",""
"sujeto_0073105","1","4","10","106","2589.94426012","inverse","4","1","1","¿Cuántas teclas tiene
 un piano moderno?","80","88","","0","0","1","individual","","1.840955019","2591.78528523","3.159044981","2595.102458","6","2601.10259509","0","2601.11735415","2602.12583709","2602.17025614","2605.1732111","0","2605.1875701","2611.98155403",""
"sujeto_0073105","1","4","11","107","2612.12214518","direct","4","1","3","¿Cuántos países hay en África?","54","62","","0","0","1","competitive","left","1.89615511894","2614.01835418","3.10384488106","2617.29653621","3.47664904594","2620.7732501","2.52335095406","2623.32996202","2625.020504","2625.09879422","2628.10178804","0","2628.11610413","2635.9208951",""
"sujeto_0073105","1","4","12","108","2636.05135608","inverse","1","1","3","¿En qué siglo se crearon
 las primeras pistolas?","XV","XIII","","1","1","1","competitive","","0.904908895493","2636.95637512","4.09509110451","2641.20811701","6","2647.20828104","0","2647.22459912","2649.17248702","2649.24374723","2652.24553013","0","2652.26199818","2655.49353623",""
"sujeto_0073105","1","4","13","109","2655.62979913","direct","3","1","4","¿En qué año se estrenó 
la serie friends?","1994","1995","","0","0","1","competitive","right","1.0004119873","2656.63026118","3.9995880127","2660.78614807","3.71804380417","2664.50425315","2.28195619583","2666.8361001","2668.71144223","2668.78734303","2671.7903161","0","2671.80527711","2676.8113451",""
"sujeto_0073105","1","4","14","110","2676.95703912","inverse","3","1","4","¿En qué año nació Hitler?","1889","1887","","0","0","1","competitive","","0.86324095726","2677.82034016","4.13675904274","2682.12610722","6","2688.12621903","0","2688.14408207","2689.25753903","2689.33070803","2692.33366919","0","2692.34779716","2697.37354803",""
"sujeto_0073105","1","4","15","111","2697.51563215","direct","1","1","4","¿Cuánto pesa un elefante Africano?","6000 kilos","5400 kilos","","0","0","0","competitive","right","0.77858710289","2698.29429507","4.22141289711","2702.67352819","3.19666814804","2705.8702662","2.80333185196","2708.72407413","2710.0799911","2710.15870714","2713.16170216","0","2713.17581916","2719.88289809",""
"sujeto_0073105","1","4","16","112","2720.01099706","inverse","1","1","2","¿Qué porcentaje de 
la población es zurda?","10%","7%","","1","1","0","","","","","","","","","","","","","","","2725.018116","2730.99785209",""
"sujeto_0073105","1","4","17","113","2731.11706805","direct","1","1","2","¿En qué año se estrenó
Volver al futuro?","1984","1985","","0","0","1","competitive","left","1.13217401505","2732.24928904","3.86782598495","2736.27407908","3.59417104721","2739.86831307","2.40582895279","2742.30839109","2743.86950016","2743.94333601","2746.94551516","0","2746.96075821","2754.05215621",""
"sujeto_0073105","1","4","18","114","2754.19489408","inverse","3","1","2","¿Cuántos jugadores hay en un 
equipo de baseball?","9","8","","1","1","0","competitive","left","3.70240402222","2757.89736509","1.29759597778","2759.33607101","4.91324710846","2764.24938416","1.08675289154","2765.37159014","2766.98584414","2767.05455804","2770.05753803","1","2770.07285213","2775.05005908",""
"sujeto_0073105","1","4","19","115","2775.18947101","direct","2","1","1","¿Cuántos Oscar ganó
 la película titanic?","13","11","","1","1","1","individual","left","1.02782511711","2776.21737409","3.97217488289","2780.33035111","4.2589700222","2784.58936501","1.7410299778","2786.36420321","2787.66627002","2787.71571612","2790.71869707","1","2790.73315716","2795.33355522",""
"sujeto_0073105","1","4","20","116","2795.48469114","inverse","4","1","4","¿En qué año comenzó
la segunda guerra mundial?","1939","1976","left","0","0","1","competitive","left","0.891607046127","2796.37636614","4.10839295387","2800.64031219","3.16996097565","2803.81031823","2.83003902435","2806.69132805","2808.49116707","2808.57656717","2811.57955122","1","2811.59340906","2815.58056712",""
"sujeto_0073105","1","4","21","117","2815.71221423","direct","2","1","4","¿Cuántos biomas hay en Uruguay?","5","4","","0","0","1","competitive","right","0.902053117752","2816.61433601","4.09794688225","2820.8983922","5.34587001801","2826.24432516","0.654129981995","2826.93506002","2828.73241806","2828.80121613","2831.80417418","0","2831.81961012","2838.0690341",""
"sujeto_0073105","1","4","22","118","2838.20401812","inverse","2","1","3","¿Cuándo murió Pablo Escobar?","1993","1997","","1","1","1","","","","","","","","","","","","","","","2843.21236706","2848.91602802",""
"sujeto_0073105","1","4","23","119","2849.0461452","direct","1","1","4","¿Qué serie ha ganado mas premios?","Friends","Murphy Brown","","1","1","0","competitive","left","1.39716100693","2850.44335222","3.60283899307","2854.20065522","2.5907099247","2856.79140806","3.4092900753","2860.2516892","2861.60410118","2861.68737912","2864.69036102","1","2864.704391","2870.265558",""
"sujeto_0073105","1","4","24","120","2870.405756","inverse","4","1","2","¿Cuántas fichas tiene el dominó?","26","28","","1","1","1","competitive","left","1.5215959549","2871.92743206","3.4784040451","2875.54678106","3.8115439415","2879.35837221","2.1884560585","2881.57991719","2882.63519907","2882.71452618","2885.71750522","1","2885.73159122","2890.97470021",""
"sujeto_0073105","1","4","25","121","2891.11719418","direct","2","1","4","¿Cuántos son los dientes de leche?","20","25","","0","0","1","competitive","left","4.69117903709","2895.80844212","0.308820962906","2896.25452518","4.07379698753","2900.32836509","1.92620301247","2902.30823207","2904.01860023","2904.09285522","2907.09355807","0","2907.10996509","2909.25567102",""
"sujeto_0073105","1","4","26","122","2909.39456511","inverse","3","1","3","¿Cuántos gramos son una onza?","22","28","","0","0","1","","","","","","","","","","","","","","","2914.41643715","2920.70668316",""
"sujeto_0073105","1","4","27","123","2920.83457303","direct","3","1","1","¿Cuándo salió el primer album
 de los Beatles?","1963","1962","","1","1","1","","","","","","","","","","","","","","","2925.85600519","2929.62803102",""
"sujeto_0073105","1","4","28","124","2929.75464916","inverse","3","1","3","¿Quién fundó la empresa apple?","Carlos Slim","Steve Jobs","","1","1","1","","","","","","","","","","","","","","","2934.77330208","2941.0711472",""
"sujeto_0073105","1","4","29","125","2941.20725012","direct","4","1","2","¿Cuántos municipios hay
 en Montevideo?","8","7","","1","1","1","competitive","left","1.46113300323","2942.66842723","3.53886699677","2946.36599112","1.92238688469","2948.28844523","4.07761311531","2952.41617107","2954.32953906","2954.40149522","2957.4044311","1","2957.41838121","2959.49953103",""
"sujeto_0073105","1","4","30","126","2959.6697681","inverse","1","1","1","¿Cuántos kilómetros hay
 de Montevideo a Artigas?","632","599","","0","0","0","","","","","","","","","","","","","","","2964.69233012","2970.74155807",""
"sujeto_0073105","1","4","31","127","2970.8755672","direct","2","1","2","¿En qué año nació 
Leonardo Da Vinci?","1452","1511","","1","1","0","competitive","left","1.18983006477","2972.06549311","3.81016993523","2976.01407313","2.41331911087","2978.42743111","3.58668088913","2982.06470108","2983.91828012","2984.00014901","2987.00313902","1","2987.01710606","2990.16351914",""
"sujeto_0073105","1","4","32","128","2990.31846309","inverse","3","1","1","¿A qué continente
 pertenece el país Gabón?","Africa","Oceanía","","0","0","1","individual","","1.60391592979","2991.92244911","3.39608407021","2995.45837402","6","3001.458498","0","3001.47218919","3003.28385401","3003.32527614","3006.32555604","0","3006.34388208","3011.58151412",""
