"code","nro_aplicante","nro_bloque","nro_trial_bloque","nro_trial_global","show_game_type","choice_order","rival","pay_individual","pay_competitive","question","answer_left_text","answer_right_text","correct_answer","outcome_individual","outcome_competitive","outcome_rival","game_type","answer","social_time","rt_game_type","feedback_delay","show_question","answer_time","rt_answer_global","feedback_delay_2","show_jitter","jitter_time","show_outcome","outcome_time","outcome_participant_real","show_final_jitter","second_jitter_time","inicio_descanso"
"sujeto_0020285","1","1","1","1","611.960657835","direct","3","1","4","¿Cuántos centímetros corresponden
al talle 36 del calzado?","23","24",,"0","0","1","competitive","left","2.83941578865","614.800112963","2.16058421135","617.130117893","3.76795887947","620.898139","2.23204112053","623.166962862","624.195216894","624.267403841","627.270320892","0","627.285482883","629.447942972",
"sujeto_0020285","1","1","2","2","629.586630821","inverse","3","1","2","¿Cuántas metros mide la Intendencia
Municipal de Montevideo? ","84","78",,"0","0","1","individual","left","2.89944410324","632.486136913","2.10055589676","634.755481958","3.4826169014","638.238138914","2.5173830986","640.792596817","642.669736862","642.709712982","645.712683916","0","645.727859974","647.820609808",
"sujeto_0020285","1","1","3","3","647.946041822","direct","1","1","3","¿Cuántas La Pasiva
 hay en uruguay?","15","11",,"1","1","1","competitive","right","1.79406309128","649.740163803","3.20593690872","653.101054907","2.88108897209","655.982201815","3.11891102791","659.135128975","660.746816874","660.819362879","663.822316885","1","663.837836981","668.116173983",
"sujeto_0020285","1","1","4","4","668.255053997","inverse","3","1","3","¿De que color es la camiseta de uruguay?","blanca","celeste","right","1","1","1","competitive","right","1.66810297966","669.923218966","3.33189702034","673.428870916","3.14430499077","676.573235989","2.85569500923","679.461944818","680.666718006","680.746864796","683.749835014","1","683.764024019","687.217949867",
"sujeto_0020285","1","1","5","5","687.366057873","direct","2","1","1","¿Cuánto metros mide
la torre Eiffel?","333","324",,"1","1","1","competitive","right","1.88815999031","689.254287958","3.11184000969","692.521832943","2.69526219368","695.21716094","3.30473780632","698.554104805","700.075487852","700.155320883","703.15830183","1","703.173455","710.210137844",
"sujeto_0020285","1","1","6","6","710.357533932","inverse","3","1","4","¿Cuantas ciudades existen
 en todo el uruguay?","63","72",,"0","0","1","competitive","right","2.25058507919","712.608181","2.74941492081","715.530753851","4.17137002945","719.702164888","1.82862997055","721.583988905","722.63880682","722.718327999","725.721308947","0","725.735423803","733.361986876",
"sujeto_0020285","1","1","7","7","733.504232883","direct","1","1","1","¿Cuantos estados tiene África?","52","54",,"1","1","0","competitive","left","2.17597794533","735.680312872","2.82402205467","738.676100016","3.83004808426","742.506188869","2.16995191574","744.712898016","746.576943874","746.646502018","749.649451017","1","749.664731979","755.425707817",
"sujeto_0020285","1","1","8","8","755.566353798","inverse","4","1","4","¿En qué año nació
 Stephen Hawking?","1952","1942",,"0","0","1","competitive","right","2.61584687233","758.182246923","2.38415312767","760.721869946","3.16434407234","763.886253834","2.83565592766","766.756887913","768.201196909","768.274667978","771.277653933","0","771.292915821","777.39227891",
"sujeto_0020285","1","1","9","9","777.527997017","direct","2","1","3","¿Cuánto años tenía Artigas
 cuando se fue a Paraguay?","56","57",,"1","1","1","competitive","left","1.74123597145","779.269296885","3.25876402855","782.685140848","3.43702697754","786.122226954","2.56297302246","788.735075951","790.284592867","790.353199005","793.356151819","1","793.369999886","799.417302847",
"sujeto_0020285","1","1","10","10","799.555025816","inverse","1","1","2","¿Cuantos milímetros 
mide una hoja A2?","420x592","420x594",,"0","0","1","competitive","right","1.482213974","801.037282944","3.517786026","804.708952904","4.42326402664","809.132258892","1.57673597336","810.76127696","812.329713821","812.412544966","815.413726807","0","815.430239916","822.503866911",
"sujeto_0020285","1","1","11","11","822.631422997","direct","3","1","3","¿Cuál es la menor temperatura 
registrada en Uruguay?","-5.4","-7.4",,"0","0","1","individual","left","1.71167111397","824.343150854","3.28832888603","827.774420023","4.55579710007","832.330276012","1.44420289993","833.82544899","835.50749588","835.542750835","838.545717001","0","838.560096979","842.29340291",
"sujeto_0020285","1","1","12","12","842.427722931","inverse","2","1","2","¿Cuantos años hace que 
se fundó facebook?","18","17",,"0","0","0","competitive","left","1.24750685692","843.67529583","3.75249314308","847.568154812","3.28106594086","850.849279881","2.71893405914","853.618642807","854.991323948","855.069229841","858.072150946","0","858.087407827","860.861737013",
"sujeto_0020285","1","1","13","13","861.021864891","direct","1","1","4","¿Cuál animal es más
 pesado en promedio?","Rinoceronte","Hipopotamo",,"0","0","0","competitive","right","2.16544103622","863.18735981","2.83455896378","866.227386951","3.93378615379","870.161211967","2.06621384621","872.278004885","873.357247829","873.429405928","876.432374001","0","876.446466923","880.287470818",
"sujeto_0020285","1","1","14","14","880.448647976","inverse","1","1","2","¿Qué personaje de dragon ball 
murió más veces?","Chaoz","Krillin",,"1","1","0","competitive","left","2.15858507156","882.607298851","2.84141492844","885.604730844","2.86549186707","888.470281839","3.13450813293","891.652225971","893.110049963","893.187726974","896.189703941","1","896.205091953","903.978047848",
"sujeto_0020285","1","1","15","15","904.106465816","direct","3","1","2","La universidad de oxford. 
existe desde:","1096","1249",,"1","1","0","competitive","right","1.86979794502","905.976305008","3.13020205498","909.266839027","3.93141913414","913.198299885","2.06858086586","915.31743288","916.366189957","916.435218811","919.437703848","1","919.452104807","926.141704798",
"sujeto_0020285","1","1","16","16","926.287323952","inverse","3","1","1","¿Qué escritor latino ganó antes
 el premio nobel?"," García Marquez","Neruda",,"0","0","1","individual","right","2.10100603104","928.388372898","2.89899396896","931.443395853","3.18177986145","934.625213861","2.81822013855","937.495070934","939.2337358","939.280428886","942.283406973","0","942.297411919","945.757749796",
"sujeto_0020285","1","1","17","17","945.898859024","direct","4","1","3","¿Cuántos dientes tiene un
 tiburón blanco?","6000","3000",,"0","0","1","competitive","left","2.09544992447","947.994370937","2.90455007553","951.052526951","3.49067115784","954.543238878","2.50932884216","957.104962826","958.143942833","958.223640919","961.225713968","0","961.240684986","966.050357819",
"sujeto_0020285","1","1","18","18","966.191833973","inverse","4","1","1","¿Cuánto mide el paralelo Ecuador?","40.000km","70.000km",,"0","0","1","individual","left","1.61847805977","967.810354948","3.38152194023","971.348128796","3.65809702873","975.006268024","2.34190297127","977.399586916","979.355705976","979.40030694","982.40326786","0","982.417356968","986.017721891",
"sujeto_0020285","1","1","19","19","986.169556856","direct","4","1","2","¿Cuál fue el primer libro 
de Stephen King?","Carrie","The Stand",,"1","1","1","competitive","left","1.65272593498","987.822350979","3.34727406502","991.326432943","3.31241321564","994.638916969","2.68758678436","997.374245882","999.118270874","999.192131996","1002.19369698","1","1002.21009088","1006.68171382",
"sujeto_0020285","1","1","20","20","1006.81213188","inverse","2","1","3","¿Qué civilización practicaba
 la momificación?","Grecia","Egipto","right","0","0","1","competitive","right","1.46916890144","1008.2813468","3.53083109856","1011.96929193","2.74997782707","1014.7193079","3.25002217293","1018.01895094","1019.95819783","1020.03750491","1023.04048681","1","1023.05556202","1027.28436589",
"sujeto_0020285","1","1","21","21","1027.42335486","direct","4","1","4","¿Cuántos millones de visitas
 recibe google por minuto?","3.0","4.5",,"0","0","1","competitive","left","2.47400999069","1029.8974359","2.52599000931","1032.57963085","4.32160997391","1036.90129685","1.67839002609","1038.6306448","1040.14552498","1040.21444583","1043.2174108","0","1043.23274589","1050.35542202",
"sujeto_0020285","1","1","22","22","1050.48397303","inverse","1","1","3","La máquina de fax. se inventó en:","1843","1960",,"0","0","1","competitive","right","1.75436711311","1052.23838091","3.24563288689","1055.64120603","3.7130010128","1059.35426188","2.2869989872","1061.67619896","1062.91767097","1062.99381781","1065.99680591","0","1066.01105785","1069.24735284",
"sujeto_0020285","1","1","23","23","1069.37884688","direct","2","1","4","En la verdadera historia de los
 300 espartanos. habían:","300 soldados","4300 soldados",,"1","1","1","competitive","right","2.60652589798","1071.98543501","2.39347410202","1074.55002379","4.31330108643","1078.86339092","1.68669891357","1080.60288882","1081.86411285","1081.93627787","1084.93922997","1","1084.95327997","1088.75503802",
"sujeto_0020285","1","1","24","24","1088.88835001","inverse","1","1","4","¿Cuántos milímetros crece
 el pelo por día?","0.4","0.04",,"0","0","0","competitive","left","1.48299694061","1090.37140989","3.51700305939","1094.02837491","3.69294691086","1097.72136188","2.30705308914","1100.06180286","1101.82170391","1101.89630198","1104.89770699","0","1104.91478682","1111.64970994",
"sujeto_0020285","1","1","25","25","1111.78265095","direct","4","1","1","¿Cuánto mide la baldosa gris 
clásica de Montevideo?","22x22 cm.","20x20 cm.",,"1","1","1","individual","left","1.83373618126","1113.61644697","3.16626381874","1116.95325184","4.61415696144","1121.56746888","1.38584303856","1123.00583386","1125.00112391","1125.04006791","1128.04173183","1","1128.05801988","1133.60082793",
"sujeto_0020285","1","1","26","26","1133.74286485","inverse","2","1","2","¿Cuántas películas de rápidos
 y furiosos hay?","10","11",,"1","1","0","competitive","left","2.4255490303","1136.16851592","2.5744509697","1138.91701603","3.81935310364","1142.73642898","2.18064689636","1144.96914887","1146.3271718","1146.40323281","1149.40573692","1","1149.42072201","1151.45542097",
"sujeto_0020285","1","1","27","27","1151.60595202","direct","3","1","1","¿Cuántos masters 1000
 ganó Del Potro?","1","2",,"1","1","1","competitive","left","2.82738304138","1154.43340087","2.17261695862","1156.76002097","3.30829715729","1160.06838489","2.69170284271","1162.81122899","1164.56584692","1164.64597583","1167.64895487","1","1167.66303086","1175.05373693",
"sujeto_0020285","1","1","28","28","1175.19784403","inverse","2","1","4","¿Cuántos meses dura el 
embarazo de una leona?","3 meses","4 meses",,"0","0","1","competitive","left","2.40751194954","1177.60542083","2.59248805046","1180.35661292","3.13481092453","1183.49148583","2.86518907547","1186.40613294","1187.5172019","1187.59132385","1190.59427381","0","1190.60841298","1197.33089685",
"sujeto_0020285","1","1","29","29","1197.47612786","direct","1","1","1","¿En qué año fue creado
 el sandwich?","1762","1653",,"1","1","0","competitive","right","3.09829592705","1200.57448602","1.90170407295","1202.63389683","2.87149214745","1205.50545001","3.12850785255","1208.68485498","1210.28342581","1210.35274887","1213.35573697","1","1213.37053299","1216.84113979",
"sujeto_0020285","1","1","30","30","1216.97158694","inverse","4","1","2","El nombre de la moneda de Vietnam es:","Dinar","Dong",,"0","0","1","individual","left","2.67285323143","1219.64450383","2.32714676857","1222.1259768","3.94846010208","1226.07450294","2.05153989792","1228.16118097","1229.59318495","1229.62946486","1232.63241887","0","1232.64681792","1238.8152349",
"sujeto_0020285","1","1","31","31","1238.9488008","direct","2","1","1","¿cuantos aleteos puede dar 
un colibrí por segundo?","120","50",,"0","0","0","individual","left","2.4758040905","1241.42467594","2.5241959095","1244.10516381","4.31223297119","1248.41744089","1.68776702881","1250.14024282","1251.87263489","1251.92414784","1254.92712498","0","1254.94175482","1259.15403485",
"sujeto_0020285","1","1","32","32","1259.29362893","inverse","4","1","3","¿Qué altura promedio tienen
 los hombres uruguayos?","1.73 m","1.72 m",,"1","1","1","competitive","right","1.33976793289","1260.63344002","3.66023206711","1264.44899297","2.95537209511","1267.40440583","3.04462790489","1270.49906301","1271.76146603","1271.83375692","1274.836725","1","1274.85180497","1279.32775092",
"sujeto_0020285","1","2","1","33","1402.83442593","direct","1","1","1","¿En qué año nació 
el actor Bradd Pitt?","1967","1963",,"1","1","1","individual","left","2.61606693268","1405.45053887","2.38393306732","1408.00378585","3.54470586777","1411.5485568","2.45529413223","1414.04004002","1415.13590097","1415.17506695","1418.1780498","1","1418.19221783","1424.11980391","1279.33923388"
"sujeto_0020285","1","2","2","34","1424.27709579","inverse","2","1","1","¿Cual es el segundo 
monte más alto?","Kanchenjunga","K2",,"1","1","1","competitive","right","1.9435839653","1426.22079301","3.0564160347","1429.43444991","3.14508700371","1432.57957602","2.85491299629","1435.46787596","1436.92029095","1437.00279689","1440.00574303","1","1440.02072501","1443.44969392",
"sujeto_0020285","1","2","3","35","1443.58829999","direct","3","1","1","¿Cuándo finalizó la construcción
 del Palacio Legislativo?","1925","1917",,"0","0","1","individual","left","1.40827202797","1444.99663901","3.59172797203","1448.74362803","3.95983815193","1452.70352697","2.04016184807","1454.77846384","1456.42017698","1456.46198893","1459.46496391","0","1459.47959089","1465.17712903",
"sujeto_0020285","1","2","4","36","1465.31418085","inverse","3","1","3","¿Cuántos integrantes tenía
 en su inicio  el cuarteto de nos?","3","4",,"1","1","1","competitive","left","2.41836285591","1467.73264384","2.58163714409","1470.487643","3.82590889931","1474.31362891","2.17409110069","1476.53995299","1477.67305088","1477.75727081","1480.76024389","1","1480.77442503","1486.42424297",
"sujeto_0020285","1","2","5","37","1486.55958891","direct","2","1","3","¿Qué valor tiene el número pi?","3.14","4.18","left","0","0","1","competitive","left","3.02098298073","1489.58063984","1.97901701927","1491.73263097","2.95688700676","1494.68958092","3.04311299324","1497.78309798","1499.23733783","1499.31855083","1502.32148194","1","1502.33555698","1509.25648499",
"sujeto_0020285","1","2","6","38","1509.40360498","inverse","2","1","2","¿Cuál es la esperanza de vida
 en Uruguay?","75","77",,"1","1","0","competitive","left","1.82992315292","1511.23357487","3.17007684708","1514.57852697","4.12105512619","1518.69962382","1.87894487381","1520.62665987","1522.28045797","1522.36080384","1525.36378598","1","1525.37798595","1531.8376708",
"sujeto_0020285","1","2","7","39","1531.96341085","direct","1","1","2","¿Cuantos pisos tiene la torre 
de las comunicaciones?","26","32",,"1","1","0","competitive","left","1.73517084122","1533.69864893","3.26482915878","1537.1068368","3.46469402313","1540.57156897","2.53530597687","1543.15654492","1544.98530102","1545.05774999","1548.06072688","1","1548.07585788","1550.22206998",
"sujeto_0020285","1","2","8","40","1550.37722898","inverse","2","1","4","¿En qué país sudamericano 
no hay McDonalds?","Bolivia","Venezuela",,"0","0","1","competitive","right","1.19244408607","1551.56974101","3.80755591393","1555.51529694","2.84826111794","1558.36360097","3.15173888206","1561.56617498","1562.87552691","1562.95015287","1565.95312691","0","1565.96852684","1572.32824993",
"sujeto_0020285","1","2","9","41","1572.46949601","direct","3","1","1","¿En qué año empieza
 la Edad Media?","476","512",,"1","1","1","individual","right","1.63010692596","1574.09966493","3.36989307404","1577.62748981","2.92507410049","1580.55260181","3.07492589951","1583.67743087","1585.08119988","1585.12902784","1588.13199687","1","1588.14595485","1591.13373899",
"sujeto_0020285","1","2","10","42","1591.28182101","inverse","3","1","4","¿Hace cuántos años surgió
 el ser humano?","200mil","300mil",,"0","0","0","competitive","left","2.94780707359","1594.22969699","2.05219292641","1596.43631101","3.37232208252","1599.8086729","2.62767791748","1602.48551488","1604.37154102","1604.45398593","1607.45696688","0","1607.47124791","1610.78171182",
"sujeto_0020285","1","2","11","43","1610.93957591","direct","3","1","4","¿Cuántas cuadras tiene
 actualmente 18 de julio? ","36","33",,"0","0","1","competitive","left","1.76796889305","1612.70758295","3.23203110695","1616.09696889","3.22967290878","1619.3266809","2.77032709122","1622.13110781","1623.83330584","1623.91526294","1626.91824389","0","1626.93363881","1631.65992403",
"sujeto_0020285","1","2","12","44","1631.80152202","inverse","1","1","4","¿Qué juego de equipo se 
considera mas rápido?","Lacrosse","Badminton",,"0","0","0","competitive","right","1.87412309647","1633.67569399","3.12587690353","1636.95850492","3.70805287361","1640.66661501","2.29194712639","1642.99174285","1644.23479486","1644.30999589","1647.31296396","0","1647.32701588","1655.32217193",
"sujeto_0020285","1","2","13","45","1655.46089602","direct","1","1","3","¿Qué promedio de edad 
vive una jirafa? ","25","20",,"0","0","1","competitive","left","1.4217710495","1656.88270998","3.5782289505","1660.61951089","3.74116396904","1664.36071801","2.25883603096","1666.65395498","1668.41546392","1668.48865795","1671.49162388","0","1671.50548482","1677.46120286",
"sujeto_0020285","1","2","14","46","1677.59045696","inverse","1","1","2","¿Cuántos grandes lagos hay?","7","5",,"0","0","1","competitive","left","1.79322910309","1679.38374686","3.20677089691","1682.7467649","2.87586092949","1685.62266803","3.12413907051","1688.79727888","1690.08944082","1690.16539693","1693.16839385","0","1693.18256187","1701.00171185",
"sujeto_0020285","1","2","15","47","1701.13389993","direct","3","1","2","¿Cuántos discos de estudio
 grabó Johhny Cash? ","54","43",,"1","1","0","competitive","left","2.58777189255","1703.72173595","2.41222810745","1706.30963802","3.44005894661","1709.74973702","2.55994105339","1712.36092091","1713.63954186","1713.71236992","1716.71534801","1","1716.72946286","1723.38037896",
"sujeto_0020285","1","2","16","48","1723.53057599","inverse","4","1","1","¿Cuántos barrios tiene
 Montevideo? ","71","62",,"0","0","1","individual","left","1.50612401962","1725.03676581","3.49387598038","1728.67126679","3.28442907333","1731.9557538","2.71557092667","1734.72206903","1735.72914982","1735.77353597","1738.77651","0","1738.79066491","1744.25264382",
"sujeto_0020285","1","2","17","49","1744.37475586","direct","3","1","3","¿Qué edad tiene Homero Simpson?","36","42",,"0","0","1","competitive","left","1.27394199371","1745.64874196","3.72605800629","1749.51609087","2.93561887741","1752.45175099","3.06438112259","1755.56611085","1756.94211793","1757.01736689","1760.02035284","0","1760.03434086","1764.423069",
"sujeto_0020285","1","2","18","50","1764.55307603","inverse","4","1","2","¿Cuántos países con monarquía 
hay en europa actualmente? ","6","10",,"1","1","1","individual","left","1.62458491325","1766.17772484","3.37541508675","1769.7097199","4.03694009781","1773.74669886","1.96305990219","1775.7589159","1777.19722295","1777.24403501","1780.24700594","1","1780.26139688","1786.41821599",
"sujeto_0020285","1","2","19","51","1786.54610491","direct","2","1","3","¿Cuántos capítulos de
 Friends existen? ","236","228",,"1","1","1","competitive","right","1.46659994125","1788.01274681","3.53340005875","1791.70377302","4.5328950882","1796.23670697","1.4671049118","1797.75546789","1799.06101203","1799.13913584","1802.14171982","1","1802.15593195","1804.52970982",
"sujeto_0020285","1","2","20","52","1804.6579318","inverse","1","1","3","¿Cuántas óperas compuso Mozart? ","27","22",,"1","1","1","competitive","right","1.28074097633","1805.93874383","3.71925902367","1809.82967496","3.18301010132","1813.01272893","2.81698989868","1815.86359191","1817.155756","1817.23207188","1820.23505402","1","1820.24921989","1827.56067681",
"sujeto_0020285","1","2","21","53","1827.70037985","direct","4","1","3","¿Cuántos mundiales de fútbol 
femenino ha realizado FIFA? ","9","7",,"1","1","1","competitive","right","1.46636104584","1829.16681099","3.53363895416","1832.87560201","4.3791911602","1837.25485396","1.6208088398","1838.90991187","1840.15363598","1840.22700095","1843.229985","1","1843.24459481","1849.34569597",
"sujeto_0020285","1","2","22","54","1849.49550486","inverse","3","1","2","¿Cuál es la temperatura 
media anual en Montevideo? ","17.5","16.3",,"0","0","1","individual","left","1.73919892311","1851.23476386","3.26080107689","1854.65324283","3.02758097649","1857.68086481","2.97241902351","1860.68587589","1862.6244998","1862.671206","1865.67420101","0","1865.688272","1872.25780487",
"sujeto_0020285","1","2","23","55","1872.39009094","direct","2","1","2","¿En qué año se estrenó el
 videojuego The Sims? ","2000","2002",,"0","0","0","competitive","right","2.43063306808","1874.82076693","2.56936693192","1877.54808688","3.15659499168","1880.70472002","2.84340500832","1883.5983448","1885.46036887","1885.53320479","1888.53619981","0","1888.55144787","1895.94171286",
"sujeto_0020285","1","2","24","56","1896.08629799","inverse","2","1","1","¿Cuál es la canción con 
mas covers? ","Yesterday","Stand by me",,"0","0","0","individual","right","2.42949295044","1898.51585102","2.57050704956","1901.2428","2.73902511597","1903.98186493","3.26097488403","1907.29447389","1908.69298792","1908.72887897","1911.7314229","0","1911.74679279","1915.91761994",
"sujeto_0020285","1","2","25","57","1916.0482049","direct","1","1","4","¿Cuánto duró la guerra
 de los 100 años?","116","123",,"0","0","0","competitive","left","2.39757680893","1918.44587994","2.60242319107","1921.23537683","3.59143996239","1924.82685685","2.40856003761","1927.28832889","1928.76916599","1928.83905697","1931.8417089","0","1931.857131","1934.17691183",
"sujeto_0020285","1","2","26","58","1934.30836582","inverse","4","1","4","¿Qué color tiene la  bandera de Brasil?","Amarillo","Naranja","left","0","0","1","competitive","left","1.43137288094","1935.73980689","3.56862711906","1939.46127582","2.98649001122","1942.44782495","3.01350998878","1945.51317883","1947.07967591","1947.16472888","1950.16768479","1","1950.18155599","1953.21438003",
"sujeto_0020285","1","2","27","59","1953.36626387","direct","4","1","3","¿Qué carabela de 
Colon no volvió del viaje?","Santa María","La pinta",,"0","0","1","competitive","left","1.45159602165","1954.81790495","3.54840397835","1958.53967786","3.63713097572","1962.17684984","2.36286902428","1964.59011102","1966.08111787","1966.15860391","1969.16162181","0","1969.17589188","1971.27535701",
"sujeto_0020285","1","2","28","60","1971.44370103","inverse","4","1","4","¿Cuántos huesos tiene
 un adulto humano?","217","206",,"0","0","1","competitive","right","1.601115942","1973.04487896","3.398884058","1976.59780097","3.05703496933","1979.6548779","2.94296503067","1982.64883399","1983.91980886","1984.00043201","1987.0034318","0","1987.01740479","1994.85506487",
"sujeto_0020285","1","2","29","61","1995.00292802","direct","1","1","1","¿Qué país africano fue 
fundado por esclavos?","Liberia","Chad",,"0","0","0","competitive","right","2.9088871479","1997.91185784","2.0911128521","2000.17603993","3.80775880814","2003.98385787","2.19224119186","2006.22916985","2008.22082686","2008.29719901","2011.30015302","0","2011.31419897","2019.30504584",
"sujeto_0020285","1","2","30","62","2019.43204999","inverse","4","1","2","¿A cuánto asciende la cima
 del monte Everest?","7.990 mts","8.848 mts",,"0","0","1","individual","left","1.59979915619","2021.03191185","3.40020084381","2024.60653281","4.17831492424","2028.78490901","1.82168507576","2030.65753889","2031.84166193","2031.89306688","2034.89368987","0","2034.90981388","2042.09386182",
"sujeto_0020285","1","2","31","63","2042.22813582","direct","4","1","1","¿Cuál es el país mas chico?","Sealand","Luxemburgo",,"1","1","1","individual","right","1.54468202591","2043.77288389","3.45531797409","2047.38584685","3.06403207779","2050.4499259","2.93596792221","2053.43581486","2055.29934597","2055.33729792","2058.34028101","1","2058.35457802","2061.47687292",
"sujeto_0020285","1","2","32","64","2061.62339187","inverse","2","1","4","¿Cuántas pirámides hay en Egipto?","10000","11000",,"1","1","1","competitive","left","1.15142393112","2062.774858","3.84857606888","2066.77945781","4.04541301727","2070.82493186","1.95458698273","2072.81329799","2073.84685493","2073.930619","2076.93362784","1","2076.94780087","2082.0568738",
"sujeto_0020285","1","3","1","65","2188.67398691","direct","2","1","2","¿Cuál es el quinto país con 
mas extensión?","Canadá","Brasil",,"1","1","0","individual","left","1.95591878891","2190.6299479","3.04408121109","2193.8275249","4.34539890289","2198.17296386","1.65460109711","2199.86201501","2201.19530392","2201.23005199","2204.23301697","1","2204.247154","2211.96975899","2082.07184792"
"sujeto_0020285","1","3","2","66","2212.11553001","inverse","1","1","2","¿Qué rasgo facial no tiene
 la Mona Lisa?","Cejas","Pómulos",,"0","0","1","competitive","right","2.30438399315","2214.4199779","2.69561600685","2217.2573719","4.26849389076","2221.52592492","1.73150610924","2223.30816603","2225.05865598","2225.14200592","2228.14501286","0","2228.15919185","2234.43052602",
"sujeto_0020285","1","3","3","67","2234.57787681","direct","4","1","3","¿Cuál es el país con 
mayor población?","Esados Unidos","China","right","0","0","1","competitive","right","2.12807393074","2236.70601392","2.87192606926","2239.733042","3.43388795853","2243.1669898","2.56611204147","2245.78513193","2247.43111086","2247.50296092","2250.50572491","1","2250.52108502","2253.8857379",
"sujeto_0020285","1","3","4","68","2254.03852296","inverse","1","1","1","La palabra dinosaurio significa","Lagarto Terrible","Lagarto Dragón",,"1","1","0","competitive","right","1.29848814011","2255.33708286","3.70151185989","2259.1945858","4.56931090355","2263.76395488","1.43068909645","2265.24614096","2266.41647887","2266.496135","2269.49909282","1","2269.51420879","2272.37603092",
"sujeto_0020285","1","3","5","69","2272.51589894","direct","2","1","3","¿Qué es el membrillero?","Arbol","Arbusto",,"0","0","0","competitive","left","1.19404411316","2273.70998502","3.80595588684","2277.66794586","3.53291606903","2281.20091796","2.46708393097","2283.72011781","2285.67422795","2285.75485182","2288.75781894","0","2288.77219486","2295.23622084",
"sujeto_0020285","1","3","6","70","2295.37357998","inverse","3","1","3","¿Alrededor de qué planeta orbita 
el satélite Europa?","Jupiter","Saturno",,"1","1","1","competitive","right","3.1532971859","2298.52693486","1.8467028141","2300.51595283","4.02997994423","2304.5459969","1.97002005577","2306.56669998","2308.1114738","2308.18502903","2311.18801689","1","2311.20212388","2313.40728998",
"sujeto_0020285","1","3","7","71","2313.53766084","direct","3","1","1","¿Donde fue el mundial de 
fútbol de 1954?","Suiza","Suecia",,"1","1","1","individual","left","1.60534691811","2315.14307094","3.39465308189","2318.69216394","3.89483118057","2322.58705497","2.10516881943","2324.74298","2325.99557185","2326.04354","2329.046525","1","2329.06164598","2332.9697268",
"sujeto_0020285","1","3","8","72","2333.12932897","inverse","1","1","4","¿Cuál de los 7 enanitos
no tenía barba?","Bashful","Mudito",,"1","1","0","competitive","right","1.01466488838","2334.14405799","3.98533511162","2338.28324485","3.28672790527","2341.57003093","2.71327209473","2344.3355298","2345.91564798","2345.98635888","2348.98933482","1","2349.00425386","2353.92973089",
"sujeto_0020285","1","3","9","73","2354.07248592","direct","3","1","2","¿Cual red social es
mas utilizada mundialmente?","Instagram","Facebook",,"1","1","0","competitive","left","2.02954387665","2356.10207391","2.97045612335","2359.22764397","2.95838093758","2362.18608093","3.04161906242","2365.27886581","2367.19623685","2367.28040481","2370.28338599","1","2370.2985189","2373.23300982",
"sujeto_0020285","1","3","10","74","2373.41675496","inverse","4","1","1","¿Cuándo se inició la copa
 América de fútbol?","1916","1923",,"1","1","1","individual","right","2.92926907539","2376.34609294","2.07073092461","2378.57299685","3.31401705742","2381.88706994","2.68598294258","2384.60645294","2386.50384998","2386.54130983","2389.54424095","1","2389.5587368","2392.21484184",
"sujeto_0020285","1","3","11","75","2392.34396386","direct","3","1","4","¿Cuántos presidentes de EEUU
han muerto asesinados?","3","4",,"0","0","1","competitive","left","1.22300291061","2393.56700993","3.77699708939","2397.48243594","2.73159003258","2400.21408486","3.26840996742","2403.53259087","2405.01650691","2405.08463001","2408.087605","0","2408.10147691","2411.74558187",
"sujeto_0020285","1","3","12","76","2411.88648891","inverse","2","1","4","¿Cuántas veces participó EEUU
 en la copa América?","4","5",,"0","0","1","competitive","left","0.826602935791","2412.71314287","4.17339706421","2417.03909397","4.39290118217","2421.4320519","1.60709881783","2423.07565498","2424.51974893","2424.59302092","2427.59599185","0","2427.61004186","2433.725703",
"sujeto_0020285","1","3","13","77","2433.861408","direct","4","1","1","¿Cuál de estos países 
no formaba la URSS?","Azeribayán","Afganistán",,"0","0","1","individual","right","1.7657020092","2435.62717795","3.2342979908","2439.01900601","3.45604014397","2442.47508502","2.54395985603","2445.07167792","2446.38477302","2446.42264485","2449.42561603","0","2449.44021988","2457.42235684",
"sujeto_0020285","1","3","14","78","2457.55805588","inverse","1","1","1","¿En qué año se inauguró
 el teatro Solís?","1867","1856",,"0","0","0","competitive","left","1.19601202011","2458.75410891","3.80398797989","2462.71667385","3.65334796906","2466.37006402","2.34665203094","2468.7667098","2469.82301497","2469.90141392","2472.9017489","0","2472.91807699","2479.56587291",
"sujeto_0020285","1","3","15","79","2479.70312095","direct","1","1","4","¿A qué velocidad vuela 
el avión más rápido?","3529","3874",,"0","0","0","competitive","right","1.5919251442","2481.29511285","3.4080748558","2484.86145091","3.67150187492","2488.533005","2.32849812508","2490.91144991","2492.66694784","2492.74630785","2495.7492888","0","2495.76323986","2497.87351394",
"sujeto_0020285","1","3","16","80","2498.031703","inverse","3","1","4","¿De qué año es la primer 
película cinematográfica?","1897","1888",,"0","0","0","competitive","left","0.945378065109","2498.977175","4.05462193489","2503.19979","2.57336211205","2505.77319098","3.42663788795","2509.25225997","2510.3852458","2510.45354795","2513.456568","0","2513.47068286","2518.88045001",
"sujeto_0020285","1","3","17","81","2519.00629091","direct","2","1","3","¿Cuántos países 
tiene nuestro planeta?","191","194",,"1","1","1","competitive","left","1.39983487129","2520.40619087","3.60016512871","2524.16459298","3.65846800804","2527.82312083","2.34153199196","2530.19857001","2531.55581403","2531.63329101","2534.63372588","1","2534.64978099","2537.88806081",
"sujeto_0020285","1","3","18","82","2538.01857901","inverse","2","1","2","¿Cuántos habitantes
 tiene Buenos Aires?","2.9000.000","3650000",,"0","0","0","competitive","right","1.11951804161","2539.13820982","3.88048195839","2543.19050694","4.11756205559","2547.30810881","1.88243794441","2549.2419579","2550.63920879","2550.72626901","2553.72924399","0","2553.74327397","2559.57265997",
"sujeto_0020285","1","3","19","83","2559.71156502","direct","2","1","1","¿Cuántos kilos forman una tonelada?","1000","1500","left","1","1","1","individual","left","2.62354207039","2562.33515501","2.37645792961","2564.86542082","2.89972186089","2567.76520085","3.10027813911","2570.9028728","2572.79021883","2572.83718181","2575.83775687","1","2575.855088","2581.81250596",
"sujeto_0020285","1","3","20","84","2581.95621991","inverse","4","1","4","¿Cuántos estados tiene la 
República del Perú? ","24","23",,"0","0","1","competitive","right","0.949964046478","2582.90622902","4.05003595352","2587.10986781","3.74032402039","2590.85023189","2.25967597961","2593.1625278","2594.18471789","2594.26422501","2597.26690793","0","2597.28107691","2602.22639084",
"sujeto_0020285","1","3","21","85","2602.36624694","direct","3","1","3","¿En qué año nació Cristóbal Colón? ","1451","1447",,"0","0","1","individual","left","1.07091617584","2603.43722796","3.92908382416","2607.50660396","3.99047803879","2611.49714088","2.00952196121","2613.55724001","2615.40170884","2615.44154","2618.44449782","0","2618.46019602","2622.68813801",
"sujeto_0020285","1","3","22","86","2622.84367085","inverse","4","1","4","¿Cuánto mide la 
Montaña Aconcagua? ","6234","6962",,"0","0","1","competitive","left","1.54543209076","2624.3891449","3.45456790924","2628.00110793","3.65299582481","2631.6541419","2.34700417519","2634.05167198","2635.34100199","2635.41930079","2638.42227888","0","2638.43723083","2645.62087703",
"sujeto_0020285","1","3","23","87","2645.75519085","direct","2","1","4","¿Cuánto mide el punto
 más profundo del océano? ","12508","11003",,"0","0","1","competitive","left","1.68998408318","2647.44524002","3.31001591682","2650.91408587","4.28306794167","2655.19719696","1.71693205833","2656.9631238","2658.21463895","2658.29800797","2661.30097389","0","2661.31509781","2665.52137399",
"sujeto_0020285","1","3","24","88","2665.66702485","inverse","1","1","3","¿Cuántos álbumes ha publicado 
el cantante Jaime Roos? ","41","34",,"0","0","1","competitive","right","1.32512998581","2666.99221587","3.67487001419","2670.82284999","3.65129113197","2674.47417998","2.34870886803","2676.87439489","2678.3642509","2678.44224191","2681.44523287","0","2681.45941782","2687.65557098",
"sujeto_0020285","1","3","25","89","2687.82766891","direct","4","1","3","¿En qué año nació el 
ex-presidente Jorge Battle? ","1921","1927",,"1","1","1","individual","left","0.908457040787","2688.73616886","4.09154295921","2693.00112796","4.69906616211","2697.70024085","1.30093383789","2699.05218983","2700.78291488","2700.81987286","2703.82173681","1","2703.83713388","2707.32318687",
"sujeto_0020285","1","3","26","90","2707.45606685","inverse","1","1","3","¿Cuántas presidencias 
constitucionales  hubo en Uruguay? ","41","42",,"0","0","1","competitive","left","1.25611996651","2708.7122488","3.74388003349","2712.59495592","3.75813984871","2716.35313892","2.24186015129","2718.64597082","2719.84973288","2719.93013","2722.933079","0","2722.94695902","2728.72972202",
"sujeto_0020285","1","3","27","91","2728.86591482","direct","1","1","2","¿Quién escribió mas sinfonías?","Mozart","Haydn",,"1","1","0","individual","left","2.34624695778","2731.21222496","2.65375304222","2734.05539083","4.83072805405","2738.88618183","1.16927194595","2740.09096193","2741.30844402","2741.35744786","2744.36042595","1","2744.3752749","2748.126688",
"sujeto_0020285","1","3","28","92","2748.2598598","inverse","4","1","2","¿En qué año nació Michael Jackson?","1958","1953",,"1","1","1","individual","right","1.89338898659","2750.1532948","3.10661101341","2753.41573191","4.0734398365","2757.48921299","1.9265601635","2759.46742296","2761.44566894","2761.4849298","2764.48570299","1","2764.50205088","2770.36438489",
"sujeto_0020285","1","3","29","93","2770.50425482","direct","3","1","2","¿En qué año entró en vigencia 
la ley antitabaco en Uruguay?","2005","2006",,"1","1","1",,,,,,,,,,,,,,,"2775.52768397","2780.86167598",
"sujeto_0020285","1","3","30","94","2780.99299788","inverse","3","1","1","¿Cuándo se subió el 
primer video a youtube?","2004","2005",,"0","0","1","individual","left","0.890081882477","2781.88318586","4.10991811752","2786.14581585","3.22242283821","2789.36828399","2.77757716179","2792.19849396","2793.50411892","2793.54922199","2796.55218601","0","2796.56640482","2804.31775498",
"sujeto_0020285","1","3","31","95","2804.45180297","direct","2","1","1","¿Cuántos habitantes tiene India?","1200 millones","1300 millones",,"0","0","0","individual","left","3.52841901779","2807.98028493","1.47158098221","2809.61122894","3.25001001358","2812.86128283","2.74998998642","2815.66153193","2817.63112283","2817.67996287","2820.68294096","0","2820.69782495","2826.745332",
"sujeto_0020285","1","3","32","96","2826.8827889","inverse","4","1","2","¿A qué edad murió Bob Marley?","36","37",,"0","0","1","individual","left","1.541451931","2828.42428684","3.458548069","2832.03950596","2.32067203522","2834.36023498","3.67932796478","2838.08982801","2839.98768592","2840.04202199","2843.04500794","0","2843.05914998","2846.1615808",
"sujeto_0020285","1","4","1","97","2975.53652096","direct","2","1","1","¿Cuantos años dirigió la selección 
uruguaya Tabarez?","15 años","13 años",,"0","0","0","individual","right","1.85079407692","2977.38736081","3.14920592308","2980.68314695","3.52114319801","2984.2043488","2.47885680199","2986.73405385","2987.92475986","2987.9680059","2990.97097301","0","2990.98539782","2998.05743003","2846.1728518"
"sujeto_0020285","1","4","2","98","2998.2039659","inverse","4","1","1","¿Cuantas teclas tiene un teclado 
de computadora generalmente? ","Entre 99 y 108","Entre 109 y 113",,"1","1","1","individual","left","1.05641388893","2999.2604239","3.94358611107","3003.3771019","5.02623987198","3008.4034009","0.973760128021","3009.42933083","3010.43211102","3010.47887182","3013.48182201","1","3013.4963758","3015.86781883",
"sujeto_0020285","1","4","3","99","3015.99847102","direct","1","1","1","¿Cuál Departamento tiene
 mayor superficie?","Río Negro","Soriano",,"0","0","0","individual","left","2.05787801743","3018.05640793","2.94212198257","3021.17032599","3.03599214554","3024.20635796","2.96400785446","3027.22118092","3028.93368196","3028.97239399","3031.97370982","0","3031.99019003","3036.31589484",
"sujeto_0020285","1","4","4","100","3036.44104099","inverse","3","1","2","¿Cuál es el apellido de las 
hermanastras  de  cenicienta?","Tremaine","Truman",,"0","0","1","individual","left","1.95832800865","3038.39942193","3.04167199135","3041.59735203","4.71499800682","3046.31241584","1.28500199318","3047.64695001","3049.5165","3049.56480289","3052.56777596","0","3052.58190298","3055.2778368",
"sujeto_0020285","1","4","5","101","3055.41686487","direct","4","1","4","¿Cuál película ganó un
 Oscar a mejor película?","Alto Impacto","Cache",,"0","0","1","competitive","left","1.23748683929","3056.65441394","3.76251316071","3060.59134698","4.25900101662","3064.85039186","1.74099898338","3066.62465286","3067.74403","3067.82636094","3070.82929802","0","3070.84348488","3073.10812783",
"sujeto_0020285","1","4","6","102","3073.24498296","inverse","1","1","3","¿A cuántos centímetros
equivale la medida pié?","25","30",,"0","0","1","competitive","left","1.20844101906","3074.45349193","3.79155898094","3078.40015793","3.20318698883","3081.60340881","2.79681301117","3084.45085597","3085.4908638","3085.56799603","3088.57097983","0","3088.58616996","3093.98713589",
"sujeto_0020285","1","4","7","103","3094.13767695","direct","2","1","2","¿Qué departamento es mas grande?","Cerro Largo","Paysandú",,"0","0","0","competitive","right","2.2637090683","3096.40142989","2.7362909317","3099.3103919","2.66800880432","3101.97846198","3.33199119568","3105.36114597","3106.96088886","3107.02898598","3110.03198981","0","3110.04626679","3114.1562109",
"sujeto_0020285","1","4","8","104","3114.29816103","inverse","2","1","3","¿Quién pintó la Mona Lisa?","Picasso","Da Vinci","right","0","0","1","competitive","left","1.48922300339","3115.78742599","3.51077699661","3119.45370793","4.12863588333","3123.5824039","1.87136411667","3125.50490785","3127.11078596","3127.18929482","3130.19223595","0","3130.2064538","3132.36875796",
"sujeto_0020285","1","4","9","105","3132.50869799","direct","4","1","3","¿Cuántos litros hay en un galon?","3.54","3.78",,"1","1","1","individual","left","1.23370909691","3133.74247599","3.76629090309","3137.66350198","3.11386013031","3140.77741885","2.88613986969","3143.69694185","3145.214818","3145.26571894","3148.26869392","1","3148.28252792","3154.07488084",
"sujeto_0020285","1","4","10","106","3154.20103598","inverse","4","1","1","¿Cuántas teclas tiene
 un piano moderno?","80","88",,"0","0","1","competitive","right","1.45335412025","3155.65445089","3.54664587975","3159.340765","4.27762508392","3163.61844993","1.72237491608","3165.3759408","3166.38370299","3166.45973086","3169.46271586","0","3169.47777987","3176.27554393",
"sujeto_0020285","1","4","11","107","3176.41227889","direct","4","1","3","¿Cuántos países hay en África?","54","62",,"0","0","1","competitive","left","1.89968585968","3178.31203699","3.10031414032","3181.57016897","2.86423707008","3184.43445992","3.13576292992","3187.61751294","3189.30806684","3189.386832","3192.38970494","0","3192.40418887","3200.20894694",
"sujeto_0020285","1","4","12","108","3200.35536098","inverse","1","1","3","¿En qué siglo se crearon
 las primeras pistolas?","XV","XIII",,"1","1","1","competitive","left","1.02706408501","3201.38246584","3.97293591499","3205.51460385","4.11083984375","3209.62550282","1.88916015625","3211.54945803","3213.49728894","3213.58341694","3216.586339","1","3216.60159993","3219.83367085",
"sujeto_0020285","1","4","13","109","3219.96943784","direct","3","1","4","¿En qué año se estrenó 
la serie friends?","1994","1995",,"0","0","1","individual","right","0.769033908844","3220.73853803","4.23096609116","3225.15825081","4.07522201538","3229.23351288","1.92477798462","3231.19236302","3233.067698","3233.11056995","3236.11355591","0","3236.128438","3241.13451195",
"sujeto_0020285","1","4","14","110","3241.2792058","inverse","3","1","4","¿En qué año nació Hitler?","1889","1887",,"0","0","1","competitive","right","1.00628709793","3242.28557396","3.99371290207","3246.41902494","3.10842418671","3249.52748799","2.89157581329","3252.47062397","3253.58500099","3253.6544559","3256.65741396","0","3256.67127895","3261.69826889",
"sujeto_0020285","1","4","15","111","3261.85675192","direct","1","1","4","¿Cuánto pesa un elefante Africano?","6000 kilos","5400 kilos",,"0","0","0","competitive","right","1.28567481041","3263.14246988","3.71432518959","3267.01026392","3.63614797592","3270.64646792","2.36385202408","3273.06237388","3274.4176898","3274.49622703","3277.497684","0","3277.51398993","3284.21768594",
"sujeto_0020285","1","4","16","112","3284.34874487","inverse","1","1","2","¿Qué porcentaje de 
la población es zurda?","10%","7%",,"1","1","0","competitive","right","1.77072691917","3286.11953402","3.22927308083","3289.49249792","3.48689198494","3292.97942781","2.51310801506","3295.54229999","3296.78538179","3296.86009097","3299.86307693","1","3299.8777709","3305.857512",
"sujeto_0020285","1","4","17","113","3305.99618793","direct","1","1","2","¿En qué año se estrenó
Volver al futuro?","1984","1985",,"0","0","1","competitive","right","1.48531794548","3307.48155093","3.51468205452","3311.15307999","3.97244501114","3315.12556791","2.02755498886","3317.2042129","3318.76603889","3318.83818293","3321.84117889","0","3321.85515499","3328.94660687",
"sujeto_0020285","1","4","18","114","3329.08993983","inverse","3","1","2","¿Cuántos jugadores hay en un 
equipo de baseball?","9","8",,"1","1","0","competitive","left","0.953017950058","3330.04301286","4.04698204994","3334.24769592","3.78174781799","3338.02947998","2.21825218201","3340.29858589","3341.91282701","3341.98348594","3344.98644686","1","3345.00047183","3349.97771001",
"sujeto_0020285","1","4","19","115","3350.11881089","direct","2","1","1","¿Cuántos Oscar ganó
 la película titanic?","13","11",,"1","1","1","individual","left","4.38770699501","3354.506567","0.61229300499","3355.27571797","4.09983301163","3359.37559581","1.90016698837","3361.3267498","3362.62881684","3362.67787695","3365.68085194","1","3365.69543195","3370.29809785",
"sujeto_0020285","1","4","20","116","3370.42961287","inverse","4","1","4","¿En qué año comenzó
la segunda guerra mundial?","1939","1976","left","0","0","1","competitive","left","0.936916828156","3371.36659503","4.06308317184","3375.58607984","3.83245491982","3379.41859388","2.16754508018","3381.63732886","3383.43717289","3383.52161193","3386.52459097","1","3386.53877091","3390.52584887",
"sujeto_0020285","1","4","21","117","3390.69016099","direct","2","1","4","¿Cuántos biomas hay en Uruguay?","5","4",,"0","0","1","competitive","left","1.42642307281","3392.11663294","3.57357692719","3395.86332297","3.5352101326","3399.39859796","2.4647898674","3401.91391683","3403.70974398","3403.7818768","3406.78485584","0","3406.80007482","3413.04942584",
"sujeto_0020285","1","4","22","118","3413.18406701","inverse","2","1","3","¿Cuándo murió Pablo Escobar?","1993","1997",,"1","1","1","competitive","right","2.06454014778","3415.24867392","2.93545985222","3418.33996582","2.26255702972","3420.60256195","3.73744297028","3424.372473","3426.15532589","3426.2247858","3429.22778296","1","3429.24296284","3434.9456799",
"sujeto_0020285","1","4","23","119","3435.0776279","direct","1","1","4","¿Qué serie ha ganado mas premios?","Friends","Murphy Brown",,"1","1","0","competitive","left","1.08695602417","3436.16464782","3.91304397583","3440.23336601","3.01115393639","3443.24457693","2.98884606361","3446.26817584","3447.62054682","3447.70315385","3450.7061429","1","3450.72111487","3456.28269792",
"sujeto_0020285","1","4","24","120","3456.40470982","inverse","4","1","2","¿Cuántas fichas tiene el dominó?","26","28",,"1","1","1","individual","right","2.56085395813","3458.96564889","2.43914604187","3461.57840681","3.45220088959","3465.03064895","2.54779911041","3467.61397195","3468.66929603","3468.7162559","3471.71769595","1","3471.73296189","3476.97607088",
"sujeto_0020285","1","4","25","121","3477.10105896","direct","2","1","4","¿Cuántos son los dientes de leche?","20","25",,"0","0","1","competitive","left","1.27953100204","3478.38065481","3.72046899796","3482.25863099","3.00901699066","3485.26771402","2.99098300934","3488.29130983","3490.00166082","3490.07701302","3493.0799849","0","3493.09420586","3495.2399168",
"sujeto_0020285","1","4","26","122","3495.3794179","inverse","3","1","3","¿Cuántos gramos son una onza?","22","28",,"0","0","1","competitive","left","2.63317894936","3498.01264501","2.36682105064","3500.54963398","3.53194713593","3504.08164787","2.46805286407","3506.5847199","3508.57955289","3508.65283895","3511.65369391","0","3511.67076588","3517.95768094",
"sujeto_0020285","1","4","27","123","3518.1055119","direct","3","1","1","¿Cuándo salió el primer album
 de los Beatles?","1963","1962",,"1","1","1","individual","left","1.48412704468","3519.5897038","3.51587295532","3523.27504301","5.00351214409","3528.27859783","0.996487855911","3529.32838488","3530.49202681","3530.52857399","3533.52968383","1","3533.5460248","3537.31806302",
"sujeto_0020285","1","4","28","124","3537.48094487","inverse","3","1","3","¿Quién fundó la empresa apple?","Carlos Slim","Steve Jobs",,"1","1","1","competitive","right","0.84264588356","3538.32363296","4.15735411644","3542.63867092","2.55699920654","3545.1957128","3.44300079346","3548.68913293","3549.80376792","3549.87382483","3552.87680101","1","3552.89106488","3559.18572497",
"sujeto_0020285","1","4","29","125","3559.32610488","direct","4","1","2","¿Cuántos municipios hay
 en Montevideo?","8","7",,"1","1","1","individual","right","2.87848305702","3562.20463085","2.12151694298","3564.49988198","3.9026620388","3568.40260983","2.0973379612","3570.55100799","3572.4657979","3572.50193381","3575.50488281","1","3575.51978993","3577.60094094",
"sujeto_0020285","1","4","30","126","3577.73829198","inverse","1","1","1","¿Cuántos kilómetros hay
 de Montevideo a Artigas?","632","599",,"0","0","0","individual","left","2.10432696342","3579.84266496","2.89567303658","3582.89525795","2.62532186508","3585.52061796","3.37467813492","3588.95740294","3590.44050694","3590.49204183","3593.49499702","0","3593.50949192","3599.56164098",
"sujeto_0020285","1","4","31","127","3599.7105","direct","2","1","2","¿En qué año nació 
Leonardo Da Vinci?","1452","1511",,"1","1","0","individual","left","2.91120290756","3602.62181783","2.08879709244","3604.88698292","4.53864693642","3609.42566991","1.46135306358","3610.93938684","3612.7930088","3612.83952689","3615.84172392","1","3615.85710192","3619.00350094",
"sujeto_0020285","1","4","32","128","3619.14193583","inverse","3","1","1","¿A qué continente
 pertenece el país Gabón?","Africa","Oceanía",,"0","0","1","individual","left","2.36176896095","3621.50375295","2.63823103905","3624.31266594","4.75798821449","3629.070714","1.24201178551","3630.3488059","3632.16044688","3632.19863582","3635.20156288","0","3635.21680403","3640.45466495",
