"code","nro_aplicante","nro_bloque","nro_trial_bloque","nro_trial_global","show_game_type","choice_order","rival","pay_individual","pay_competitive","question","answer_left_text","answer_right_text","correct_answer","outcome_individual","outcome_competitive","outcome_rival","game_type","answer","social_time","rt_game_type","feedback_delay","show_question","answer_time","rt_answer_global","feedback_delay_2","show_jitter","jitter_time","show_outcome","outcome_time","outcome_participant_real","show_final_jitter","second_jitter_time","inicio_descanso"
"sujeto_0012643","1","1","1","1","654.290808916","direct","3","1","4","¿Cuántos centímetros corresponden
al talle 36 del calzado?","23","24","","0","0","1","competitive","right","3.48737502098","657.778225899","1.51262497902","659.461673975","4.82159209251","664.283341885","1.17840790749","665.513229847","666.541529894","666.614567995","669.617558002","0","669.631690025","671.794220924",""
"sujeto_0012643","1","1","2","2","671.932991028","inverse","3","1","2","¿Cuántas metros mide la Intendencia
Municipal de Montevideo? ","84","78","","0","0","1","competitive","left","1.79824900627","673.731304884","3.20175099373","677.088022947","5.54823684692","682.636323929","0.451763153076","683.140152931","685.018146038","685.090118885","688.09306097","0","688.107938051","690.200702906",""
"sujeto_0012643","1","1","3","3","690.362958908","direct","1","1","3","¿Cuántas La Pasiva
 hay en uruguay?","15","11","","1","1","1","competitive","left","2.22830104828","692.591328859","2.77169895172","695.511816025","3.99746608734","699.509323835","2.00253391266","701.548343897","703.15999794","703.232995987","706.235965967","1","706.250017881","710.528362036",""
"sujeto_0012643","1","1","4","4","710.669826031","inverse","3","1","3","¿De que color es la camiseta de uruguay?","blanca","celeste","right","1","1","1","competitive","","1.54242110252","712.212296009","3.45757889748","715.808215857","6","721.808372974","0","721.822957039","723.026736021","723.109832048","726.11281991","0","726.127008915","729.580942869",""
"sujeto_0012643","1","1","5","5","729.714486837","direct","2","1","1","¿Cuánto metros mide
la torre Eiffel?","333","324","","1","1","1","competitive","right","1.55278301239","731.267314911","3.44721698761","734.850888014","4.42634296417","739.277298927","1.57365703583","740.886066914","742.406723022","742.486182928","745.489142895","1","745.50405097","752.540760994",""
"sujeto_0012643","1","1","6","6","752.671890974","inverse","3","1","4","¿Cuantas ciudades existen
 en todo el uruguay?","63","72","","0","0","1","competitive","left","1.26536512375","753.937350035","3.73463487625","757.828338861","4.56386709213","762.392268896","1.43613290787","763.880877018","764.935660839","765.014258862","768.017213821","0","768.031203985","775.657791853",""
"sujeto_0012643","1","1","7","7","775.787984848","direct","1","1","1","¿Cuantos estados tiene África?","52","54","","1","1","0","competitive","right","1.77125096321","777.559281826","3.22874903679","780.925302982","3.75090098381","784.676269054","2.24909901619","786.975697041","788.838776827","788.909651041","791.910764933","1","791.927976847","797.686760902",""
"sujeto_0012643","1","1","8","8","797.832535982","inverse","4","1","4","¿En qué año nació
 Stephen Hawking?","1952","1942","","0","0","1","competitive","right","1.2056851387","799.038290977","3.7943148613","802.969146967","4.38004612923","807.349261045","1.61995387077","809.004119873","810.448395014","810.521294832","813.524277925","0","813.538492918","819.637852907",""
"sujeto_0012643","1","1","9","9","819.790364027","direct","2","1","3","¿Cuánto años tenía Artigas
 cuando se fue a Paraguay?","56","57","","1","1","1","competitive","right","1.07182812691","820.862234831","3.92817187309","824.947823048","5.50439214706","830.452260017","0.495607852936","830.998631001","832.54811883","832.632900953","835.63587904","1","835.650128841","841.697440863",""
"sujeto_0012643","1","1","10","10","841.836295843","inverse","1","1","2","¿Cuantos milímetros 
mide una hoja A2?","420x592","420x594","","0","0","1","competitive","left","1.17691588402","843.013288021","3.82308411598","846.974998951","5.59521698952","852.570284843","0.404783010483","853.01044488","854.578881979","854.659798861","857.662726879","0","857.67771101","864.750761986",""
"sujeto_0012643","1","1","11","11","864.883488894","direct","3","1","3","¿Cuál es la menor temperatura 
registrada en Uruguay?","-5.4","-7.4","","0","0","1","competitive","left","0.959748983383","865.843304873","4.04025101662","870.034312963","5.92588019371","875.960260868","0.0741198062897","876.071135998","877.753166914","877.83809495","880.84104991","0","880.854878902","884.588167906",""
"sujeto_0012643","1","1","12","12","884.724799871","inverse","2","1","2","¿Cuantos años hace que 
se fundó facebook?","18","17","","0","0","0","competitive","right","1.00545787811","885.730304003","3.99454212189","889.863905907","3.51134300232","893.375309944","2.48865699768","895.897701025","897.270427942","897.349539042","900.352519989","0","900.366638899","903.14128089",""
"sujeto_0012643","1","1","13","13","903.286236048","direct","1","1","4","¿Cuál animal es más
 pesado en promedio?","Rinoceronte","Hipopotamo","","0","0","0","competitive","left","0.890969991684","904.177250862","4.10903000832","908.473814964","4.42846918106","912.902348995","1.57153081894","914.524235964","915.603487015","915.674867868","918.677850008","0","918.693011045","922.534015894",""
"sujeto_0012643","1","1","14","14","922.662348032","inverse","1","1","2","¿Qué personaje de dragon ball 
murió más veces?","Chaoz","Krillin","","1","1","0","competitive","right","1.23190498352","923.894325018","3.76809501648","927.815213919","4.44308209419","932.258360863","1.55691790581","933.850600958","935.30843401","935.384889841","938.387886047","1","938.401929855","946.174752951",""
"sujeto_0012643","1","1","15","15","946.303566933","direct","3","1","2","La universidad de oxford. 
existe desde:","1096","1249","","1","1","0","competitive","left","0.995702981949","947.299379826","4.00429701805","951.459080935","4.50617194176","955.965301037","1.49382805824","957.511674881","958.560482025","958.629313946","961.632292032","1","961.646452904","968.334754944",""
"sujeto_0012643","1","1","16","16","968.464193821","inverse","3","1","1","¿Qué escritor latino ganó antes
 el premio nobel?"," García Marquez","Neruda","","0","0","1","competitive","right","1.35902810097","969.823264837","3.64097189903","973.623589039","5.07765293121","978.701284885","0.922347068787","979.658499956","981.398507833","981.475224018","984.478210926","0","984.493584871","987.95408392",""
"sujeto_0012643","1","1","17","17","988.095038891","direct","4","1","3","¿Cuántos dientes tiene un
 tiburón blanco?","6000","3000","","0","0","1","competitive","left","0.936231851578","989.031337023","4.06376814842","993.267355919","5.8299510479","999.097371817","0.170048952103","999.30227685","1000.34128284","1000.41894197","1003.42192888","0","1003.435817","1008.24546885",""
"sujeto_0012643","1","1","18","18","1008.38657784","inverse","4","1","1","¿Cuánto mide el paralelo Ecuador?","40.000km","70.000km","","0","0","1","competitive","left","0.852638959885","1009.23928499","4.14736104012","1013.54379487","4.0014090538","1017.54524589","1.9985909462","1019.59494805","1021.55075598","1021.62996793","1024.63295388","0","1024.64690495","1028.24947405",""
"sujeto_0012643","1","1","19","19","1028.38355803","direct","4","1","2","¿Cuál fue el primer libro 
de Stephen King?","Carrie","The Stand","","1","1","1","competitive","left","0.678724050522","1029.06234694","4.32127594948","1033.55450201","3.56276202202","1037.11732602","2.43723797798","1039.60554385","1041.34963083","1041.42270398","1044.42566586","1","1044.44080591","1048.91476488",""
"sujeto_0012643","1","1","20","20","1049.06082582","inverse","2","1","3","¿Qué civilización practicaba
 la momificación?","Grecia","Egipto","right","0","0","1","competitive","right","0.767395019531","1049.82828784","4.23260498047","1054.21493793","5.83032083511","1060.04530501","0.169679164886","1060.26700592","1062.20630693","1062.28391504","1065.286901","1","1065.30110002","1069.52989793",""
"sujeto_0012643","1","1","21","21","1069.67161894","direct","4","1","4","¿Cuántos millones de visitas
 recibe google por minuto?","3.0","4.5","","0","0","1","competitive","right","1.04161596298","1070.71331191","3.95838403702","1074.82610989","4.10909485817","1078.93526888","1.89090514183","1080.85995984","1082.37476993","1082.44474292","1085.44771886","0","1085.46167898","1092.58435988",""
"sujeto_0012643","1","1","22","22","1092.71359205","inverse","1","1","3","La máquina de fax. se inventó en:","1843","1960","","0","0","1","competitive","right","0.779696941376","1093.49335504","4.22030305862","1097.885041","5.05016303062","1102.93527389","0.949836969376","1103.93887782","1105.18097591","1105.2556169","1108.25861502","0","1108.2735579","1111.50987482",""
"sujeto_0012643","1","1","23","23","1111.64141989","direct","2","1","4","En la verdadera historia de los
 300 espartanos. habían:","300 soldados","4300 soldados","","1","1","1","competitive","","0.883836984634","1112.52532792","4.11616301537","1116.79758382","6","1122.79768991","0","1122.81237698","1124.07355285","1124.14977193","1127.15274787","0","1127.16593003","1130.9677",""
"sujeto_0012643","1","1","24","24","1131.10380197","inverse","1","1","4","¿Cuántos milímetros crece
 el pelo por día?","0.4","0.04","","0","0","0","competitive","right","1.00143504143","1132.10530305","3.99856495857","1136.25771689","3.47052001953","1139.72831392","2.52947998047","1142.30794382","1144.06863999","1144.14258194","1147.1455729","0","1147.15969992","1153.89476395",""
"sujeto_0012643","1","1","25","25","1154.02829599","direct","4","1","1","¿Cuánto mide la baldosa gris 
clásica de Montevideo?","22x22 cm.","20x20 cm.","","1","1","1","competitive","left","1.35894799232","1155.38729","3.64105200768","1159.18568802","4.1916000843","1163.37735295","1.8083999157","1165.22037697","1167.21474886","1167.28827691","1170.2912569","1","1170.30516982","1175.84678483",""
"sujeto_0012643","1","1","26","26","1175.99042487","inverse","2","1","2","¿Cuántas películas de rápidos
 y furiosos hay?","10","11","","1","1","0","competitive","left","2.4098379612","1178.40034199","2.5901620388","1181.14744496","3.20082402229","1184.3483119","2.79917597771","1187.19821596","1188.55623293","1188.63232803","1191.63474393","1","1191.65005183","1193.68472195",""
"sujeto_0012643","1","1","27","27","1193.8177669","direct","3","1","1","¿Cuántos masters 1000
 ganó Del Potro?","1","2","","1","1","1","competitive","left","0.861526966095","1194.67938685","4.13847303391","1198.97283483","3.93944001198","1202.91234589","2.06055998802","1205.02399182","1206.77865386","1206.8578639","1209.85871601","1","1209.87624788","1217.27261186",""
"sujeto_0012643","1","1","28","28","1217.42720795","inverse","2","1","4","¿Cuántos meses dura el 
embarazo de una leona?","3 meses","4 meses","","0","0","1","competitive","right","0.927036046982","1218.35431099","4.07296395302","1222.5846169","4.70767402649","1227.29233384","1.29232597351","1228.61973405","1229.73081899","1229.80388999","1232.80686283","0","1232.82120204","1239.54369593",""
"sujeto_0012643","1","1","29","29","1239.70711684","direct","1","1","1","¿En qué año fue creado
 el sandwich?","1762","1653","","1","1","0","competitive","right","1.01816606522","1240.72532582","3.98183393478","1244.86332893","3.28689885139","1248.15026903","2.71310114861","1250.91398382","1252.51250601","1252.58169198","1255.58468199","1","1255.59967303","1259.07026887",""
"sujeto_0012643","1","1","30","30","1259.21874189","inverse","4","1","2","El nombre de la moneda de Vietnam es:","Dinar","Dong","","0","0","1","competitive","right","1.00950503349","1260.22831583","3.99049496651","1264.35426784","3.89397597313","1268.24830604","2.10602402687","1270.38962388","1271.8215909","1271.89100003","1274.89400196","0","1274.90812802","1281.07655501",""
"sujeto_0012643","1","1","31","31","1281.20988202","direct","2","1","1","¿cuantos aleteos puede dar 
un colibrí por segundo?","120","50","","0","0","0","competitive","left","0.797408103943","1282.0073669","4.20259189606","1286.36768985","4.6525990963","1291.02035904","1.3474009037","1292.41949797","1294.15189886","1294.2365799","1297.23956895","0","1297.253685","1301.46596694",""
"sujeto_0012643","1","1","32","32","1301.60663605","inverse","4","1","3","¿Qué altura promedio tienen
 los hombres uruguayos?","1.73 m","1.72 m","","1","1","1","competitive","left","0.933638095856","1302.54035592","4.06636190414","1306.76169586","4.0135910511","1310.77534795","1.9864089489","1312.81233597","1314.07473493","1314.14650702","1317.14948487","1","1317.16361904","1321.63955998",""
"sujeto_0012643","1","2","1","33","1515.47059298","direct","1","1","1","¿En qué año nació 
el actor Bradd Pitt?","1967","1963","","1","1","1","competitive","left","2.36720299721","1517.83787084","2.63279700279","1520.63803792","3.63827419281","1524.27638292","2.36172580719","1526.68734884","1527.78319597","1527.85553598","1530.85851192","1","1530.87256503","1536.80012584","1321.65530086"
"sujeto_0012643","1","2","2","34","1536.92440104","inverse","2","1","1","¿Cual es el segundo 
monte más alto?","Kanchenjunga","K2","","1","1","1","competitive","right","1.15391492844","1538.07838297","3.84608507156","1542.08288693","3.60345315933","1545.68638086","2.39654684067","1548.13398504","1549.58639884","1549.6678679","1552.67077088","1","1552.68497086","1556.11487293",""
"sujeto_0012643","1","2","3","35","1556.25380588","direct","3","1","1","¿Cuándo finalizó la construcción
 del Palacio Legislativo?","1925","1917","","0","0","1","competitive","left","0.719501972198","1556.97336984","4.2804980278","1561.42543483","3.87482500076","1565.30032802","2.12517499924","1567.46031189","1569.10201597","1569.17844605","1572.18141794","0","1572.19558501","1577.89311695",""
"sujeto_0012643","1","2","4","36","1578.03059196","inverse","3","1","3","¿Cuántos integrantes tenía
 en su inicio  el cuarteto de nos?","3","4","","1","1","1","competitive","right","0.896669149399","1578.92730594","4.1033308506","1583.20335293","4.94798398018","1588.15138483","1.05201601982","1589.25555897","1590.38865399","1590.47292495","1593.475914","1","1593.48990393","1599.13971591",""
"sujeto_0012643","1","2","5","37","1599.30789685","direct","2","1","3","¿Qué valor tiene el número pi?","3.14","4.18","left","0","0","1","competitive","left","0.928405046463","1600.23633289","4.07159495354","1604.46188498","2.98140120506","1607.4433279","3.01859879494","1610.49681282","1611.95070505","1612.03191495","1615.03485894","1","1615.04955482","1621.97053385",""
"sujeto_0012643","1","2","6","38","1622.10123992","inverse","2","1","2","¿Cuál es la esperanza de vida
 en Uruguay?","75","77","","1","1","0","competitive","right","0.643046855927","1622.74433398","4.35695314407","1627.27678895","4.08855390549","1631.36539102","1.91144609451","1633.32808304","1634.98188186","1635.06239891","1638.06275702","1","1638.07888699","1644.53875399",""
"sujeto_0012643","1","2","7","39","1644.68074703","direct","1","1","2","¿Cuantos pisos tiene la torre 
de las comunicaciones?","26","32","","1","1","0","competitive","left","0.690567016602","1645.37135983","4.3094329834","1649.83792686","4.2443420887","1654.08233595","1.7556579113","1655.87263203","1657.70139503","1657.77402997","1660.77475286","1","1660.79094505","1662.93712997",""
"sujeto_0012643","1","2","8","40","1663.07764482","inverse","2","1","4","¿En qué país sudamericano 
no hay McDonalds?","Bolivia","Venezuela","","0","0","1","competitive","right","1.47065210342","1664.54834485","3.52934789658","1668.2318759","4.03239488602","1672.26433396","1.96760511398","1674.28180599","1675.59112692","1675.6667459","1678.66972995","0","1678.6836679","1685.04339504",""
"sujeto_0012643","1","2","9","41","1685.18551803","direct","3","1","1","¿En qué año empieza
 la Edad Media?","476","512","","1","1","1","competitive","left","1.44277596474","1686.62833786","3.55722403526","1690.33994198","3.00535917282","1693.34534097","2.99464082718","1696.39150095","1697.79526496","1697.87673402","1700.87875104","1","1700.89396787","1703.88252592",""
"sujeto_0012643","1","2","10","42","1704.01147699","inverse","3","1","4","¿Hace cuántos años surgió
 el ser humano?","200mil","300mil","","0","0","0","competitive","right","1.16079998016","1705.1723249","3.83920001984","1709.16875887","4.60051298141","1713.76931691","1.39948701859","1715.21989894","1717.10595393","1717.18732905","1720.19031787","0","1720.20456004","1723.51504087",""
"sujeto_0012643","1","2","11","43","1723.65659404","direct","3","1","4","¿Cuántas cuadras tiene
 actualmente 18 de julio? ","36","33","","0","0","1","competitive","left","0.63675403595","1724.29341984","4.36324596405","1728.81151104","4.84974694252","1733.66131783","1.15025305748","1734.86440587","1736.56667089","1736.64768004","1739.65067005","0","1739.66468287","1744.39100003",""
"sujeto_0012643","1","2","12","44","1744.53332782","inverse","1","1","4","¿Qué juego de equipo se 
considera mas rápido?","Lacrosse","Badminton","","0","0","0","competitive","left","0.683001995087","1745.21637487","4.31699800491","1749.68764901","3.36865997314","1753.05636001","2.63134002686","1755.73996997","1756.98272085","1757.05771899","1760.05875492","0","1760.07514","1768.07029605",""
"sujeto_0012643","1","2","13","45","1768.21034288","direct","1","1","3","¿Qué promedio de edad 
vive una jirafa? ","25","20","","0","0","1","competitive","right","0.675962924957","1768.88635588","4.32403707504","1773.36505198","3.03726410866","1776.40236187","2.96273589134","1779.41794395","1781.17947197","1781.25201082","1784.25501299","0","1784.27033186","1790.22606301",""
"sujeto_0012643","1","2","14","46","1790.37166595","inverse","1","1","2","¿Cuántos grandes lagos hay?","7","5","","0","0","1","competitive","left","0.84766793251","1791.21940398","4.15233206749","1795.545892","3.19536709785","1798.74131989","2.80463290215","1801.58061194","1802.87273192","1802.94887495","1805.9518609","0","1805.96617603","1813.78675103",""
"sujeto_0012643","1","2","15","47","1813.95100904","direct","3","1","2","¿Cuántos discos de estudio
 grabó Johhny Cash? ","54","43","","1","1","0","competitive","left","0.94730091095","1814.89838982","4.05269908905","1819.12522197","3.31109809875","1822.43639588","2.68890190125","1825.15989399","1826.43851089","1826.51065183","1829.513623","1","1829.52792597","1836.17881894",""
"sujeto_0012643","1","2","16","48","1836.3126719","inverse","4","1","1","¿Cuántos barrios tiene
 Montevideo? ","71","62","","0","0","1","competitive","left","0.622650146484","1836.93539596","4.37734985352","1841.45371985","3.97865104675","1845.4324429","2.02134895325","1847.48736787","1848.49443889","1848.57253885","1851.57552695","0","1851.58962083","1857.05075598",""
"sujeto_0012643","1","2","17","49","1857.19370294","direct","3","1","3","¿Qué edad tiene Homero Simpson?","36","42","","0","0","1","competitive","right","0.735601902008","1857.92935395","4.26439809799","1862.34421301","3.60705399513","1865.9513309","2.39294600487","1868.39687896","1869.77292895","1869.84853005","1872.85145903","0","1872.86538887","1877.25072384",""
"sujeto_0012643","1","2","18","50","1877.40055585","inverse","4","1","2","¿Cuántos países con monarquía 
hay en europa actualmente? ","6","10","","1","1","1","competitive","left","0.695772886276","1878.09640884","4.30422711372","1882.557482","3.92585110664","1886.48339701","2.07414889336","1888.59217095","1890.03045297","1890.10997105","1893.11297488","1","1893.12712598","1899.28394794",""
"sujeto_0012643","1","2","19","51","1899.41225195","direct","2","1","3","¿Cuántos capítulos de
 Friends existen? ","236","228","","1","1","1","competitive","left","0.85308098793","1900.26539993","4.14691901207","1904.552037","4.32227301598","1908.87437797","1.67772698402","1910.60435295","1911.9098959","1911.98831797","1914.99126601","1","1915.00547791","1917.381109",""
"sujeto_0012643","1","2","20","52","1917.50679398","inverse","1","1","3","¿Cuántas óperas compuso Mozart? ","27","22","","1","1","1","competitive","left","0.765533208847","1918.2723949","4.23446679115","1922.67808485","4.01819896698","1926.696347","1.98180103302","1928.72950482","1930.02161384","1930.09723902","1933.10016394","1","1933.11417484","1940.42562795",""
"sujeto_0012643","1","2","21","53","1940.58517289","direct","4","1","3","¿Cuántos mundiales de fútbol 
femenino ha realizado FIFA? ","9","7","","1","1","1","competitive","right","0.738137960434","1941.32336402","4.26186203957","1945.75426888","4.20308089256","1949.95741892","1.79691910744","1951.80743599","1953.05072093","1953.12431502","1956.12727189","1","1956.14149189","1962.24398994",""
"sujeto_0012643","1","2","22","54","1962.37622285","inverse","3","1","2","¿Cuál es la temperatura 
media anual en Montevideo? ","17.5","16.3","","0","0","1","competitive","left","1.08115696907","1963.45745492","3.91884303093","1967.53485894","3.73446297646","1971.26936388","2.26553702354","1973.58558488","1975.52410388","1975.60400391","1978.60674787","0","1978.62081099","1985.18675995",""
"sujeto_0012643","1","2","23","55","1985.32243705","direct","2","1","2","¿En qué año se estrenó el
 videojuego The Sims? ","2000","2002","","0","0","0","competitive","left","0.702925920486","1986.02543187","4.29707407951","1990.49735594","3.52592802048","1994.02332497","2.47407197952","1996.53080392","1998.39282298","1998.46577096","2001.46876597","0","2001.48262882","2008.87473392",""
"sujeto_0012643","1","2","24","56","2009.01810288","inverse","2","1","1","¿Cuál es la canción con 
mas covers? ","Yesterday","Stand by me","","0","0","0","competitive","right","0.852293014526","2009.87046504","4.14770698547","2014.19282985","3.88046884537","2018.07336092","2.11953115463","2020.24300885","2021.64152288","2021.72769594","2024.73067498","0","2024.74469995","2028.91549492",""
"sujeto_0012643","1","2","25","57","2029.0628159","direct","1","1","4","¿Cuánto duró la guerra
 de los 100 años?","116","123","","0","0","0","competitive","right","0.720927000046","2029.78382182","4.27907299995","2034.23446584","4.09582901001","2038.3303349","1.90417098999","2040.27017903","2041.7510159","2041.82121801","2044.82273602","0","2044.83864594","2047.15838289",""
"sujeto_0012643","1","2","26","58","2047.3073709","inverse","4","1","4","¿Qué color tiene la  bandera de Brasil?","Amarillo","Naranja","left","0","0","1","competitive","left","0.684975862503","2047.99239302","4.3150241375","2052.47914386","4.02520489693","2056.50441003","1.97479510307","2058.51318502","2060.07971597","2060.16458702","2063.16756392","1","2063.18171501","2066.21451092",""
"sujeto_0012643","1","2","27","59","2066.35000587","direct","4","1","3","¿Qué carabela de 
Colon no volvió del viaje?","Santa María","La pinta","","0","0","1","competitive","right","1.11531186104","2067.46539903","3.88468813896","2071.50522995","4.32806396484","2075.83335686","1.67193603516","2077.55594182","2079.04674697","2079.12344503","2082.12639594","0","2082.1414969","2084.24095392",""
"sujeto_0012643","1","2","28","60","2084.39351392","inverse","4","1","4","¿Cuántos huesos tiene
 un adulto humano?","217","206","","0","0","1","competitive","right","0.77979683876","2085.17335701","4.22020316124","2089.54624295","2.90307688713","2092.44936204","3.09692311287","2095.59741688","2096.86842585","2096.95008802","2099.95308185","0","2099.9670589","2107.80476785",""
"sujeto_0012643","1","2","29","61","2107.93489194","direct","1","1","1","¿Qué país africano fue 
fundado por esclavos?","Liberia","Chad","","0","0","0","competitive","left","0.80246090889","2108.73739696","4.19753909111","2113.09001803","4.60337710381","2117.69345903","1.39662289619","2119.14251804","2121.13415885","2121.21057987","2124.21359301","0","2124.22831297","2132.21915698",""
"sujeto_0012643","1","2","30","62","2132.53727603","inverse","4","1","2","¿A cuánto asciende la cima
 del monte Everest?","7.990 mts","8.848 mts","","0","0","1","competitive","right","0.900063037872","2133.43738484","4.09993696213","2137.68920183","3.37613010406","2141.06537795","2.62386989594","2143.72330499","2144.90809298","2144.99165797","2147.99465084","0","2148.0078969","2155.19194102",""
"sujeto_0012643","1","2","31","63","2155.37738705","direct","4","1","1","¿Cuál es el país mas chico?","Sealand","Luxemburgo","","1","1","1","competitive","left","0.826938152313","2156.20437002","4.17306184769","2160.55080605","4.18850898743","2164.73938799","1.81149101257","2166.60157084","2168.46510386","2168.55328584","2171.55625987","1","2171.57048297","2174.69276786",""
"sujeto_0012643","1","2","32","64","2174.83841801","inverse","2","1","4","¿Cuántas pirámides hay en Egipto?","10000","11000","","1","1","1","competitive","left","0.964912891388","2175.80340886","4.03508710861","2179.99474692","2.53560590744","2182.53041601","3.46439409256","2186.04400396","2187.0775969","2187.14597583","2190.14893293","1","2190.16289783","2195.27196383",""
"sujeto_0012643","1","3","1","65","2311.20952296","direct","2","1","2","¿Cuál es el quinto país con 
mas extensión?","Canadá","Brasil","","1","1","0","competitive","right","2.0698029995","2313.27936792","2.9301970005","2316.37842393","4.23192405701","2320.61041093","1.76807594299","2322.41614699","2323.74945188","2323.83382392","2326.83680701","1","2326.85102582","2334.57741189","2195.28681993"
"sujeto_0012643","1","3","2","66","2334.70163393","inverse","1","1","2","¿Qué rasgo facial no tiene
 la Mona Lisa?","Cejas","Pómulos","","0","0","1","competitive","left","0.619720935822","2335.32139993","4.38027906418","2339.87321091","4.57516098022","2344.44841504","1.42483901978","2345.90997601","2347.66038799","2347.74379587","2350.74678183","0","2350.76103282","2357.03236699",""
"sujeto_0012643","1","3","3","67","2357.16234994","direct","4","1","3","¿Cuál es el país con 
mayor población?","Esados Unidos","China","right","0","0","1","competitive","right","0.605995178223","2357.76841283","4.39400482178","2362.32120585","2.90011000633","2365.22138","3.09988999367","2368.37212682","2370.01766491","2370.08993793","2373.09292197","1","2373.10714483","2376.47447395",""
"sujeto_0012643","1","3","4","68","2376.62593484","inverse","1","1","1","La palabra dinosaurio significa","Lagarto Terrible","Lagarto Dragón","","1","1","0","competitive","right","0.674441099167","2377.30042791","4.32555890083","2381.79785085","4.42257094383","2386.22046494","1.57742905617","2387.84993696","2389.02021885","2389.10050988","2392.10349894","1","2392.11745286","2394.97922301",""
"sujeto_0012643","1","3","5","69","2395.13558698","direct","2","1","3","¿Qué es el membrillero?","Arbol","Arbusto","","0","0","0","competitive","left","0.616751194","2395.75238204","4.383248806","2400.32156992","3.50880289078","2403.83041286","2.49119710922","2406.35681987","2408.31093693","2408.39132905","2411.39429688","0","2411.40954185","2417.87076187",""
"sujeto_0012643","1","3","6","70","2418.01041698","inverse","3","1","3","¿Alrededor de qué planeta orbita 
el satélite Europa?","Jupiter","Saturno","","1","1","1","competitive","left","0.934972047806","2418.94545484","4.06502795219","2423.18650103","4.64587402344","2427.83241582","1.35412597656","2429.23729897","2430.78210902","2430.85474992","2433.85771894","1","2433.8719039","2436.07707405",""
"sujeto_0012643","1","3","7","71","2436.22395682","direct","3","1","1","¿Donde fue el mundial de 
fútbol de 1954?","Suiza","Suecia","","1","1","1","competitive","right","0.811415910721","2437.03541803","4.18858408928","2441.37846804","4.55286407471","2445.93137383","1.44713592529","2447.430439","2448.68307686","2448.76395798","2451.76694703","1","2451.78107095","2455.69284582",""
"sujeto_0012643","1","3","8","72","2455.83297205","inverse","1","1","4","¿Cuál de los 7 enanitos
no tenía barba?","Bashful","Mudito","","1","1","0","competitive","left","0.766417980194","2456.59943604","4.23358201981","2460.98919082","4.36418104172","2465.35341597","1.63581895828","2467.03959203","2468.61971188","2468.69116998","2471.69414091","1","2471.70815182","2476.63722086",""
"sujeto_0012643","1","3","9","73","2476.77648783","direct","3","1","2","¿Cual red social es
mas utilizada mundialmente?","Instagram","Facebook","","1","1","0","competitive","left","0.517880916595","2477.29441786","4.4821190834","2481.96350288","2.88982892036","2484.85339904","3.11017107964","2488.01590085","2489.93325186","2490.01693892","2493.01991796","1","2493.03416204","2495.96865487",""
"sujeto_0012643","1","3","10","74","2496.10300303","inverse","4","1","1","¿Cuándo se inició la copa
 América de fútbol?","1916","1923","","1","1","1","competitive","left","0.808350086212","2496.91142082","4.19164991379","2501.27666497","4.13270807266","2505.40941882","1.86729192734","2507.3275969","2509.2250669","2509.29447985","2512.29745984","1","2512.31179404","2514.96791387",""
"sujeto_0012643","1","3","11","75","2515.11361003","direct","3","1","4","¿Cuántos presidentes de EEUU
han muerto asesinados?","3","4","","0","0","1","competitive","left","0.870808124542","2515.98448992","4.12919187546","2520.28560996","4.22271990776","2524.50839186","1.77728009224","2526.33771205","2527.82166386","2527.90498185","2530.90796304","0","2530.92192698","2534.56601882",""
"sujeto_0012643","1","3","12","76","2534.70689797","inverse","2","1","4","¿Cuántas veces participó EEUU
 en la copa América?","4","5","","0","0","1","competitive","left","0.65647482872","2535.36341","4.34352517128","2539.87969089","4.2126789093","2544.09241986","1.7873210907","2545.91433001","2547.35845304","2547.43186188","2550.43481994","0","2550.44881105","2556.56598783",""
"sujeto_0012643","1","3","13","77","2556.71745896","direct","4","1","1","¿Cuál de estos países 
no formaba la URSS?","Azeribayán","Afganistán","","0","0","1","competitive","right","0.688141107559","2557.40566587","4.31185889244","2561.89022899","4.77012515068","2566.66039586","1.22987484932","2567.94283104","2569.25590587","2569.32552385","2572.32850385","0","2572.34273195","2580.32487392",""
"sujeto_0012643","1","3","14","78","2580.461344","inverse","1","1","1","¿En qué año se inauguró
 el teatro Solís?","1867","1856","","0","0","0","competitive","right","0.67304110527","2581.13443995","4.32695889473","2585.61929703","4.27009701729","2589.88943791","1.72990298271","2591.67144394","2592.727772","2592.80563903","2595.80862498","0","2595.82234287","2602.470155",""
"sujeto_0012643","1","3","15","79","2602.60648799","direct","1","1","4","¿A qué velocidad vuela 
el avión más rápido?","3529","3874","","0","0","0","competitive","","0.934877157211","2603.54144096","4.06512284279","2607.76408386","6","2613.76420403","0","2613.77956295","2615.53505683","2615.61637282","2618.61935401","0","2618.63341594","2620.74368691",""
"sujeto_0012643","1","3","16","80","2620.88505197","inverse","3","1","4","¿De qué año es la primer 
película cinematográfica?","1897","1888","","0","0","0","competitive","right","0.677355051041","2621.56247282","4.32264494896","2626.03746486","4.12592887878","2630.16346598","1.87407112122","2632.07319093","2633.20616293","2633.29176784","2636.29478502","0","2636.30817294","2641.71794891",""
"sujeto_0012643","1","3","17","81","2641.86008382","direct","2","1","3","¿Cuántos países 
tiene nuestro planeta?","191","194","","1","1","1","competitive","left","0.869287014008","2642.72941995","4.13071298599","2647.00135183","3.80797410011","2650.80936694","2.19202589989","2653.05257201","2654.40976596","2654.48676586","2657.48975396","1","2657.50397682","2660.74225187",""
"sujeto_0012643","1","3","18","82","2660.88895202","inverse","2","1","2","¿Cuántos habitantes
 tiene Buenos Aires?","2.9000.000","3650000","","0","0","0","competitive","right","0.628443002701","2661.51744485","4.3715569973","2666.06096888","3.05238103867","2669.11341786","2.94761896133","2672.11200786","2673.50923586","2673.57987499","2676.58283496","0","2676.59689498","2682.42626905",""
"sujeto_0012643","1","3","19","83","2682.56484294","direct","2","1","1","¿Cuántos kilos forman una tonelada?","1000","1500","left","1","1","1","competitive","left","0.664505004883","2683.22939396","4.33549499512","2687.72124791","2.95610499382","2690.67742205","3.04389500618","2693.77308202","2695.66043997","2695.74110198","2698.74408603","1","2698.75915504","2704.71657705",""
"sujeto_0012643","1","3","20","84","2704.85959196","inverse","4","1","4","¿Cuántos estados tiene la 
República del Perú? ","24","23","","0","0","1","competitive","right","0.629779815674","2705.48944497","4.37022018433","2710.03101087","3.78738498688","2713.81844187","2.21261501312","2716.08353996","2717.10572886","2717.18427587","2720.18724895","0","2720.20155501","2725.1468699",""
"sujeto_0012643","1","3","21","85","2725.28628683","direct","3","1","3","¿En qué año nació Cristóbal Colón? ","1451","1447","","0","0","1","competitive","right","0.685110092163","2725.97146201","4.31488990784","2730.460747","3.53560709953","2733.99639487","2.46439290047","2736.51181197","2738.35771894","2738.42933893","2741.430722","0","2741.44726491","2745.67522883",""
"sujeto_0012643","1","3","22","86","2745.81534505","inverse","4","1","4","¿Cuánto mide la 
Montaña Aconcagua? ","6234","6962","","0","0","1","competitive","right","0.795017004013","2746.61040688","4.20498299599","2750.97153783","3.38580298424","2754.35740995","2.61419701576","2757.02229095","2758.31164289","2758.39039493","2761.39338398","0","2761.40744686","2768.59109902",""
"sujeto_0012643","1","3","23","87","2768.75857592","direct","2","1","4","¿Cuánto mide el punto
 más profundo del océano? ","12508","11003","","0","0","1","competitive","left","0.674842834473","2769.43348384","4.32515716553","2773.91582894","3.74855995178","2777.6644609","2.25144004822","2779.9676249","2781.21914697","2781.302001","2784.304986","0","2784.31901193","2788.52525783",""
"sujeto_0012643","1","3","24","88","2788.67115688","inverse","1","1","3","¿Cuántos álbumes ha publicado 
el cantante Jaime Roos? ","41","34","","0","0","1","competitive","right","0.657296895981","2789.32850599","4.34270310402","2793.82359385","3.25781488419","2797.08144903","2.74218511581","2799.87590003","2801.36575794","2801.44403887","2804.447052","0","2804.46119094","2810.65687799",""
"sujeto_0012643","1","3","25","89","2810.79931283","direct","4","1","3","¿En qué año nació el 
ex-presidente Jorge Battle? ","1921","1927","","1","1","1","competitive","right","0.918111085892","2811.71746993","4.08188891411","2815.95504689","4.10935401917","2820.06447387","1.89064598083","2821.98893785","2823.7196269","2823.79005003","2826.79074788","1","2826.80799389","2830.29405689",""
"sujeto_0012643","1","3","26","90","2830.42568898","inverse","1","1","3","¿Cuántas presidencias 
constitucionales  hubo en Uruguay? ","41","42","","0","0","1","competitive","left","0.692704200745","2831.11843991","4.30729579926","2835.58190298","3.99548816681","2839.57746005","2.00451183319","2841.61584282","2842.81960893","2842.90096903","2845.90275002","0","2845.91777182","2851.70141983",""
"sujeto_0012643","1","3","27","91","2851.85175204","direct","1","1","2","¿Quién escribió mas sinfonías?","Mozart","Haydn","","1","1","0","competitive","left","1.01662707329","2852.86842394","3.98337292671","2857.00948882","3.29588508606","2860.30541897","2.70411491394","2863.04353499","2864.26101494","2864.34432483","2867.34728193","1","2867.36222482","2871.11364293",""
"sujeto_0012643","1","3","28","92","2871.26344299","inverse","4","1","2","¿En qué año nació Michael Jackson?","1958","1953","","1","1","1","competitive","left","0.800939083099","2872.06445193","4.1990609169","2876.45257592","2.94978785515","2879.40241003","3.05021214485","2882.50333285","2884.48158288","2884.57190895","2887.57489991","1","2887.58931184","2893.45164585",""
"sujeto_0012643","1","3","29","93","2893.59051585","direct","3","1","2","¿En qué año entró en vigencia 
la ley antitabaco en Uruguay?","2005","2006","","1","1","1","competitive","left","1.18787002563","2894.77846384","3.81212997437","2898.76400185","5.54536509514","2904.30943394","0.454634904861","2904.79976082","2906.3945179","2906.46557784","2909.46854186","1","2909.48382401","2914.81781888",""
"sujeto_0012643","1","3","30","94","2914.95157385","inverse","3","1","1","¿Cuándo se subió el 
primer video a youtube?","2004","2005","","0","0","1","competitive","left","0.671964883804","2915.62364197","4.3280351162","2920.10803199","3.6363389492","2923.74443793","2.3636610508","2926.15932584","2927.46499896","2927.54376698","2930.54676294","0","2930.56081796","2938.31644487",""
"sujeto_0012643","1","3","31","95","2938.49612284","direct","2","1","1","¿Cuántos habitantes tiene India?","1200 millones","1300 millones","","0","0","0","competitive","left","0.68131518364","2939.17746902","4.31868481636","2943.65409088","3.65729594231","2947.31145501","2.34270405769","2949.70525599","2951.67474794","2951.75612593","2954.75910687","0","2954.774122","2960.82162786",""
"sujeto_0012643","1","3","32","96","2960.97544384","inverse","4","1","2","¿A qué edad murió Bob Marley?","36","37","","0","0","1","competitive","left","0.7279920578","2961.70353889","4.2720079422","2966.14848304","4.47487306595","2970.62340093","1.52512693405","2972.18414283","2974.08197784","2974.16697383","2977.16994691","0","2977.18520784","2980.28767991",""
"sujeto_0012643","1","4","1","97","3125.67680097","direct","2","1","1","¿Cuantos años dirigió la selección 
uruguaya Tabarez?","15 años","13 años","","0","0","0","competitive","right","0.956562042236","3126.6334269","4.04343795776","3130.833395","3.70799016953","3134.54145288","2.29200983047","3136.86807394","3138.05875182","3138.13600087","3141.13899493","0","3141.15231395","3148.2243259","2980.30236602"
"sujeto_0012643","1","4","2","98","3148.37110782","inverse","4","1","1","¿Cuantas teclas tiene un teclado 
de computadora generalmente? ","Entre 99 y 108","Entre 109 y 113","","1","1","1","competitive","left","0.737305879593","3149.10845804","4.26269412041","3153.54472589","4.71968197823","3158.26447201","1.28031802177","3159.59604502","3160.59884095","3160.67999983","3163.68297791","1","3163.69715595","3166.06670594",""
"sujeto_0012643","1","4","3","99","3166.21613693","direct","1","1","1","¿Cuál Departamento tiene
 mayor superficie?","Río Negro","Soriano","","0","0","0","competitive","right","0.601315021515","3166.81753087","4.39868497849","3171.38756084","3.86489486694","3175.25249696","2.13510513306","3177.43927884","3179.15274882","3179.22319889","3182.22618294","0","3182.24118304","3186.56725383",""
"sujeto_0012643","1","4","4","100","3186.70884991","inverse","3","1","2","¿Cuál es el apellido de las 
hermanastras  de  cenicienta?","Tremaine","Truman","","0","0","1","competitive","left","0.667594909668","3187.37649202","4.33240509033","3191.86210084","5.63028788567","3197.49245","0.369712114334","3197.91512489","3199.78466582","3199.86537194","3202.86673188","0","3202.88296795","3205.57894397",""
"sujeto_0012643","1","4","5","101","3205.71767282","direct","4","1","4","¿Cuál película ganó un
 Oscar a mejor película?","Alto Impacto","Cache","","0","0","1","competitive","right","0.834738016129","3206.552459","4.16526198387","3210.90836501","3.88002705574","3214.78845382","2.11997294426","3216.95843196","3218.07782102","3218.16009283","3221.16160703","0","3221.17688894","3223.44152284",""
"sujeto_0012643","1","4","6","102","3223.57887793","inverse","1","1","3","¿A cuántos centímetros
equivale la medida pié?","25","30","","0","0","1","competitive","left","0.672555923462","3224.25147986","4.32744407654","3228.73401189","3.84743094444","3232.58148289","2.15256905556","3234.78448391","3235.82449484","3235.90280294","3238.90578604","0","3238.9197619","3244.32072496",""
"sujeto_0012643","1","4","7","103","3244.45395088","direct","2","1","2","¿Qué departamento es mas grande?","Cerro Largo","Paysandú","","0","0","0","competitive","right","0.868470907211","3245.32249188","4.13152909279","3249.60869288","3.20672297478","3252.81547904","2.79327702522","3255.66050601","3257.26022387","3257.32861185","3260.33156395","0","3260.34568286","3264.45566702",""
"sujeto_0012643","1","4","8","104","3264.59786296","inverse","2","1","3","¿Quién pintó la Mona Lisa?","Picasso","Da Vinci","right","0","0","1","competitive","right","0.561548948288","3265.15946102","4.43845105171","3269.75436187","3.11308789253","3272.86751699","2.88691210747","3275.78838301","3277.394243","3277.47398782","3280.47698498","1","3280.49130487","3282.65363383",""
"sujeto_0012643","1","4","9","105","3282.79291487","direct","4","1","3","¿Cuántos litros hay en un galon?","3.54","3.78","","1","1","1","competitive","left","1.69152593613","3284.48451591","3.30847406387","3287.94850683","3.69891691208","3291.64747","2.30108308792","3293.99840784","3295.51625395","3295.59999704","3298.60299492","1","3298.61695099","3304.40928292",""
"sujeto_0012643","1","4","10","106","3304.55176997","inverse","4","1","1","¿Cuántas teclas tiene
 un piano moderno?","80","88","","0","0","1","competitive","right","0.62567782402","3305.17752385","4.37432217598","3309.7078979","4.74855685234","3314.45649695","1.25144314766","3315.74372101","3316.75220394","3316.827914","3319.83088684","0","3319.84515905","3326.64292002",""
"sujeto_0012643","1","4","11","107","3326.79573393","direct","4","1","3","¿Cuántos países hay en África?","54","62","","0","0","1","competitive","left","0.819725990295","3327.61550283","4.1802740097","3331.96784592","2.54763698578","3334.51555586","3.45236301422","3338.00197482","3339.69249797","3339.771029","3342.77400494","0","3342.78868389","3350.59345102",""
"sujeto_0012643","1","4","12","108","3350.74018288","inverse","1","1","3","¿En qué siglo se crearon
 las primeras pistolas?","XV","XIII","","1","1","1","competitive","left","0.659278869629","3351.39953399","4.34072113037","3355.89891386","5.32260608673","3361.22158694","0.677393913269","3361.93438387","3363.88227582","3363.96851397","3366.97150588","1","3366.98568082","3370.21878791",""
"sujeto_0012643","1","4","13","109","3370.353724","direct","3","1","4","¿En qué año se estrenó 
la serie friends?","1994","1995","","0","0","1","competitive","right","1.03573012352","3371.38951898","3.96426987648","3375.50932097","4.36509513855","3379.87448382","1.63490486145","3381.56096983","3383.43627501","3383.51191998","3386.5148859","0","3386.52910686","3391.53516698",""
"sujeto_0012643","1","4","14","110","3391.68129802","inverse","3","1","4","¿En qué año nació Hitler?","1889","1887","","0","0","1","competitive","right","0.864133119583","3392.54550195","4.13586688042","3396.85363603","3.03678297997","3399.89048195","2.96321702003","3402.903723","3404.01803398","3404.08912802","3407.092103","0","3407.10617805","3412.13094091",""
"sujeto_0012643","1","4","15","111","3412.27452588","direct","1","1","4","¿Cuánto pesa un elefante Africano?","6000 kilos","5400 kilos","","0","0","0","competitive","left","1.12101697922","3413.39566302","3.87898302078","3417.431216","3.38818502426","3420.81944203","2.61181497574","3423.48096299","3424.83688998","3424.91654301","3427.91952395","0","3427.93367386","3434.64074302",""
"sujeto_0012643","1","4","16","112","3434.801265","inverse","1","1","2","¿Qué porcentaje de 
la población es zurda?","10%","7%","","1","1","0","competitive","right","0.627159118652","3435.42847085","4.37284088135","3439.95893884","3.88546800613","3443.84444785","2.11453199387","3446.0098989","3447.25300789","3447.32801294","3450.33100891","1","3450.345227","3456.32498288",""
"sujeto_0012643","1","4","17","113","3456.46311784","direct","1","1","2","¿En qué año se estrenó
Volver al futuro?","1984","1985","","0","0","1","competitive","left","0.689680099487","3457.15284395","4.31031990051","3461.62049103","4.45293617249","3466.07346892","1.54706382751","3467.67098999","3469.23281503","3469.30577397","3472.30675101","0","3472.322999","3479.41445684",""
"sujeto_0012643","1","4","18","114","3479.55831099","inverse","3","1","2","¿Cuántos jugadores hay en un 
equipo de baseball?","9","8","","1","1","0","competitive","right","0.571178197861","3480.12954187","4.42882180214","3484.73167396","4.49977588654","3489.23152184","1.50022411346","3490.78379989","3492.39802885","3492.46726704","3495.470227","1","3495.48513699","3500.46235895",""
"sujeto_0012643","1","4","19","115","3500.603163","direct","2","1","1","¿Cuántos Oscar ganó
 la película titanic?","13","11","","1","1","1","competitive","left","0.658316135406","3501.26152992","4.34168386459","3505.75697088","3.35250306129","3509.10952687","2.64749693871","3511.80938697","3513.11142302","3513.19336605","3516.19585896","1","3516.21051097","3520.81318283",""
"sujeto_0012643","1","4","20","116","3520.99574399","inverse","4","1","4","¿En qué año comenzó
la segunda guerra mundial?","1939","1976","left","0","0","1","competitive","right","0.796766042709","3521.79259491","4.20323395729","3526.15314889","3.9213449955","3530.07456088","2.0786550045","3532.2045269","3534.00433183","3534.08878088","3537.09073186","0","3537.10592604","3541.09073782",""
"sujeto_0012643","1","4","21","117","3541.22457385","direct","2","1","4","¿Cuántos biomas hay en Uruguay?","5","4","","0","0","1","competitive","left","0.659868001938","3541.88448691","4.34013199806","3546.38042092","3.37107396126","3549.75156403","2.62892603874","3552.43107605","3554.22843504","3554.29880285","3557.30178404","0","3557.3169179","3563.56274605",""
"sujeto_0012643","1","4","22","118","3563.70172882","inverse","2","1","3","¿Cuándo murió Pablo Escobar?","1993","1997","","1","1","1","competitive","right","0.696732997894","3564.39850688","4.30326700211","3568.85840702","4.48906517029","3573.3475399","1.51093482971","3574.91064787","3576.69351101","3576.77760386","3579.7805829","1","3579.79465103","3585.49828887",""
"sujeto_0012643","1","4","23","119","3585.6302259","direct","1","1","4","¿Qué serie ha ganado mas premios?","Friends","Murphy Brown","","1","1","0","competitive","left","1.07726597786","3586.70761895","3.92273402214","3590.80139995","3.16002488136","3593.96146989","2.83997511864","3596.83614588","3598.18856287","3598.27153897","3601.27451992","1","3601.28846383","3606.85007882",""
"sujeto_0012643","1","4","24","120","3606.99060297","inverse","4","1","2","¿Cuántas fichas tiene el dominó?","26","28","","1","1","1","competitive","right","0.932876825333","3607.92354798","4.06712317467","3612.14777493","3.33968496323","3615.48749995","2.66031503677","3618.19842887","3619.25374603","3619.33322501","3622.33621788","1","3622.35048389","3627.59359789",""
"sujeto_0012643","1","4","25","121","3627.73530793","direct","2","1","4","¿Cuántos son los dientes de leche?","20","25","","0","0","1","competitive","left","0.68914103508","3628.42449403","4.31085896492","3632.87532997","3.22309303284","3636.09846902","2.77690696716","3638.92637992","3640.6367569","3640.71060085","3643.71360993","0","3643.72788","3645.87359405",""
"sujeto_0012643","1","4","26","122","3646.01297784","inverse","3","1","3","¿Cuántos gramos son una onza?","22","28","","0","0","1","competitive","right","0.702543020248","3646.71565104","4.29745697975","3651.20111489","4.14931988716","3655.35047603","1.85068011284","3657.25203896","3659.2469039","3659.31981301","3662.32279801","0","3662.3378129","3668.62806582",""
"sujeto_0012643","1","4","27","123","3668.77293205","direct","3","1","1","¿Cuándo salió el primer album
 de los Beatles?","1963","1962","","1","1","1","competitive","right","0.639992952347","3669.41304994","4.36000704765","3673.94305086","3.7814450264","3677.72454","2.2185549736","3679.97850895","3681.142138","3681.2131629","3684.21617699","1","3684.23081088","3688.00284886",""
"sujeto_0012643","1","4","28","124","3688.13195086","inverse","3","1","3","¿Quién fundó la empresa apple?","Carlos Slim","Steve Jobs","","1","1","1","competitive","right","0.681560993195","3688.81359196","4.31843900681","3693.28956294","4.0929172039","3697.38252687","1.9070827961","3699.32358503","3700.43824697","3700.52535391","3703.52677202","1","3703.54219699","3709.83874702",""
"sujeto_0012643","1","4","29","125","3709.97703791","direct","4","1","2","¿Cuántos municipios hay
 en Montevideo?","8","7","","1","1","1","competitive","left","1.26750183105","3711.24461293","3.73249816895","3715.13499284","3.80151391029","3718.93657184","2.19848608971","3721.185642","3723.10040283","3723.18624091","3726.1892159","1","3726.20426393","3728.28539395",""
"sujeto_0012643","1","4","30","126","3728.42191887","inverse","1","1","1","¿Cuántos kilómetros hay
 de Montevideo a Artigas?","632","599","","0","0","0","competitive","right","0.682525873184","3729.10451388","4.31747412682","3733.59119201","3.84529805183","3737.43653584","2.15470194817","3739.62729883","3741.110425","3741.19517803","3744.19818187","0","3744.21229196","3750.26438403",""
"sujeto_0012643","1","4","31","127","3750.397367","direct","2","1","2","¿En qué año nació 
Leonardo Da Vinci?","1452","1511","","1","1","0","competitive","right","0.696111917496","3751.09354782","4.3038880825","3755.55453801","4.83296298981","3760.38756394","1.16703701019","3761.60618997","3763.45981193","3763.5403769","3766.54332805","1","3766.55757284","3769.7039609",""
"sujeto_0012643","1","4","32","128","3769.87561083","inverse","3","1","1","¿A qué continente
 pertenece el país Gabón?","Africa","Oceanía","","0","0","1","competitive","left","1.46789002419","3771.34354591","3.53210997581","3775.01524997","3.62319803238","3778.63850999","2.37680196762","3781.06573486","3782.87738991","3782.95041704","3785.95338392","0","3785.96758795","3791.20547605",""
