"code","nro_aplicante","nro_bloque","nro_trial_bloque","nro_trial_global","show_game_type","choice_order","rival","pay_individual","pay_competitive","question","answer_left_text","answer_right_text","correct_answer","outcome_individual","outcome_competitive","outcome_rival","game_type","answer","social_time","rt_game_type","feedback_delay","show_question","answer_time","rt_answer_global","feedback_delay_2","show_jitter","jitter_time","show_outcome","outcome_time","outcome_participant_real","show_final_jitter","second_jitter_time","inicio_descanso"
"sujeto_e1314c94","1","1","1","1","651.567336082","direct","3","1","4","¿Cuántos centímetros corresponden
al talle 36 del calzado?","23","24","","0","0","1","competitive","right","1.59722900391","653.164604187","3.40277099609","656.706664085","3.85494804382","660.561674118","2.14505195618","662.757450104","663.785706997","663.85859108","666.861531973","0","666.875675201","669.03820014",""
"sujeto_e1314c94","1","1","2","2","669.212016106","inverse","3","1","2","¿Cuántas metros mide la Intendencia
Municipal de Montevideo? ","84","78","","0","0","1","competitive","right","0.840682983398","670.052745104","4.1593170166","674.364627123","3.84403419495","678.208722115","2.15596580505","680.400099993","682.278139114","682.350028038","685.352986097","0","685.36821413","687.460954189",""
"sujeto_e1314c94","1","1","3","3","687.602437973","direct","1","1","3","¿Cuántas La Pasiva
 hay en uruguay?","15","11","","1","1","1","competitive","right","1.40416407585","689.00664115","3.59583592415","692.741901159","4.33579206467","697.077759981","1.66420793533","698.793437004","700.405115128","700.47706604","703.478629112","1","703.494610071","707.770637989",""
"sujeto_e1314c94","1","1","4","4","707.898966074","inverse","3","1","3","¿De que color es la camiseta de uruguay?","blanca","celeste","right","1","1","1","competitive","right","1.02268505096","708.921705008","3.97731494904","713.051486969","2.44726991653","715.498816013","3.55273008347","719.085302114","720.290047169","720.370203018","723.373170137","1","723.388298988","726.8422122",""
"sujeto_e1314c94","1","1","5","5","727.007979155","direct","2","1","1","¿Cuánto metros mide
la torre Eiffel?","333","324","","1","1","1","competitive","left","1.31782698631","728.325878143","3.68217301369","732.161590099","2.51124811172","734.672875166","3.48875188828","738.195199013","739.716573","739.797713041","742.800661087","1","742.814888","749.851587057",""
"sujeto_e1314c94","1","1","6","6","749.985503197","inverse","3","1","4","¿Cuantas ciudades existen
 en todo el uruguay?","63","72","","0","0","1","competitive","left","1.66032409668","751.645867109","3.33967590332","755.140781164","4.20306897163","759.343909025","1.79693102837","761.192280054","762.246673107","762.326608181","765.329571009","0","765.343536139","772.966683149",""
"sujeto_e1314c94","1","1","7","7","773.13161397","direct","1","1","1","¿Cuantos estados tiene África?","52","54","","1","1","0","competitive","left","1.53426599503","774.665942192","3.46573400497","778.285881042","3.0170378685","781.302960157","2.9829621315","784.336060047","786.198660135","786.271541119","789.274542093","1","789.288506985","795.049538136",""
"sujeto_e1314c94","1","1","8","8","795.193701029","inverse","4","1","4","¿En qué año nació
 Stephen Hawking?","1952","1942","","0","0","1","competitive","left","0.897293806076","796.091070175","4.10270619392","800.344238997","2.94271206856","803.287010193","3.05728793144","806.379780054","807.824053049","807.897811174","810.900799036","0","810.914949179","817.014312029",""
"sujeto_e1314c94","1","1","9","9","817.15122509","direct","2","1","3","¿Cuánto años tenía Artigas
 cuando se fue a Paraguay?","56","57","","1","1","1","competitive","left","1.10677886009","818.258074999","3.89322113991","822.292208195","3.22481989861","825.517071009","2.77518010139","828.343044043","829.892557144","829.977324009","832.980265141","1","832.994379997","839.04166317",""
"sujeto_e1314c94","1","1","10","10","839.182394028","inverse","1","1","2","¿Cuantos milímetros 
mide una hoja A2?","420x592","420x594","","0","0","1","competitive","right","1.21368694305","840.39615202","3.78631305695","844.336723089","4.36536002159","848.702104092","1.63463997841","850.387861967","851.956299067","852.038560152","855.041537046","0","855.0556252","862.129258156",""
"sujeto_e1314c94","1","1","11","11","862.274194002","direct","3","1","3","¿Cuál es la menor temperatura 
registrada en Uruguay?","-5.4","-7.4","","0","0","1","competitive","left","0.982877016068","863.257117987","4.01712298393","867.431612968","4.93645906448","872.368129015","1.06354093552","873.483142138","875.165194035","875.233126163","878.236103058","0","878.251149178","881.984446049",""
"sujeto_e1314c94","1","1","12","12","882.120491982","inverse","2","1","2","¿Cuantos años hace que 
se fundó facebook?","18","17","","0","0","0","competitive","right","0.89766907692","883.018231153","4.10233092308","887.272119045","3.21702194214","890.489180088","2.78297805786","893.324375153","894.697087049","894.776544094","897.779520988","0","897.793585062","900.568224192",""
"sujeto_e1314c94","1","1","13","13","900.729722977","direct","1","1","4","¿Cuál animal es más
 pesado en promedio?","Rinoceronte","Hipopotamo","","0","0","0","competitive","right","1.32541203499","902.055199146","3.67458796501","905.917479038","3.50061893463","909.418162107","2.49938106537","911.968128204","913.047372103","913.120686054","916.123673201","0","916.13788414","919.978905201",""
"sujeto_e1314c94","1","1","14","14","920.140954018","inverse","1","1","2","¿Qué personaje de dragon ball 
murió más veces?","Chaoz","Krillin","","1","1","0","competitive","right","0.900245904922","921.041278124","4.09975409508","925.295300007","2.84186005592","928.137220144","3.15813994408","931.345885992","932.803704023","932.880825996","935.883838177","1","935.897768021","943.67071104",""
"sujeto_e1314c94","1","1","15","15","943.800146103","direct","3","1","2","La universidad de oxford. 
existe desde:","1096","1249","","1","1","0","competitive","right","0.841021776199","944.64124012","4.1589782238","948.956830978","3.24440288544","952.201302052","2.75559711456","954.990684032","956.039494038","956.109570026","959.112555027","1","959.126514196","965.817384005",""
"sujeto_e1314c94","1","1","16","16","965.947707176","inverse","3","1","1","¿Qué escritor latino ganó antes
 el premio nobel?"," García Marquez","Neruda","","0","0","1","competitive","right","1.1384601593","967.086215973","3.8615398407","971.119021177","4.83316993713","975.95225811","1.16683006287","977.170332193","978.91033411","978.987002134","981.989983082","0","982.005023003","985.465548992",""
"sujeto_e1314c94","1","1","17","17","985.608069181","direct","4","1","3","¿Cuántos dientes tiene un
 tiburón blanco?","6000","3000","","0","0","1","competitive","right","1.1331410408","986.741253138","3.8668589592","990.761265039","2.89294481277","993.654247999","3.10705518723","996.796112061","997.835091114","997.913938046","1000.91693807","0","1000.9311471","1005.74082398",""
"sujeto_e1314c94","1","1","18","18","1005.86581206","inverse","4","1","1","¿Cuánto mide el paralelo Ecuador?","40.000km","70.000km","","0","0","1","competitive","right","1.05936002731","1006.92521906","3.94063997269","1011.00634313","3.96885108948","1014.97526097","2.03114891052","1017.05733514","1019.01345205","1019.09176517","1022.09474897","0","1022.10868406","1025.71125507",""
"sujeto_e1314c94","1","1","19","19","1025.84500909","direct","4","1","2","¿Cuál fue el primer libro 
de Stephen King?","Carrie","The Stand","","1","1","1","competitive","right","0.934188842773","1026.77924514","4.06581115723","1031.0139761","3.71323513985","1034.72725105","2.28676486015","1037.05045509","1038.79458404","1038.86783504","1041.87081814","1","1041.8857832","1046.36021018",""
"sujeto_e1314c94","1","1","20","20","1046.48872519","inverse","2","1","3","¿Qué civilización practicaba
 la momificación?","Grecia","Egipto","right","0","0","1","competitive","right","1.03149604797","1047.52028799","3.96850395203","1051.64342213","3.22084903717","1054.86431217","2.77915096283","1057.69438601","1059.63369203","1059.71244907","1062.71543097","1","1062.72958612","1066.95835519",""
"sujeto_e1314c94","1","1","21","21","1067.10013413","direct","4","1","4","¿Cuántos millones de visitas
 recibe google por minuto?","3.0","4.5","","0","0","1","competitive","right","1.00415802002","1068.10433698","3.99584197998","1072.25453997","3.43574500084","1075.69034314","2.56425499916","1078.30419517","1079.81905913","1079.88913107","1082.89208913","0","1082.90622115","1090.02663708",""
"sujeto_e1314c94","1","1","22","22","1090.15801215","inverse","1","1","3","La máquina de fax. se inventó en:","1843","1960","","0","0","1","competitive","left","1.17127013206","1091.32932711","3.82872986794","1095.29933715","3.71784114838","1099.01721597","2.28215885162","1101.34969401","1102.59176517","1102.66833115","1105.67132497","0","1105.68527198","1108.92157602",""
"sujeto_e1314c94","1","1","23","23","1109.05628514","direct","2","1","4","En la verdadera historia de los
 300 espartanos. habían:","300 soldados","4300 soldados","","1","1","1","competitive","right","0.970046043396","1110.02640104","4.0299539566","1114.20672917","5.6084830761","1119.81527114","0.391516923904","1120.24247599","1121.50275397","1121.57632709","1124.57926917","1","1124.59344697","1128.39515018",""
"sujeto_e1314c94","1","1","24","24","1128.52886415","inverse","1","1","4","¿Cuántos milímetros crece
 el pelo por día?","0.4","0.04","","0","0","0","competitive","right","0.883414030075","1129.41237903","4.11658596992","1133.70162201","3.60064101219","1137.30232215","2.39935898781","1139.75297403","1141.5136981","1141.58739805","1144.59038115","0","1144.60556006","1151.34066105",""
"sujeto_e1314c94","1","1","25","25","1151.47863817","direct","4","1","1","¿Cuánto mide la baldosa gris 
clásica de Montevideo?","22x22 cm.","20x20 cm.","","1","1","1","competitive","right","0.886605978012","1152.36528897","4.11339402199","1156.64725304","4.43200206757","1161.07932115","1.56799793243","1162.69919014","1164.69443703","1164.78267717","1167.78566313","1","1167.79985714","1173.34266806",""
"sujeto_e1314c94","1","1","26","26","1173.48307705","inverse","2","1","2","¿Cuántas películas de rápidos
 y furiosos hay?","10","11","","1","1","0","competitive","right","1.04017996788","1174.5233202","3.95982003212","1178.62570906","4.36557483673","1182.99134612","1.63442516327","1184.67624807","1186.03425908","1186.11101508","1189.11401701","1","1189.12795019","1191.16262603",""
"sujeto_e1314c94","1","1","27","27","1191.2964561","direct","3","1","1","¿Cuántos masters 1000
 ganó Del Potro?","1","2","","1","1","1","competitive","left","1.01284193993","1192.30934119","3.98715806007","1196.44816017","3.88810801506","1200.33632708","2.11189198494","1202.50048018","1204.25509","1204.33524013","1207.33819199","1","1207.35233998","1214.74866104",""
"sujeto_e1314c94","1","1","28","28","1214.89138198","inverse","2","1","4","¿Cuántos meses dura el 
embarazo de una leona?","3 meses","4 meses","","0","0","1","competitive","left","0.920016050339","1215.81148005","4.07998394966","1220.04631519","4.04014492035","1224.08653116","1.95985507965","1226.09823418","1227.20933604","1227.28202009","1230.28499603","0","1230.29919219","1237.02162004",""
"sujeto_e1314c94","1","1","29","29","1237.17089415","direct","1","1","1","¿En qué año fue creado
 el sandwich?","1762","1653","","1","1","0","competitive","right","1.03088998795","1238.20188808","3.96911001205","1242.32511806","4.06370282173","1246.38887501","1.93629717827","1248.37600803","1249.97459102","1250.04460311","1253.04661918","1","1253.06198907","1256.53262115",""
"sujeto_e1314c94","1","1","30","30","1256.66321015","inverse","4","1","2","El nombre de la moneda de Vietnam es:","Dinar","Dong","","0","0","1","competitive","left","1.60488009453","1258.26815701","3.39511990547","1261.8024261","3.94976806641","1265.75225616","2.05023193359","1267.85374212","1269.2857461","1269.37176108","1272.37475204","0","1272.38860106","1278.55466008",""
"sujeto_e1314c94","1","1","31","31","1278.69090009","direct","2","1","1","¿cuantos aleteos puede dar 
un colibrí por segundo?","120","50","","0","0","0","competitive","left","0.925519943237","1279.61646914","4.07448005676","1283.84442019","4.18712902069","1288.03159404","1.81287097931","1289.89665818","1291.62902999","1291.71494007","1294.71792102","0","1294.73217416","1298.9444561",""
"sujeto_e1314c94","1","1","32","32","1299.08560801","inverse","4","1","3","¿Qué altura promedio tienen
 los hombres uruguayos?","1.73 m","1.72 m","","1","1","1","competitive","left","0.788156032562","1299.87383199","4.21184396744","1304.25763917","4.08717799187","1308.34487605","1.91282200813","1310.30959916","1311.57199812","1311.64376211","1314.64672112","1","1314.66091204","1319.1368382",""
"sujeto_e1314c94","1","2","1","33","1489.78924918","direct","1","1","1","¿En qué año nació 
el actor Bradd Pitt?","1967","1963","","1","1","1","competitive","right","1.07382702827","1490.86312318","3.92617297173","1494.94159698","3.1935338974","1498.13517404","2.8064661026","1500.97576618","1502.07161903","1502.1442461","1505.14721107","1","1505.16123605","1511.08882117","1319.14812303"
"sujeto_e1314c94","1","2","2","34","1511.2324872","inverse","2","1","1","¿Cual es el segundo 
monte más alto?","Kanchenjunga","K2","","1","1","1","competitive","right","1.0267970562","1512.25933003","3.9732029438","1516.38612103","4.13327383995","1520.51943707","1.86672616005","1522.43794012","1523.89033604","1523.97203803","1526.97502899","1","1526.98900819","1530.41890812",""
"sujeto_e1314c94","1","2","3","35","1530.55428505","direct","3","1","1","¿Cuándo finalizó la construcción
 del Palacio Legislativo?","1925","1917","","0","0","1","competitive","right","0.890272855759","1531.44463515","4.10972714424","1535.71261811","2.89295697212","1538.60561514","3.10704302788","1541.74745417","1543.38915515","1543.4657402","1546.46871805","0","1546.48278308","1552.18034101",""
"sujeto_e1314c94","1","2","4","36","1552.32203698","inverse","3","1","3","¿Cuántos integrantes tenía
 en su inicio  el cuarteto de nos?","3","4","","1","1","1","competitive","right","0.772747993469","1553.09486318","4.22725200653","1557.49096608","2.815762043","1560.30676699","3.184237957","1563.54145598","1564.67456102","1564.76055598","1567.76354599","1","1567.77776504","1573.42758012",""
"sujeto_e1314c94","1","2","5","37","1573.58166909","direct","2","1","3","¿Qué valor tiene el número pi?","3.14","4.18","left","0","0","1","competitive","left","0.95130610466","1574.53305006","4.04869389534","1578.73578119","2.17620015144","1580.91204214","3.82379984856","1584.7860651","1586.24028516","1586.32153416","1589.32453203","1","1589.33840013","1596.25861907",""
"sujeto_e1314c94","1","2","6","38","1596.39051318","inverse","2","1","2","¿Cuál es la esperanza de vida
 en Uruguay?","75","77","","1","1","0","competitive","right","0.851630926132","1597.242208","4.14836907387","1601.54738998","3.64877009392","1605.19619799","2.35122990608","1607.59827805","1609.25205517","1609.33368015","1612.33465505","1","1612.35050106","1618.81354213",""
"sujeto_e1314c94","1","2","7","39","1618.972296","direct","1","1","2","¿Cuantos pisos tiene la torre 
de las comunicaciones?","26","32","","1","1","0","competitive","right","1.08403301239","1620.05639219","3.91596698761","1624.12393308","3.28237009048","1627.40633917","2.71762990952","1630.17588401","1632.0046792","1632.07670617","1635.07969213","1","1635.094836","1637.241045",""
"sujeto_e1314c94","1","2","8","40","1637.41426706","inverse","2","1","4","¿En qué país sudamericano 
no hay McDonalds?","Bolivia","Venezuela","","0","0","1","competitive","right","0.712363958359","1638.12670302","4.28763604164","1642.58555508","3.37697386742","1645.96257401","2.62302613258","1648.62033916","1649.92972112","1650.00492501","1653.00790715","0","1653.02217913","1659.38189697",""
"sujeto_e1314c94","1","2","9","41","1659.52660918","direct","3","1","1","¿En qué año empieza
 la Edad Media?","476","512","","1","1","1","competitive","right","0.796072006226","1660.32274508","4.20392799377","1664.68085909","3.52187490463","1668.20277619","2.47812509537","1670.73181009","1672.13555312","1672.21652317","1675.21951818","1","1675.23363018","1678.22217107",""
"sujeto_e1314c94","1","2","10","42","1678.36842108","inverse","3","1","4","¿Hace cuántos años surgió
 el ser humano?","200mil","300mil","","0","0","0","competitive","left","0.857425928116","1679.22592616","4.14257407188","1683.5222671","3.46158981323","1686.98391819","2.53841018677","1689.55787301","1691.443928","1691.52560711","1694.52861619","0","1694.54349899","1697.85398006",""
"sujeto_e1314c94","1","2","11","43","1697.99670005","direct","3","1","4","¿Cuántas cuadras tiene
 actualmente 18 de julio? ","36","33","","0","0","1","competitive","left","0.874327898026","1698.87113714","4.12567210197","1703.16759109","3.0774037838","1706.24506116","2.9225962162","1709.20103717","1710.90330005","1710.98648214","1713.98947906","0","1714.00363207","1718.72992301",""
"sujeto_e1314c94","1","2","12","44","1718.90790415","inverse","1","1","4","¿Qué juego de equipo se 
considera mas rápido?","Lacrosse","Badminton","","0","0","0","competitive","right","1.01821398735","1719.92618012","3.98178601265","1724.06151199","3.81961488724","1727.8811872","2.18038511276","1730.11336398","1731.35643911","1731.43071008","1734.43368411","0","1734.44797397","1742.44310808",""
"sujeto_e1314c94","1","2","13","45","1742.5823741","direct","1","1","3","¿Qué promedio de edad 
vive una jirafa? ","25","20","","0","0","1","competitive","left","1.02792096138","1743.61036706","3.97207903862","1747.72390199","3.07944893837","1750.80339718","2.92055106163","1753.77485013","1755.53635716","1755.60932112","1758.61227417","0","1758.62763","1764.58331108",""
"sujeto_e1314c94","1","2","14","46","1764.71256399","inverse","1","1","2","¿Cuántos grandes lagos hay?","7","5","","0","0","1","competitive","left","0.879885911942","1765.5924952","4.12011408806","1769.884902","3.09058499336","1772.9755311","2.90941500664","1775.93609715","1777.228266","1777.30440617","1780.30669904","0","1780.32157111","1788.14295697",""
"sujeto_e1314c94","1","2","15","47","1788.27298117","direct","3","1","2","¿Cuántos discos de estudio
 grabó Johhny Cash? ","54","43","","1","1","0","competitive","right","0.963710069656","1789.23679519","4.03628993034","1793.42824602","3.4623939991","1796.89070606","2.5376060009","1799.46412611","1800.74273801","1800.81594515","1803.81890607","1","1803.83311319","1810.48403001",""
"sujeto_e1314c94","1","2","16","48","1810.61756897","inverse","4","1","1","¿Cuántos barrios tiene
 Montevideo? ","71","62","","0","0","1","competitive","right","0.922228097916","1811.53984118","4.07777190208","1815.77636504","3.22042894363","1818.99683404","2.77957105637","1821.82680917","1822.83388305","1822.91215205","1825.91510701","0","1825.92831302","1831.39034009",""
"sujeto_e1314c94","1","2","17","49","1831.51408219","direct","3","1","3","¿Qué edad tiene Homero Simpson?","36","42","","0","0","1","competitive","right","0.852790117264","1832.36693716","4.14720988274","1836.68691301","2.58300089836","1839.26997805","3.41699910164","1842.73723507","1844.1132772","1844.18964314","1847.19068909","0","1847.20687819","1851.59564209",""
"sujeto_e1314c94","1","2","18","50","1851.74285698","inverse","4","1","2","¿Cuántos países con monarquía 
hay en europa actualmente? ","6","10","","1","1","1","competitive","left","0.915136098862","1852.65805817","4.08486390114","1856.91514802","4.02485704422","1860.94004416","1.97514295578","1862.94894314","1864.38721204","1864.46659613","1867.46957707","1","1867.48356819","1873.63867211",""
"sujeto_e1314c94","1","2","19","51","1873.78538704","direct","2","1","3","¿Cuántos capítulos de
 Friends existen? ","236","228","","1","1","1","competitive","left","0.764752864838","1874.5501852","4.23524713516","1878.95588017","2.85628008842","1881.8122201","3.14371991158","1885.00879717","1886.31434917","1886.39320111","1889.39612103","1","1889.41041517","1891.7845571",""
"sujeto_e1314c94","1","2","20","52","1891.91221213","inverse","1","1","3","¿Cuántas óperas compuso Mozart? ","27","22","","1","1","1","competitive","left","0.800040006638","1892.71231818","4.19995999336","1897.06857109","3.27265906334","1900.34128904","2.72734093666","1903.11928511","1904.41144204","1904.48735619","1907.49032807","1","1907.50460911","1914.81609201",""
"sujeto_e1314c94","1","2","21","53","1914.95571017","direct","4","1","3","¿Cuántos mundiales de fútbol 
femenino ha realizado FIFA? ","9","7","","1","1","1","competitive","right","0.900722026825","1915.85654402","4.09927797318","1920.12991405","3.96348190308","1924.09343719","2.03651809692","1926.16494417","1927.40861011","1927.48334002","1930.48625016","1","1930.49943709","1936.60190415",""
"sujeto_e1314c94","1","2","22","54","1936.73475218","inverse","3","1","2","¿Cuál es la temperatura 
media anual en Montevideo? ","17.5","16.3","","0","0","1","competitive","left","0.814717054367","1937.54953313","4.18528294563","1941.89178109","3.72974181175","1945.62158203","2.27025818825","1947.92585516","1949.86438704","1949.94377708","1952.94665098","0","1952.961622","1959.53062415",""
"sujeto_e1314c94","1","2","23","55","1959.66338706","direct","2","1","2","¿En qué año se estrenó el
 videojuego The Sims? ","2000","2002","","0","0","0","competitive","left","0.773203849792","1960.43666506","4.22679615021","1964.81739807","4.06322717667","1968.88066316","1.93677282333","1970.85402298","1972.7146101","1972.788064","1975.79061913","0","1975.80570006","1983.19935703",""
"sujeto_e1314c94","1","2","24","56","1983.34083819","inverse","2","1","1","¿Cuál es la canción con 
mas covers? ","Yesterday","Stand by me","","0","0","0","competitive","right","0.954900979996","1984.29578519","4.04509902","1988.51575398","3.52600502968","1992.04182005","2.47399497032","1994.55011797","1995.94861507","1996.01754713","1999.02055311","0","1999.03568912","2003.20268512",""
"sujeto_e1314c94","1","2","25","57","2003.33683014","direct","1","1","4","¿Cuánto duró la guerra
 de los 100 años?","116","123","","0","0","0","competitive","right","1.06005501747","2004.39695311","3.93994498253","2008.49271297","3.31913805008","2011.81191015","2.68086194992","2014.54367709","2016.02452302","2016.0947361","2019.09770012","0","2019.1119442","2021.43170905",""
"sujeto_e1314c94","1","2","26","58","2021.58210015","inverse","4","1","4","¿Qué color tiene la  bandera de Brasil?","Amarillo","Naranja","left","0","0","1","competitive","left","0.87082195282","2022.45296812","4.12917804718","2026.73605299","2.40790390968","2029.14405107","3.59209609032","2032.78659606","2034.3531332","2034.43849015","2037.44149303","1","2037.4555192","2040.48832917",""
"sujeto_e1314c94","1","2","27","59","2040.62569809","direct","4","1","3","¿Qué carabela de 
Colon no volvió del viaje?","Santa María","La pinta","","0","0","1","competitive","right","1.04534721375","2041.67111802","3.95465278625","2045.7784152","4.16259098053","2049.94106412","1.83740901947","2051.830405","2053.32146215","2053.39786816","2056.40086508","0","2056.41488314","2058.51435399",""
"sujeto_e1314c94","1","2","28","60","2058.66793704","inverse","4","1","4","¿Cuántos huesos tiene
 un adulto humano?","217","206","","0","0","1","competitive","left","1.02815890312","2059.69616008","3.97184109688","2063.82203913","3.44099116325","2067.26308703","2.55900883675","2069.87282205","2071.14386606","2071.22353601","2074.22650814","0","2074.2417841","2082.07948303",""
"sujeto_e1314c94","1","2","29","61","2082.20880699","direct","1","1","1","¿Qué país africano fue 
fundado por esclavos?","Liberia","Chad","","0","0","0","competitive","right","1.17938613892","2083.38826108","3.82061386108","2087.36792517","4.00226902962","2091.37023401","1.99773097038","2093.41894007","2095.41060615","2095.48577404","2098.48874497","0","2098.5037291","2106.4945941",""
"sujeto_e1314c94","1","2","30","62","2106.62176418","inverse","4","1","2","¿A cuánto asciende la cima
 del monte Everest?","7.990 mts","8.848 mts","","0","0","1","competitive","right","1.03352594376","2107.65533614","3.96647405624","2111.78052616","3.87981104851","2115.66039705","2.12018895149","2117.83152318","2119.0163312","2119.09943414","2122.10238004","0","2122.11635208","2129.30036402",""
"sujeto_e1314c94","1","2","31","63","2129.45043206","direct","4","1","1","¿Cuál es el país mas chico?","Sealand","Luxemburgo","","1","1","1","competitive","right","0.853976011276","2130.30447412","4.14602398872","2134.60828805","2.65705180168","2137.26539612","3.34294819832","2140.65925717","2142.52261806","2142.59443998","2145.59461617","1","2145.61175013","2148.73404002",""
"sujeto_e1314c94","1","2","32","64","2148.863554","inverse","2","1","4","¿Cuántas pirámides hay en Egipto?","10000","11000","","1","1","1","competitive","left","0.977962017059","2149.84156919","4.02203798294","2154.01850104","3.50992488861","2157.52846503","2.49007511139","2160.05263805","2161.08626509","2161.15386605","2164.15681815","1","2164.17112303","2169.27862215",""
"sujeto_e1314c94","1","3","1","65","2293.68875408","direct","2","1","2","¿Cuál es el quinto país con 
mas extensión?","Canadá","Brasil","","1","1","0","competitive","left","0.891242027283","2294.58006907","4.10875797272","2298.84278297","3.44325304031","2302.2861011","2.55674695969","2304.87775707","2306.21104908","2306.29588509","2309.298666","1","2309.31298709","2317.03936815","2169.28979897"
"sujeto_e1314c94","1","3","2","66","2317.180794","inverse","1","1","2","¿Qué rasgo facial no tiene
 la Mona Lisa?","Cejas","Pómulos","","0","0","1","competitive","left","1.1413629055","2318.32220507","3.8586370945","2322.32241106","5.70674300194","2328.02919507","0.293256998062","2328.35805511","2330.10844517","2330.19172001","2333.19465804","0","2333.2088151","2339.48013401",""
"sujeto_e1314c94","1","3","3","67","2339.62838817","direct","4","1","3","¿Cuál es el país con 
mayor población?","Esados Unidos","China","right","0","0","1","competitive","right","1.00980210304","2340.63826418","3.99019789696","2344.76742315","2.62979006767","2347.39727306","3.37020993233","2350.81824112","2352.46421313","2352.53635502","2355.53870201","1","2355.553689","2358.92103314",""
"sujeto_e1314c94","1","3","4","68","2359.05506516","inverse","1","1","1","La palabra dinosaurio significa","Lagarto Terrible","Lagarto Dragón","","1","1","0","competitive","left","1.16820406914","2360.22333503","3.83179593086","2364.21037817","3.84986901283","2368.06031513","2.15013098717","2370.26182604","2371.43213701","2371.51355219","2374.51467109","1","2374.53062415","2377.39245415",""
"sujeto_e1314c94","1","3","5","69","2377.53166604","direct","2","1","3","¿Qué es el membrillero?","Arbol","Arbusto","","0","0","0","competitive","right","0.789644002914","2378.32137704","4.21035599709","2382.70339799","2.95992898941","2385.66337204","3.04007101059","2388.73709702","2390.69115305","2390.773031","2393.77601004","0","2393.79015803","2400.25416303",""
"sujeto_e1314c94","1","3","6","70","2400.39119601","inverse","3","1","3","¿Alrededor de qué planeta orbita 
el satélite Europa?","Jupiter","Saturno","","1","1","1","competitive","right","0.753180027008","2401.14441919","4.24681997299","2405.54874802","4.51861810684","2410.06739807","1.48138189316","2411.59980416","2413.14461207","2413.21806407","2416.22105002","1","2416.23526812","2418.44042206",""
"sujeto_e1314c94","1","3","7","71","2418.58702898","direct","3","1","1","¿Donde fue el mundial de 
fútbol de 1954?","Suiza","Suecia","","1","1","1","competitive","left","0.927355051041","2419.51445103","4.07264494896","2423.74214101","3.96426987648","2427.70645499","2.03573012352","2429.7930162","2431.04563498","2431.12755799","2434.13055611","1","2434.14444399","2438.05623007",""
"sujeto_e1314c94","1","3","8","72","2438.19656014","inverse","1","1","4","¿Cuál de los 7 enanitos
no tenía barba?","Bashful","Mudito","","1","1","0","competitive","right","0.906149864197","2439.10278702","4.0938501358","2443.35156012","4.53491020203","2447.8865211","1.46508979797","2449.40267801","2450.98283505","2451.05399013","2454.05697298","1","2454.07126999","2459.00034308",""
"sujeto_e1314c94","1","3","9","73","2459.13902211","direct","3","1","2","¿Cual red social es
mas utilizada mundialmente?","Instagram","Facebook","","1","1","0","competitive","left","0.920574188232","2460.05966616","4.07942581177","2464.29632115","3.01427006721","2467.31065416","2.98572993279","2470.34635115","2472.2637372","2472.34800506","2475.35040307","1","2475.36555314","2478.29866004",""
"sujeto_e1314c94","1","3","10","74","2478.45202112","inverse","4","1","1","¿Cuándo se inició la copa
 América de fútbol?","1916","1923","","1","1","1","competitive","left","0.898563146591","2479.35065913","4.10143685341","2483.62295818","3.29365110397","2486.91664815","2.70634889603","2489.65633202","2491.55377698","2491.64144897","2494.64442897","1","2494.65943718","2497.31461215",""
"sujeto_e1314c94","1","3","11","75","2497.46272516","direct","3","1","4","¿Cuántos presidentes de EEUU
han muerto asesinados?","3","4","","0","0","1","competitive","left","0.965955972672","2498.42875004","4.03404402733","2502.61303806","3.18165397644","2505.79473305","2.81834602356","2508.64804101","2510.13193417","2510.21609807","2513.21908903","0","2513.23324919","2516.87739015",""
"sujeto_e1314c94","1","3","12","76","2517.02046204","inverse","2","1","4","¿Cuántas veces participó EEUU
 en la copa América?","4","5","","0","0","1","competitive","left","0.793812990189","2517.8143971","4.20618700981","2522.19281411","4.74387693405","2526.936728","1.25612306595","2528.22761011","2529.67168999","2529.74450111","2532.74748707","0","2532.76171303","2538.878901",""
"sujeto_e1314c94","1","3","13","77","2539.01311517","direct","4","1","1","¿Cuál de estos países 
no formaba la URSS?","Azeribayán","Afganistán","","0","0","1","competitive","right","0.865740060806","2539.87892914","4.13425993919","2544.18746901","4.21430706978","2548.40182114","1.78569293022","2550.23873901","2551.55179715","2551.62331104","2554.62628508","0","2554.63943315","2562.62157202",""
"sujeto_e1314c94","1","3","14","78","2562.75801802","inverse","1","1","1","¿En qué año se inauguró
 el teatro Solís?","1867","1856","","0","0","0","competitive","right","0.993796825409","2563.75191307","4.00620317459","2567.9000802","3.76571393013","2571.66583514","2.23428606987","2573.95089102","2575.00721407","2575.08528519","2578.088269","0","2578.102391","2584.75020099",""
"sujeto_e1314c94","1","3","15","79","2584.89029098","direct","1","1","4","¿A qué velocidad vuela 
el avión más rápido?","3529","3874","","0","0","0","competitive","right","1.14361190796","2586.03397202","3.85638809204","2590.02624297","3.03366494179","2593.0599761","2.96633505821","2596.07758498","2597.83310604","2597.91353703","2600.91652799","0","2600.93048501","2603.0407691",""
"sujeto_e1314c94","1","3","16","80","2603.18212104","inverse","3","1","4","¿De qué año es la primer 
película cinematográfica?","1897","1888","","0","0","0","competitive","left","0.795789957047","2603.97795916","4.20421004295","2608.33672714","3.52516293526","2611.86193204","2.47483706474","2614.37073517","2615.50372815","2615.58876204","2618.59176898","0","2618.60603905","2624.01578307",""
"sujeto_e1314c94","1","3","17","81","2624.15704799","direct","2","1","3","¿Cuántos países 
tiene nuestro planeta?","191","194","","1","1","1","competitive","right","0.820995092392","2624.97814918","4.17900490761","2629.33140302","4.176612854","2633.50806308","1.823387146","2635.36547518","2636.72267008","2636.800143","2639.80312705","1","2639.81715918","2643.05545497",""
"sujeto_e1314c94","1","3","18","82","2643.18601608","inverse","2","1","2","¿Cuántos habitantes
 tiene Buenos Aires?","2.9000.000","3650000","","0","0","0","competitive","left","0.776975870132","2643.96305609","4.22302412987","2648.3412652","2.80970692635","2651.15103316","3.19029307365","2654.37492704","2655.77215409","2655.86013913","2658.8631072","0","2658.877038","2664.706429",""
"sujeto_e1314c94","1","3","19","83","2664.84498119","direct","2","1","1","¿Cuántos kilos forman una tonelada?","1000","1500","left","1","1","1","competitive","left","1.07717204094","2665.9222312","3.92282795906","2669.99921012","2.84989118576","2672.84917116","3.15010881424","2676.05140209","2677.9386642","2678.01928306","2681.02225804","1","2681.03750205","2686.99493504",""
"sujeto_e1314c94","1","3","20","84","2687.13943911","inverse","4","1","4","¿Cuántos estados tiene la 
República del Perú? ","24","23","","0","0","1","competitive","left","0.849749803543","2687.98923898","4.15025019646","2692.29723406","2.80692791939","2695.10420203","3.19307208061","2698.34794307","2699.3700912","2699.44987798","2702.45289302","0","2702.46610618","2707.4093771",""
"sujeto_e1314c94","1","3","21","85","2707.55416703","direct","3","1","3","¿En qué año nació Cristóbal Colón? ","1451","1447","","0","0","1","competitive","left","0.964033842087","2708.51825309","4.03596615791","2712.72494102","2.66126704216","2715.38624907","3.33873295784","2718.75780797","2720.60265207","2720.67635798","2723.67930412","0","2723.69438314","2727.92233419",""
"sujeto_e1314c94","1","3","22","86","2728.06286001","inverse","4","1","4","¿Cuánto mide la 
Montaña Aconcagua? ","6234","6962","","0","0","1","competitive","right","0.706342935562","2728.76927304","4.29365706444","2733.2166152","3.48459196091","2736.70124698","2.51540803909","2739.26894403","2740.55821514","2740.63717318","2743.64009905","0","2743.65403914","2750.83768201",""
"sujeto_e1314c94","1","3","23","87","2750.97174716","direct","2","1","4","¿Cuánto mide el punto
 más profundo del océano? ","12508","11003","","0","0","1","competitive","left","1.15655303001","2752.12834501","3.84344696999","2756.12775111","2.96251511574","2759.09032106","3.03748488426","2762.16256714","2763.41411114","2763.49794698","2766.49864197","0","2766.51426601","2770.71864104",""
"sujeto_e1314c94","1","3","24","88","2770.90160418","inverse","1","1","3","¿Cuántos álbumes ha publicado 
el cantante Jaime Roos? ","41","34","","0","0","1","competitive","right","1.08571410179","2771.98736119","3.91428589821","2776.05746913","2.86681699753","2778.92434502","3.13318300247","2782.10742807","2783.59719205","2783.67584205","2786.67864609","0","2786.69272709","2792.88888407",""
"sujeto_e1314c94","1","3","25","89","2793.06130815","direct","4","1","3","¿En qué año nació el 
ex-presidente Jorge Battle? ","1921","1927","","1","1","1","competitive","left","0.913066148758","2793.97443914","4.08693385124","2798.21874404","4.06265497208","2802.28146005","1.93734502792","2804.25331497","2805.98261714","2806.05355215","2809.05649614","1","2809.07158303","2812.55759597",""
"sujeto_e1314c94","1","3","26","90","2812.6894331","inverse","1","1","3","¿Cuántas presidencias 
constitucionales  hubo en Uruguay? ","41","42","","0","0","1","competitive","left","0.886353969574","2813.57585502","4.11364603043","2817.84379315","3.72257208824","2821.56640315","2.27742791176","2823.89578319","2825.09860301","2825.18009019","2828.18309903","0","2828.19795108","2833.98155904",""
"sujeto_e1314c94","1","3","27","91","2834.11616611","direct","1","1","2","¿Quién escribió mas sinfonías?","Mozart","Haydn","","1","1","0","competitive","left","1.01134896278","2835.12758708","3.98865103722","2839.27355719","2.94389796257","2842.21749401","3.05610203743","2845.30695415","2846.52437115","2846.60826111","2849.61062503","1","2849.625741","2853.37715507",""
"sujeto_e1314c94","1","3","28","92","2853.51139307","inverse","4","1","2","¿En qué año nació Michael Jackson?","1958","1953","","1","1","1","competitive","right","1.1301419735","2854.64158201","3.8698580265","2858.66635609","4.2081990242","2862.87460804","1.7918009758","2864.70068502","2866.6786561","2866.75213599","2869.7551291","1","2869.76937318","2875.63168907",""
"sujeto_e1314c94","1","3","29","93","2875.77090406","direct","3","1","2","¿En qué año entró en vigencia 
la ley antitabaco en Uruguay?","2005","2006","","1","1","1","competitive","left","2.06769394875","2877.83867717","2.93230605125","2880.92691302","3.25462889671","2884.1816082","2.74537110329","2886.97908401","2888.57379413","2888.6473341","2891.65032911","1","2891.66442418","2896.99841905",""
"sujeto_e1314c94","1","3","30","94","2897.13258314","inverse","3","1","1","¿Cuándo se subió el 
primer video a youtube?","2004","2005","","0","0","1","competitive","left","0.818077087402","2897.9507072","4.1819229126","2902.32068419","2.87098312378","2905.19172597","3.12901687622","2908.3730011","2909.6786232","2909.75823808","2912.75868297","0","2912.77467418","2920.53028512",""
"sujeto_e1314c94","1","3","31","95","2920.67593718","direct","2","1","1","¿Cuántos habitantes tiene India?","1200 millones","1300 millones","","0","0","0","competitive","left","0.749726057053","2921.42573309","4.25027394295","2925.84835601","2.22830510139","2928.0767231","3.77169489861","2931.883219","2933.85285711","2933.9352982","2936.93826008","0","2936.9523921","2942.99989915",""
"sujeto_e1314c94","1","3","32","96","2943.13758898","inverse","4","1","2","¿A qué edad murió Bob Marley?","36","37","","0","0","1","competitive","left","0.831134080887","2943.96879816","4.16886591911","2948.29602098","2.98664999008","2951.28270912","3.01335000992","2954.34668612","2956.24450397","2956.33131719","2959.33430815","0","2959.34856319","2962.45067215",""
"sujeto_e1314c94","1","4","1","97","3088.46476507","direct","2","1","1","¿Cuantos años dirigió la selección 
uruguaya Tabarez?","15 años","13 años","","0","0","0","competitive","left","0.838263988495","3089.30309701","4.16173601151","3093.6375711","2.65637683868","3096.29401302","3.34362316132","3099.68794107","3100.87910008","3100.95640516","3103.95938301","0","3103.97358513","3111.04561305","2962.46202612"
"sujeto_e1314c94","1","4","2","98","3111.20904016","inverse","4","1","1","¿Cuantas teclas tiene un teclado 
de computadora generalmente? ","Entre 99 y 108","Entre 109 y 113","","1","1","1","competitive","left","1.00602412224","3112.21511102","3.99397587776","3116.38305116","3.41802716255","3119.80113912","2.58197283745","3122.43335915","3123.43613005","3123.51888299","3126.5218792","1","3126.53516412","3128.90660501",""
"sujeto_e1314c94","1","4","3","99","3129.05355906","direct","1","1","1","¿Cuál Departamento tiene
 mayor superficie?","Río Negro","Soriano","","0","0","0","competitive","left","0.896529912949","3129.95015812","4.10347008705","3134.20881915","3.91327095032","3138.12213111","2.08672904968","3140.25993109","3141.97338414","3142.04434919","3145.04665804","0","3145.0616312","3149.38772106",""
"sujeto_e1314c94","1","4","4","100","3149.54617119","inverse","3","1","2","¿Cuál es el apellido de las 
hermanastras  de  cenicienta?","Tremaine","Truman","","0","0","1","competitive","right","0.75195813179","3150.29819918","4.24804186821","3154.73355198","4.01850199699","3158.75211906","1.98149800301","3160.78612804","3162.65566707","3162.73656416","3165.73956609","0","3165.75477505","3168.45066714",""
"sujeto_e1314c94","1","4","5","101","3168.58959699","direct","4","1","4","¿Cuál película ganó un
 Oscar a mejor película?","Alto Impacto","Cache","","0","0","1","competitive","left","0.919589042664","3169.50923419","4.08041095734","3173.76210499","4.14206600189","3177.90423107","1.85793399811","3179.79700208","3180.91634011","3180.99837518","3184.00131798","0","3184.01579404","3186.27866817",""
"sujeto_e1314c94","1","4","6","102","3186.41710806","inverse","1","1","3","¿A cuántos centímetros
equivale la medida pié?","25","30","","0","0","1","competitive","right","0.771121025085","3187.1882751","4.22887897491","3191.57185507","3.7183740139","3195.29027009","2.2816259861","3197.62222219","3198.66216516","3198.74044919","3201.74261713","0","3201.75756598","3207.15851998",""
"sujeto_e1314c94","1","4","7","103","3207.29251218","direct","2","1","2","¿Qué departamento es mas grande?","Cerro Largo","Paysandú","","0","0","0","competitive","left","0.798778057098","3208.09135914","4.2012219429","3212.446172","2.66508603096","3215.11132598","3.33491396904","3218.49833202","3220.09803915","3220.1836071","3223.18664503","0","3223.20065713","3227.31063199",""
"sujeto_e1314c94","1","4","8","104","3227.4522922","inverse","2","1","3","¿Quién pintó la Mona Lisa?","Picasso","Da Vinci","right","0","0","1","competitive","right","0.657986164093","3228.11032605","4.34201383591","3232.60876203","4.50947999954","3237.11830711","1.49052000046","3238.64380407","3240.24967217","3240.32856011","3243.33155513","1","3243.34582901","3245.50815701",""
"sujeto_e1314c94","1","4","9","105","3245.64692116","direct","4","1","3","¿Cuántos litros hay en un galon?","3.54","3.78","","1","1","1","competitive","right","0.86937713623","3246.51634812","4.13062286377","3250.80262303","3.42069005966","3254.22337198","2.57930994034","3256.8528142","3258.37069798","3258.45432997","3261.45731306","1","3261.47234297","3267.26467419",""
"sujeto_e1314c94","1","4","10","106","3267.40673518","inverse","4","1","1","¿Cuántas teclas tiene
 un piano moderno?","80","88","","0","0","1","competitive","right","0.840142965317","3268.24695706","4.15985703468","3272.563272","3.64989995956","3276.21321511","2.35010004044","3278.61502099","3279.62346697","3279.69964004","3282.70264912","0","3282.717664","3289.51542807",""
"sujeto_e1314c94","1","4","11","107","3289.652385","direct","4","1","3","¿Cuántos países hay en África?","54","62","","0","0","1","competitive","right","0.947607040405","3290.60003901","4.05239295959","3294.807163","2.03608107567","3296.84328413","3.96391892433","3300.85826302","3302.5487771","3302.62717009","3305.6301322","0","3305.64545918","3313.45023298",""
"sujeto_e1314c94","1","4","12","108","3313.57989001","inverse","1","1","3","¿En qué siglo se crearon
 las primeras pistolas?","XV","XIII","","1","1","1","competitive","left","0.780199050903","3314.36016607","4.2198009491","3318.73974705","3.62868690491","3322.36849618","2.37131309509","3324.77407098","3326.72196317","3326.79289699","3329.79587412","1","3329.81003904","3333.04314804",""
"sujeto_e1314c94","1","4","13","109","3333.17877197","direct","3","1","4","¿En qué año se estrenó 
la serie friends?","1994","1995","","0","0","1","competitive","right","0.818176984787","3333.99702215","4.18182301521","3338.35095119","3.81837201118","3342.16936612","2.18162798882","3344.40230107","3346.27765107","3346.35368109","3349.35664797","0","3349.37098002","3354.37705398",""
"sujeto_e1314c94","1","4","14","110","3354.50635719","inverse","3","1","4","¿En qué año nació Hitler?","1889","1887","","0","0","1","competitive","left","1.31244111061","3355.81885219","3.68755888939","3359.66375017","3.74137401581","3363.40518618","2.25862598419","3365.71504712","3366.82942605","3366.89891815","3369.9018991","0","3369.91578817","3374.94270706",""
"sujeto_e1314c94","1","4","15","111","3375.06748104","direct","1","1","4","¿Cuánto pesa un elefante Africano?","6000 kilos","5400 kilos","","0","0","0","competitive","left","1.29132294655","3376.35886908","3.70867705345","3380.20543218","3.76868605614","3383.97418618","2.23131394386","3386.25711608","3387.61301208","3387.69269013","3390.69565511","0","3390.70986414","3397.41693497",""
"sujeto_e1314c94","1","4","16","112","3397.56160498","inverse","1","1","2","¿Qué porcentaje de 
la población es zurda?","10%","7%","","1","1","0","competitive","left","1.02110004425","3398.58275008","3.97889995575","3402.72055411","4.10751008987","3406.82812309","1.89248991013","3408.75518918","3409.99830198","3410.07239699","3413.07471919","1","3413.08992219","3419.06661606",""
"sujeto_e1314c94","1","4","17","113","3419.22492719","direct","1","1","2","¿En qué año se estrenó
Volver al futuro?","1984","1985","","0","0","1","competitive","left","0.846652030945","3420.07164598","4.15334796906","3424.38191915","3.86197805405","3428.24395704","2.13802194595","3430.416677","3431.97850108","3432.05076408","3435.05376005","0","3435.06901407","3442.16044402",""
"sujeto_e1314c94","1","4","18","114","3442.28707814","inverse","3","1","2","¿Cuántos jugadores hay en un 
equipo de baseball?","9","8","","1","1","0","competitive","right","0.696378946304","3442.9835031","4.3036210537","3447.44507718","4.14768314362","3451.59280014","1.85231685638","3453.49644399","3455.11067104","3455.18107009","3458.18406701","1","3458.19800305","3463.17524314",""
"sujeto_e1314c94","1","4","19","115","3463.30011797","direct","2","1","1","¿Cuántos Oscar ganó
 la película titanic?","13","11","","1","1","1","competitive","left","0.7611079216","3464.06129313","4.2388920784","3468.45321703","3.20225596428","3471.65553117","2.79774403572","3474.50553799","3475.807585","3475.89080405","3478.89378119","1","3478.90798807","3483.51065898",""
"sujeto_e1314c94","1","4","20","116","3483.65950108","inverse","4","1","4","¿En qué año comenzó
la segunda guerra mundial?","1939","1976","left","0","0","1","competitive","left","0.855500936508","3484.51505113","4.14449906349","3488.83488417","2.71225810051","3491.54720211","3.28774189949","3494.86859107","3496.66839314","3496.754071","3499.75462198","1","3499.77087402","3503.75803399",""
"sujeto_e1314c94","1","4","21","117","3503.89194298","direct","2","1","4","¿Cuántos biomas hay en Uruguay?","5","4","","0","0","1","competitive","left","0.786766052246","3504.67879319","4.21323394775","3509.04545712","4.16650319099","3513.21202016","1.83349680901","3515.09740615","3516.89478302","3516.96469617","3519.96767902","0","3519.98191714","3526.2306602",""
"sujeto_e1314c94","1","4","22","118","3526.38398814","inverse","2","1","3","¿Cuándo murió Pablo Escobar?","1993","1997","","1","1","1","competitive","left","0.593432188034","3526.97746611","4.40656781197","3531.54093599","3.03370594978","3534.57470202","2.96629405022","3537.59206915","3539.37492514","3539.46065402","3542.46364307","1","3542.47764397","3548.18131518",""
"sujeto_e1314c94","1","4","23","119","3548.31248116","direct","1","1","4","¿Qué serie ha ganado mas premios?","Friends","Murphy Brown","","1","1","0","competitive","left","1.01362895966","3549.32617402","3.98637104034","3553.4692452","2.42300796509","3555.89230609","3.57699203491","3559.520648","3560.87306404","3560.95515609","3563.958143","1","3563.97316003","3569.53477812",""
"sujeto_e1314c94","1","4","24","120","3569.67411113","inverse","4","1","2","¿Cuántas fichas tiene el dominó?","26","28","","1","1","1","competitive","right","0.960736036301","3570.63489914","4.0392639637","3574.83168316","3.37431097031","3578.20606208","2.62568902969","3580.88239098","3581.93771005","3582.01740098","3585.01866603","1","3585.03402209","3590.27466297",""
"sujeto_e1314c94","1","4","25","121","3590.40211105","direct","2","1","4","¿Cuántos son los dientes de leche?","20","25","","0","0","1","competitive","right","1.02030992508","3591.42248511","3.97969007492","3595.55961299","3.37499403954","3598.93467402","2.62500596046","3601.59404707","3603.30443716","3603.39578915","3606.39872098","0","3606.412395","3608.55810499",""
"sujeto_e1314c94","1","4","26","122","3608.69767714","inverse","3","1","3","¿Cuántos gramos son una onza?","22","28","","0","0","1","competitive","left","0.737370014191","3609.43511701","4.26262998581","3613.86935997","3.61177301407","3617.48117709","2.38822698593","3619.90399218","3621.89885712","3621.97218013","3624.97517705","0","3624.98916817","3631.27941513",""
"sujeto_e1314c94","1","4","27","123","3631.42461801","direct","3","1","1","¿Cuándo salió el primer album
 de los Beatles?","1963","1962","","1","1","1","competitive","right","0.730005025864","3632.15466905","4.26999497414","3636.59544015","3.43143701553","3640.02694607","2.56856298447","3642.63097119","3643.7946012","3643.88251305","3646.88553214","1","3646.900002","3650.67200398",""
"sujeto_e1314c94","1","4","28","124","3650.81844306","inverse","3","1","3","¿Quién fundó la empresa apple?","Carlos Slim","Steve Jobs","","1","1","1","competitive","right","0.858667850494","3651.67718816","4.14133214951","3655.97526717","3.42008209229","3659.39538908","2.57991790771","3662.0260942","3663.14078116","3663.21125412","3666.21425319","1","3666.22848201","3672.52631116",""
"sujeto_e1314c94","1","4","29","125","3672.66339016","direct","4","1","2","¿Cuántos municipios hay
 en Montevideo?","8","7","","1","1","1","competitive","left","0.852313041687","3673.51575303","4.14768695831","3677.82097101","3.47090387344","3681.29194307","2.52909612656","3683.87186813","3685.786659","3685.87304997","3688.87601399","1","3688.89022613","3690.97137117",""
"sujeto_e1314c94","1","4","30","126","3691.10929513","inverse","1","1","1","¿Cuántos kilómetros hay
 de Montevideo a Artigas?","632","599","","0","0","0","competitive","left","0.879958152771","3691.98934412","4.12004184723","3696.26224113","2.94813203812","3699.21041512","3.05186796188","3702.29734516","3703.78048706","3703.86624408","3706.86923218","0","3706.88317204","3712.935287",""
"sujeto_e1314c94","1","4","31","127","3713.06775808","direct","2","1","2","¿En qué año nació 
Leonardo Da Vinci?","1452","1511","","1","1","0","competitive","left","0.786969900131","3713.854774","4.21303009987","3718.24259615","4.21938300133","3722.46202517","1.78061699867","3724.29387808","3726.14747","3726.22818613","3729.23117614","1","3729.24534702","3732.39176512",""
"sujeto_e1314c94","1","4","32","128","3732.58098006","inverse","3","1","1","¿A qué continente
 pertenece el país Gabón?","Africa","Oceanía","","0","0","1","competitive","left","0.996287822723","3733.57733417","4.00371217728","3737.75340605","3.81199789047","3741.56544614","2.18800210953","3743.80434799","3745.61464405","3745.68859816","3748.69064307","0","3748.70588112","3753.94378901",""
