"code","nro_aplicante","nro_bloque","nro_trial_bloque","nro_trial_global","show_game_type","choice_order","rival","pay_individual","pay_competitive","question","answer_left_text","answer_right_text","correct_answer","outcome_individual","outcome_competitive","outcome_rival","game_type","answer","social_time","rt_game_type","feedback_delay","show_question","answer_time","rt_answer_global","feedback_delay_2","show_jitter","jitter_time","show_outcome","outcome_time","outcome_participant_real","show_final_jitter","second_jitter_time","inicio_descanso"
"sujeto_06da9741","1","1","1","1","588.917201042","direct","3","1","4","¿Cuántos centímetros corresponden
al talle 36 del calzado?","23","24","","0","0","1","competitive","right","3.56844592094","592.485688925","1.43155407906","594.08860898","5.16006779671","599.248728037","0.839932203293","600.12312603","601.15143609","601.22410202","604.227088928","0","604.240841866","606.40338397",""
"sujeto_06da9741","1","1","2","2","606.542705059","inverse","3","1","2","¿Cuántas metros mide la Intendencia
Municipal de Montevideo? ","84","78","","0","0","1","competitive","left","2.86602020264","609.408767939","2.13397979736","611.731285095","3.58349108696","615.314819098","2.41650891304","617.781921864","619.659970045","619.733222961","622.736238003","0","622.750870943","624.843636036",""
"sujeto_06da9741","1","1","3","3","624.985120058","direct","1","1","3","¿Cuántas La Pasiva
 hay en uruguay?","15","11","","1","1","1","competitive","left","3.44175004959","628.426913023","1.55824995041","630.140161037","3.02075600624","633.160959005","2.97924399376","636.191325903","637.802998066","637.87687397","640.879818916","1","640.894407988","645.172611952",""
"sujeto_06da9741","1","1","4","4","645.312391996","inverse","3","1","3","¿De que color es la camiseta de uruguay?","blanca","celeste","right","1","1","1","competitive","right","2.550593853","647.863060951","2.449406147","650.484808922","2.51922297478","653.004091978","3.48077702522","656.53451705","657.739284039","657.819457054","660.822434902","1","660.836760998","664.289638996",""
"sujeto_06da9741","1","1","5","5","664.438551903","direct","2","1","1","¿Cuánto metros mide
la torre Eiffel?","333","324","","1","1","1","individual","left","2.27059102058","666.709187031","2.72940897942","669.595402956","3.2787399292","672.87420392","2.7212600708","675.642534018","677.163955927","677.211690903","680.214657068","1","680.22911787","687.265817881",""
"sujeto_06da9741","1","1","6","6","687.413506985","inverse","3","1","4","¿Cuantas ciudades existen
 en todo el uruguay?","63","72","","0","0","1","competitive","right","1.96175193787","689.37530303","3.03824806213","692.574028015","3.9604780674","696.534545898","2.0395219326","698.606123924","699.660928965","699.739300013","702.742287874","0","702.757101059","710.383703947",""
"sujeto_06da9741","1","1","7","7","710.525307894","direct","1","1","1","¿Cuantos estados tiene África?","52","54","","1","1","0","competitive","left","2.37469696999","712.900075912","2.62530303001","715.686527967","3.58272480965","719.269294024","2.41727519035","721.721237898","723.585216999","723.672404051","726.675333977","1","726.690093994","732.449585915",""
"sujeto_06da9741","1","1","8","8","732.590810061","inverse","4","1","4","¿En qué año nació
 Stephen Hawking?","1952","1942","","0","0","1","competitive","left","2.15399312973","734.744847059","2.84600687027","737.762850046","3.54509997368","741.307995081","2.45490002632","743.799606085","745.243906021","745.317786932","748.320798874","0","748.335170031","754.434550047",""
"sujeto_06da9741","1","1","9","9","754.58643508","direct","2","1","3","¿Cuánto años tenía Artigas
 cuando se fue a Paraguay?","56","57","","1","1","1","competitive","left","1.86698913574","756.453511","3.13301086426","759.777060032","4.44154906273","764.218668938","1.55845093727","765.811150074","767.360624075","767.445869923","770.448849916","1","770.46309495","776.50960207",""
"sujeto_06da9741","1","1","10","10","776.648372889","inverse","1","1","2","¿Cuantos milímetros 
mide una hoja A2?","420x592","420x594","","0","0","1","competitive","","2.100522995","778.748952866","2.899477005","781.804235935","6","787.804360867","0","787.821306944","789.38972497","789.475203037","792.478223085","0","792.49229908","799.565573931",""
"sujeto_06da9741","1","1","11","11","799.693981886","direct","3","1","3","¿Cuál es la menor temperatura 
registrada en Uruguay?","-5.4","-7.4","","0","0","1","competitive","right","1.79567408562","801.489717007","3.20432591438","804.851348877","4.13353395462","808.984926939","1.86646604538","810.902549028","812.584598064","812.669945955","815.672901869","0","815.687553883","819.420871019",""
"sujeto_06da9741","1","1","12","12","819.555687904","inverse","2","1","2","¿Cuantos años hace que 
se fundó facebook?","18","17","","0","0","0","competitive","right","1.73249602318","821.288227081","3.26750397682","824.728909969","3.79647803307","828.525428057","2.20352196693","830.762690067","832.13538003","832.214145899","835.217156887","0","835.231507063","838.006156921",""
"sujeto_06da9741","1","1","13","13","838.133217096","direct","1","1","4","¿Cuál animal es más
 pesado en promedio?","Rinoceronte","Hipopotamo","","0","0","0","competitive","right","2.2324950695","840.365776062","2.7675049305","843.287754059","3.27712512016","846.564938068","2.72287487984","849.322253942","850.40149498","850.474040031","853.476964951","0","853.491690874","857.332563877",""
"sujeto_06da9741","1","1","14","14","857.526253939","inverse","1","1","2","¿Qué personaje de dragon ball 
murió más veces?","Chaoz","Krillin","","1","1","0","competitive","right","1.9979968071","859.524291992","3.0020031929","862.680279016","3.7180981636","866.398416042","2.2819018364","868.732991934","870.190820932","870.267359018","873.269613028","1","873.28461504","881.05756402",""
"sujeto_06da9741","1","1","15","15","881.203876019","direct","3","1","2","La universidad de oxford. 
existe desde:","1096","1249","","1","1","0","competitive","left","2.39196515083","883.595903873","2.60803484917","886.362225056","3.71873402596","890.080998898","2.28126597404","892.413626909","893.462434053","893.547721863","896.55071187","1","896.565419912","903.256255865",""
"sujeto_06da9741","1","1","16","16","903.399883032","inverse","3","1","1","¿Qué escritor latino ganó antes
 el premio nobel?"," García Marquez","Neruda","","0","0","1","individual","left","1.74044919014","905.140402079","3.25955080986","908.574198008","3.34636211395","911.920599937","2.65363788605","914.624626875","916.364609957","916.40980196","919.412781","0","919.427181959","922.887685061",""
"sujeto_06da9741","1","1","17","17","923.023412943","direct","4","1","3","¿Cuántos dientes tiene un
 tiburón blanco?","6000","3000","","0","0","1","competitive","right","2.51246285439","925.53592205","2.48753714561","928.181945086","4.04809904099","932.230084896","1.95190095901","934.21963501","935.258646965","935.337522984","938.340511084","0","938.354862928","943.163595915",""
"sujeto_06da9741","1","1","18","18","943.305842876","inverse","4","1","1","¿Cuánto mide el paralelo Ecuador?","40.000km","70.000km","","0","0","1","competitive","right","2.02352809906","945.329434872","2.97647190094","948.462455034","4.04304218292","952.505568981","1.95695781708","954.496378899","956.452470064","956.53106308","959.534054041","0","959.548717976","963.151306868",""
"sujeto_06da9741","1","1","19","19","963.300744057","direct","4","1","2","¿Cuál fue el primer libro 
de Stephen King?","Carrie","The Stand","","1","1","1","individual","right","2.38609099388","965.686896086","2.61390900612","968.473176956","3.95178985596","972.425029039","2.04821014404","974.524384022","976.266923904","976.308786869","979.311764956","1","979.326294899","983.800736904",""
"sujeto_06da9741","1","1","20","20","983.943006992","inverse","2","1","3","¿Qué civilización practicaba
 la momificación?","Grecia","Egipto","right","0","0","1","competitive","left","1.42027688026","985.36335206","3.57972311974","989.100065947","3.38432407379","992.484435081","2.61567592621","995.150774002","997.09007287","997.168775082","1000.17173696","0","1000.186939","1004.41574001",""
"sujeto_06da9741","1","1","21","21","1004.55568409","direct","4","1","4","¿Cuántos millones de visitas
 recibe google por minuto?","3.0","4.5","","0","0","1","competitive","right","2.00307512283","1006.55882788","2.99692487717","1009.71111608","3.28877210617","1012.999928","2.71122789383","1015.76289892","1017.27775407","1017.36418986","1020.36719298","0","1020.38193488","1027.50461793",""
"sujeto_06da9741","1","1","22","22","1027.63280201","inverse","1","1","3","La máquina de fax. se inventó en:","1843","1960","","0","0","1","competitive","right","1.43143701553","1029.06428695","3.56856298447","1032.80759788","4.02677202225","1036.83440995","1.97322797775","1038.84114099","1040.08323193","1040.15985298","1043.16284299","0","1043.17668891","1046.41300702",""
"sujeto_06da9741","1","1","23","23","1046.54452705","direct","2","1","4","En la verdadera historia de los
 300 espartanos. habían:","300 soldados","4300 soldados","","1","1","1","competitive","left","2.03612399101","1048.58071995","2.96387600899","1051.71817994","4.30860900879","1056.02683902","1.69139099121","1057.75275898","1059.013978","1059.08691287","1062.08991098","1","1062.10423303","1065.90595794",""
"sujeto_06da9741","1","1","24","24","1066.05600786","inverse","1","1","4","¿Cuántos milímetros crece
 el pelo por día?","0.4","0.04","","0","0","0","competitive","right","1.8320119381","1067.88808298","3.1679880619","1071.24458504","4.10959815979","1075.35424399","1.89040184021","1077.29622698","1079.05696702","1079.13079405","1082.13376188","0","1082.14801788","1088.88311696",""
"sujeto_06da9741","1","1","25","25","1089.01619291","direct","4","1","1","¿Cuánto mide la baldosa gris 
clásica de Montevideo?","22x22 cm.","20x20 cm.","","1","1","1","individual","right","2.50236392021","1091.51862288","2.49763607979","1094.18724108","4.387403965","1098.57470489","1.612596035","1100.241045","1102.23632503","1102.27551293","1105.27852106","1","1105.29331708","1110.83607292",""
"sujeto_06da9741","1","1","26","26","1110.97828698","inverse","2","1","2","¿Cuántas películas de rápidos
 y furiosos hay?","10","11","","1","1","0","competitive","left","1.54359793663","1112.52192807","3.45640206337","1116.13516307","2.74377202988","1118.87897301","3.25622797012","1122.16864109","1123.52666497","1123.6035471","1126.60650992","1","1126.62195802","1128.65667295",""
"sujeto_06da9741","1","1","27","27","1128.78921795","direct","3","1","1","¿Cuántos masters 1000
 ganó Del Potro?","1","2","","1","1","1","individual","right","2.5600669384","1131.34932995","2.4399330616","1133.96155","3.61580991745","1137.57740092","2.38419008255","1139.99651289","1141.75057793","1141.79722095","1144.80017805","1","1144.81485486","1152.21122003",""
"sujeto_06da9741","1","1","28","28","1152.36688495","inverse","2","1","4","¿Cuántos meses dura el 
embarazo de una leona?","3 meses","4 meses","","0","0","1","competitive","right","1.5017220974","1153.86864686","3.4982779026","1157.52462792","3.33818101883","1160.86287093","2.66181898117","1163.57465601","1164.68571186","1164.75904703","1167.76202703","0","1167.77636695","1174.49885988",""
"sujeto_06da9741","1","1","29","29","1174.64441991","direct","1","1","1","¿En qué año fue creado
 el sandwich?","1762","1653","","1","1","0","competitive","right","2.18469190598","1176.82918","2.81530809402","1179.8187151","4.02843904495","1183.8471899","1.97156095505","1185.85359001","1187.45213294","1187.53822994","1190.54121709","1","1190.55582809","1194.02646303",""
"sujeto_06da9741","1","1","30","30","1194.17313099","inverse","4","1","2","El nombre de la moneda de Vietnam es:","Dinar","Dong","","0","0","1","competitive","right","1.55237197876","1195.72555995","3.44762802124","1199.3300209","3.99860906601","1203.32866907","2.00139093399","1205.38028193","1206.812289","1206.89794207","1209.90095186","0","1209.91605687","1216.084512",""
"sujeto_06da9741","1","1","31","31","1216.21691704","direct","2","1","1","¿cuantos aleteos puede dar 
un colibrí por segundo?","120","50","","0","0","0","individual","left","1.37396407127","1217.59092307","3.62603592873","1221.35836601","3.65061306953","1225.00904703","2.34938693047","1227.40869999","1229.14109588","1229.19307089","1232.195997","0","1232.21120691","1236.42351794",""
"sujeto_06da9741","1","1","32","32","1236.56196809","inverse","4","1","3","¿Qué altura promedio tienen
 los hombres uruguayos?","1.73 m","1.72 m","","1","1","1","competitive","right","1.54138898849","1238.10343289","3.45861101151","1241.71854806","3.29179906845","1245.01038599","2.70820093155","1247.76925707","1249.03169298","1249.12058496","1252.12357092","1","1252.13788605","1256.61383986",""
"sujeto_06da9741","1","2","1","33","1440.50754094","direct","1","1","1","¿En qué año nació 
el actor Bradd Pitt?","1967","1963","","1","1","1","competitive","left","2.1693148613","1442.676965","2.8306851387","1445.67606306","3.27554297447","1448.95167589","2.72445702553","1451.71320105","1452.80857396","1452.88267303","1455.88561106","1","1455.89921093","1461.826612","1256.62557006"
"sujeto_06da9741","1","2","2","34","1461.98488808","inverse","2","1","1","¿Cual es el segundo 
monte más alto?","Kanchenjunga","K2","","1","1","1","individual","left","1.73992991447","1463.72489095","3.26007008553","1467.13782501","3.69407820702","1470.83196592","2.30592179298","1473.17392087","1474.62632298","1474.67474198","1477.67755795","1","1477.69426703","1481.12357402",""
"sujeto_06da9741","1","2","3","35","1481.26159787","direct","3","1","1","¿Cuándo finalizó la construcción
 del Palacio Legislativo?","1925","1917","","0","0","1","competitive","left","1.7854821682","1483.04713106","3.2145178318","1486.44715309","2.97801208496","1489.42520809","3.02198791504","1492.48493695","1494.12665391","1494.21957994","1497.22156501","0","1497.23720503","1502.93474007",""
"sujeto_06da9741","1","2","4","36","1503.10390306","inverse","3","1","3","¿Cuántos integrantes tenía
 en su inicio  el cuarteto de nos?","3","4","","1","1","1","competitive","right","1.47354197502","1504.57751107","3.52645802498","1508.260782","3.50778388977","1511.76860809","2.49221611023","1514.31216693","1515.44527292","1515.53074288","1518.53356409","1","1518.54940009","1524.19893503",""
"sujeto_06da9741","1","2","5","37","1524.33557892","direct","2","1","3","¿Qué valor tiene el número pi?","3.14","4.18","left","0","0","1","competitive","left","1.27214097977","1525.60776401","3.72785902023","1529.4886899","2.62108302116","1532.10981393","3.37891697884","1535.54099894","1536.99457908","1537.07532287","1540.0775919","1","1540.09343505","1547.0143609",""
"sujeto_06da9741","1","2","6","38","1547.16343093","inverse","2","1","2","¿Cuál es la esperanza de vida
 en Uruguay?","75","77","","1","1","0","competitive","left","1.41758084297","1548.58106208","3.58241915703","1552.33193994","3.18422293663","1555.51622701","2.81577706337","1558.37036705","1560.02416801","1560.10641789","1563.10942507","1","1563.12234306","1569.58536506",""
"sujeto_06da9741","1","2","7","39","1569.74044704","direct","1","1","2","¿Cuantos pisos tiene la torre 
de las comunicaciones?","26","32","","1","1","0","individual","left","1.82693219185","1571.56742191","3.17306780815","1574.92950892","3.1939458847","1578.12354803","2.8060541153","1580.967448","1582.79624009","1582.84616899","1585.84857702","1","1585.86870909","1588.01456094",""
"sujeto_06da9741","1","2","8","40","1588.1523149","inverse","2","1","4","¿En qué país sudamericano 
no hay McDonalds?","Bolivia","Venezuela","","0","0","1","competitive","right","1.43037295341","1589.58276105","3.56962704659","1593.30332708","3.05837106705","1596.36173987","2.94162893295","1599.35752606","1600.66660905","1600.75607896","1603.75674987","0","1603.77793097","1610.13768005",""
"sujeto_06da9741","1","2","9","41","1610.28098702","direct","3","1","1","¿En qué año empieza
 la Edad Media?","476","512","","1","1","1","individual","right","2.24991512299","1612.53094888","2.75008487701","1615.45048809","3.2955019474","1618.74609089","2.7044980526","1621.48675299","1622.88958597","1622.93751907","1625.93958902","1","1625.95586801","1628.94356394",""
"sujeto_06da9741","1","2","10","42","1629.106529","inverse","3","1","4","¿Hace cuántos años surgió
 el ser humano?","200mil","300mil","","0","0","0","competitive","left","1.3256380558","1630.43222904","3.6743619442","1634.25847101","3.4284632206","1637.68703389","2.5715367794","1640.29777288","1642.18355489","1642.26343489","1645.26557493","0","1645.28218007","1648.59260392",""
"sujeto_06da9741","1","2","11","43","1648.74926901","direct","3","1","4","¿Cuántas cuadras tiene
 actualmente 18 de julio? ","36","33","","0","0","1","individual","right","1.28315114975","1650.03246593","3.71684885025","1653.9197979","3.19871807098","1657.11856103","2.80128192902","1659.95734906","1661.65959191","1661.70706797","1664.709553","0","1664.72442102","1669.45060205",""
"sujeto_06da9741","1","2","12","44","1669.59411001","inverse","1","1","4","¿Qué juego de equipo se 
considera mas rápido?","Lacrosse","Badminton","","0","0","0","competitive","left","1.09058904648","1670.68476391","3.90941095352","1674.74902391","3.71272492409","1678.46181297","2.28727507591","1680.78532195","1682.02761698","1682.10365391","1685.1065979","0","1685.1207819","1693.11590886",""
"sujeto_06da9741","1","2","13","45","1693.27284908","direct","1","1","3","¿Qué promedio de edad 
vive una jirafa? ","25","20","","0","0","1","competitive","right","1.49220895767","1694.76512599","3.50779104233","1698.42760897","2.98548793793","1701.41318393","3.01451206207","1704.47949004","1706.2409389","1706.31620097","1709.31855392","0","1709.33292198","1715.28858805",""
"sujeto_06da9741","1","2","14","46","1715.43453407","inverse","1","1","2","¿Cuántos grandes lagos hay?","7","5","","0","0","1","competitive","left","1.43276906013","1716.86734605","3.56723093987","1720.60336709","2.89201307297","1723.49544287","3.10798692703","1726.6428709","1727.93502498","1728.02677989","1731.02957106","0","1731.04453397","1738.86559105",""
"sujeto_06da9741","1","2","15","47","1739.04716897","direct","3","1","2","¿Cuántos discos de estudio
 grabó Johhny Cash? ","54","43","","1","1","0","competitive","right","1.67043781281","1740.71767402","3.32956218719","1744.23416805","3.81354808807","1748.04777598","2.18645191193","1750.2695899","1751.54823804","1751.6221149","1754.62457705","1","1754.64085793","1761.29160309",""
"sujeto_06da9741","1","2","16","48","1761.44268394","inverse","4","1","1","¿Cuántos barrios tiene
 Montevideo? ","71","62","","0","0","1","competitive","left","1.33122491837","1762.77395391","3.66877508163","1766.61211109","2.83382296562","1769.44597507","3.16617703438","1772.64974093","1773.65683603","1773.73458195","1776.73659992","0","1776.75159693","1782.21362495",""
"sujeto_06da9741","1","2","17","49","1782.35485005","direct","3","1","3","¿Qué edad tiene Homero Simpson?","36","42","","0","0","1","competitive","right","1.49431014061","1783.84920502","3.50568985939","1787.52447295","2.19673705101","1789.72127199","3.80326294899","1793.56052995","1794.93554807","1795.02553296","1798.02846289","0","1798.04649687","1802.43109989",""
"sujeto_06da9741","1","2","18","50","1802.59776592","inverse","4","1","2","¿Cuántos países con monarquía 
hay en europa actualmente? ","6","10","","1","1","1","competitive","left","1.7946100235","1804.39243889","3.2053899765","1807.76783109","3.55564308167","1811.3235569","2.44435691833","1813.81958389","1815.2576201","1815.33715487","1818.34011889","1","1818.35691309","1824.51371288",""
"sujeto_06da9741","1","2","19","51","1824.65843201","direct","2","1","3","¿Cuántos capítulos de
 Friends existen? ","236","228","","1","1","1","competitive","right","1.77030301094","1826.42878103","3.22969698906","1829.81331587","3.65242314339","1833.46578789","2.34757685661","1835.86193109","1837.16655302","1837.24874187","1840.25155497","1","1840.26932287","1842.64421201",""
"sujeto_06da9741","1","2","20","52","1842.78452492","inverse","1","1","3","¿Cuántas óperas compuso Mozart? ","27","22","","1","1","1","competitive","left","1.27628302574","1844.06086397","3.72371697426","1847.95464587","3.03830504417","1850.99301291","2.96169495583","1854.00777507","1855.29957509","1855.37528706","1858.37623","1","1858.39460588","1865.70560288",""
"sujeto_06da9741","1","2","21","53","1865.8622911","direct","4","1","3","¿Cuántos mundiales de fútbol 
femenino ha realizado FIFA? ","9","7","","1","1","1","competitive","right","1.50493001938","1867.36726809","3.49506998062","1871.05078387","3.70046710968","1874.75131989","2.29953289032","1877.10517502","1878.34861302","1878.43952799","1881.44209409","1","1881.45695806","1887.5594101",""
"sujeto_06da9741","1","2","22","54","1887.70957589","inverse","3","1","2","¿Cuál es la temperatura 
media anual en Montevideo? ","17.5","16.3","","0","0","1","competitive","left","1.70779705048","1889.41743803","3.29220294952","1892.87795401","3.49655413628","1896.37455487","2.50344586372","1898.91634202","1900.85462999","1900.9328239","1903.93574595","0","1903.95252204","1910.52017307",""
"sujeto_06da9741","1","2","23","55","1910.67090201","direct","2","1","2","¿En qué año se estrenó el
 videojuego The Sims? ","2000","2002","","0","0","0","competitive","right","1.69583702087","1912.36678696","3.30416297913","1915.84172487","3.73707604408","1919.57884502","2.26292395592","1921.89375901","1923.75576997","1923.83222604","1926.83462596","0","1926.848068","1934.241714",""
"sujeto_06da9741","1","2","24","56","1934.38527203","inverse","2","1","1","¿Cuál es la canción con 
mas covers? ","Yesterday","Stand by me","","0","0","0","individual","left","2.22671508789","1936.61203098","2.77328491211","1939.55272293","3.44131493568","1942.99410701","2.55868506432","1945.60585499","1947.00437903","1947.05491304","1950.05683088","0","1950.07657504","1954.24658394",""
"sujeto_06da9741","1","2","25","57","1954.39608097","direct","1","1","4","¿Cuánto duró la guerra
 de los 100 años?","116","123","","0","0","0","competitive","left","1.52012896538","1955.91627288","3.47987103462","1959.5637269","3.29246091843","1962.85623002","2.70753908157","1965.60103607","1967.08157086","1967.16821098","1970.16943407","0","1970.18681502","1972.50662804",""
"sujeto_06da9741","1","2","26","58","1972.65255904","inverse","4","1","4","¿Qué color tiene la  bandera de Brasil?","Amarillo","Naranja","left","0","0","1","competitive","left","1.29084897041","1973.94345188","3.70915102959","1977.82453704","2.41591119766","1980.24052906","3.58408880234","1983.87788391","1985.44355702","1985.52888989","1988.53157902","1","1988.54729295","1991.58006501",""
"sujeto_06da9741","1","2","27","59","1991.728894","direct","4","1","3","¿Qué carabela de 
Colon no volvió del viaje?","Santa María","La pinta","","0","0","1","competitive","left","1.39517593384","1993.12414598","3.60482406616","1996.89853287","3.30618691444","2000.20476007","2.69381308556","2002.95073199","2004.44159698","2004.52137303","2007.52361202","0","2007.53972387","2009.63857198",""
"sujeto_06da9741","1","2","28","60","2009.80847406","inverse","4","1","4","¿Cuántos huesos tiene
 un adulto humano?","217","206","","0","0","1","competitive","left","1.56936216354","2011.37790203","3.43063783646","2014.97627687","3.76164197922","2018.73798203","2.23835802078","2021.01345086","2022.28454089","2022.36346889","2025.36643696","0","2025.38296509","2033.21796799",""
"sujeto_06da9741","1","2","29","61","2033.36625504","direct","1","1","1","¿Qué país africano fue 
fundado por esclavos?","Liberia","Chad","","0","0","0","competitive","left","2.11183214188","2035.47813201","2.88816785812","2038.53895688","3.59320092201","2042.13219905","2.40679907799","2044.57629609","2046.56789303","2046.64245009","2049.64537001","0","2049.66217399","2057.64714909",""
"sujeto_06da9741","1","2","30","62","2057.79782701","inverse","4","1","2","¿A cuánto asciende la cima
 del monte Everest?","7.990 mts","8.848 mts","","0","0","1","competitive","left","1.7155251503","2059.51341605","3.2844748497","2062.96707797","3.40943694115","2066.37659001","2.59056305885","2069.02279496","2070.20759892","2070.28821707","2073.2911799","0","2073.30827403","2080.48791003",""
"sujeto_06da9741","1","2","31","63","2080.6286869","direct","4","1","1","¿Cuál es el país mas chico?","Sealand","Luxemburgo","","1","1","1","competitive","right","2.0810508728","2082.70979095","2.9189491272","2085.81309199","2.92665100098","2088.73979998","3.07334899902","2091.86600494","2093.72954392","2093.81889987","2096.82157207","1","2096.83778596","2099.96007609",""
"sujeto_06da9741","1","2","32","64","2100.10545301","inverse","2","1","4","¿Cuántas pirámides hay en Egipto?","10000","11000","","1","1","1","competitive","left","1.47038316727","2101.575881","3.52961683273","2105.27358007","3.35330104828","2108.62694407","2.64669895172","2111.32523298","2112.35879993","2112.44478393","2115.44780493","1","2115.46325588","2120.57233906",""
"sujeto_06da9741","1","3","1","65","2275.36260295","direct","2","1","2","¿Cuál es el quinto país con 
mas extensión?","Canadá","Brasil","","1","1","0","competitive","right","2.13919091225","2277.50184393","2.86080908775","2280.53388309","3.72697901726","2284.26092386","2.27302098274","2286.585361","2287.91867495","2288.003196","2291.0061729","1","2291.01961708","2298.74596786","2120.58473587"
"sujeto_06da9741","1","3","2","66","2298.88834596","inverse","1","1","2","¿Qué rasgo facial no tiene
 la Mona Lisa?","Cejas","Pómulos","","0","0","1","competitive","left","2.75472903252","2301.64313793","2.24527096748","2304.06098795","3.93510699272","2307.99615598","2.06489300728","2310.11371398","2311.864115","2311.948457","2314.95146704","0","2314.96610594","2321.23744798",""
"sujeto_06da9741","1","3","3","67","2321.36772609","direct","4","1","3","¿Cuál es el país con 
mayor población?","Esados Unidos","China","right","0","0","1","competitive","right","1.49455809593","2322.86234689","3.50544190407","2326.52428102","3.08504295349","2329.60938907","2.91495704651","2332.57448387","2334.22052288","2334.29280901","2337.295578","1","2337.31037593","2340.67771506",""
"sujeto_06da9741","1","3","4","68","2340.82830906","inverse","1","1","1","La palabra dinosaurio significa","Lagarto Terrible","Lagarto Dragón","","1","1","0","competitive","right","1.93508005142","2342.76349306","3.06491994858","2346.00100398","5.33860588074","2351.3396709","0.661394119263","2352.05320692","2353.22255588","2353.30324197","2356.30624509","1","2356.32058907","2359.18244696",""
"sujeto_06da9741","1","3","5","69","2359.32282686","direct","2","1","3","¿Qué es el membrillero?","Arbol","Arbusto","","0","0","0","competitive","left","1.81487298012","2361.137743","3.18512701988","2364.49450302","3.19027805328","2367.68483996","2.80972194672","2370.54513192","2372.49925303","2372.57980704","2375.58272696","0","2375.59731889","2382.06134701",""
"sujeto_06da9741","1","3","6","70","2382.19928598","inverse","3","1","3","¿Alrededor de qué planeta orbita 
el satélite Europa?","Jupiter","Saturno","","1","1","1","competitive","left","1.18564200401","2383.38499689","3.81435799599","2387.37298393","4.24798989296","2391.62103605","1.75201010704","2393.42386103","2394.96869087","2395.04080606","2398.04382586","1","2398.05826306","2400.26341391",""
"sujeto_06da9741","1","3","7","71","2400.41061807","direct","3","1","1","¿Donde fue el mundial de 
fútbol de 1954?","Suiza","Suecia","","1","1","1","individual","right","2.43245792389","2402.84311509","2.56754207611","2405.581568","4.37959194183","2409.96120095","1.62040805817","2411.61729002","2412.86993909","2412.91795897","2415.92095804","1","2415.93560004","2419.84733295",""
"sujeto_06da9741","1","3","8","72","2420.00405097","inverse","1","1","4","¿Cuál de los 7 enanitos
no tenía barba?","Bashful","Mudito","","1","1","0","competitive","right","1.32127785683","2421.32539296","3.67872214317","2425.17497492","3.84944701195","2429.02446103","2.15055298805","2431.22578597","2432.80594492","2432.87650895","2435.87946105","1","2435.89416695","2440.82329297",""
"sujeto_06da9741","1","3","9","73","2440.96205306","direct","3","1","2","¿Cual red social es
mas utilizada mundialmente?","Instagram","Facebook","","1","1","0","competitive","left","1.99451804161","2442.95661688","3.00548195839","2446.12016797","3.18245196342","2449.30268002","2.81754803658","2452.17117596","2454.08852291","2454.17317986","2457.176157","1","2457.19096208","2460.12550306",""
"sujeto_06da9741","1","3","10","74","2460.27517295","inverse","4","1","1","¿Cuándo se inició la copa
 América de fútbol?","1916","1923","","1","1","1","individual","right","1.5315990448","2461.80683589","3.4684009552","2465.42999697","3.64483904839","2469.07487988","2.35516095161","2471.4646399","2473.36210608","2473.41514897","2476.41810799","1","2476.43335795","2479.08946896",""
"sujeto_06da9741","1","3","11","75","2479.23460889","direct","3","1","4","¿Cuántos presidentes de EEUU
han muerto asesinados?","3","4","","0","0","1","competitive","left","1.50629687309","2480.7409699","3.49370312691","2484.38831306","3.36360311508","2487.75197005","2.63639688492","2490.43965006","2491.92260909","2492.00755596","2495.01055503","0","2495.02508307","2498.66915798",""
"sujeto_06da9741","1","3","12","76","2498.81018996","inverse","2","1","4","¿Cuántas veces participó EEUU
 en la copa América?","4","5","","0","0","1","competitive","left","1.25200390816","2500.06223798","3.74799609184","2503.98375607","3.16348814964","2507.14728403","2.83651185036","2510.03412509","2511.47821999","2511.55289602","2514.55588603","0","2514.5706389","2520.68782806",""
"sujeto_06da9741","1","3","13","77","2520.82115197","direct","4","1","1","¿Cuál de estos países 
no formaba la URSS?","Azeribayán","Afganistán","","0","0","1","competitive","right","1.80928492546","2522.63051796","3.19071507454","2525.99604487","3.21146297455","2529.20758104","2.78853702545","2532.04605889","2533.35913587","2533.43070197","2536.43370199","0","2536.44796991","2544.43013406",""
"sujeto_06da9741","1","3","14","78","2544.56498289","inverse","1","1","1","¿En qué año se inauguró
 el teatro Solís?","1867","1856","","0","0","0","competitive","left","2.0486600399","2546.61368799","2.9513399601","2549.72441101","3.27727413177","2553.00174689","2.72272586823","2555.75900507","2556.81533408","2556.89370704","2559.89663601","0","2559.91089797","2566.55866408",""
"sujeto_06da9741","1","3","15","79","2566.712955","direct","1","1","4","¿A qué velocidad vuela 
el avión más rápido?","3529","3874","","0","0","0","competitive","right","1.43985891342","2568.15288591","3.56014108658","2571.88699603","3.51188015938","2575.39891791","2.48811984062","2577.93581986","2579.69134092","2579.77030993","2582.77329993","0","2582.78795099","2584.89822888",""
"sujeto_06da9741","1","3","16","80","2585.03977299","inverse","3","1","4","¿De qué año es la primer 
película cinematográfica?","1897","1888","","0","0","0","competitive","right","1.04027795792","2586.08009601","3.95972204208","2590.21231294","4.34277892113","2594.55516005","1.65722107887","2596.24715805","2597.38013196","2597.46460509","2600.46757388","0","2600.482095","2605.89186406",""
"sujeto_06da9741","1","3","17","81","2606.03220797","direct","2","1","3","¿Cuántos países 
tiene nuestro planeta?","191","194","","1","1","1","competitive","right","1.40069699287","2607.43298793","3.59930300713","2611.20732403","3.23198699951","2614.43937302","2.76801300049","2617.2577579","2618.61498594","2618.69243693","2621.69336796","1","2621.70968008","2624.94796205",""
"sujeto_06da9741","1","3","18","82","2625.09429288","inverse","2","1","2","¿Cuántos habitantes
 tiene Buenos Aires?","2.9000.000","3650000","","0","0","0","competitive","right","1.55510997772","2626.64947009","3.44489002228","2630.267313","2.83115792274","2633.09853888","3.16884207726","2636.31697893","2637.71428108","2637.78492498","2640.787884","0","2640.80218005","2646.63151097",""
"sujeto_06da9741","1","3","19","83","2646.78709292","direct","2","1","1","¿Cuántos kilos forman una tonelada?","1000","1500","left","1","1","1","individual","left","2.11861205101","2648.90576887","2.88138794899","2651.94605088","2.42966508865","2654.37577796","3.57033491135","2657.97918606","2659.86654186","2659.91416597","2662.91656089","1","2662.93217397","2668.88962197",""
"sujeto_06da9741","1","3","20","84","2669.03294396","inverse","4","1","4","¿Cuántos estados tiene la 
República del Perú? ","24","23","","0","0","1","competitive","right","1.12998580933","2670.16300702","3.87001419067","2674.20657706","3.14142417908","2677.34806299","2.85857582092","2680.25663996","2681.2788229","2681.35830188","2684.36129498","0","2684.37596488","2689.3212769",""
"sujeto_06da9741","1","3","21","85","2689.46030593","direct","3","1","3","¿En qué año nació Cristóbal Colón? ","1451","1447","","0","0","1","competitive","right","1.47080397606","2690.93115687","3.52919602394","2694.63380289","3.19136190414","2697.82523108","2.80863809586","2700.68476987","2702.53067899","2702.60265589","2705.60560894","0","2705.62091994","2709.84890199",""
"sujeto_06da9741","1","3","22","86","2709.98839808","inverse","4","1","4","¿Cuánto mide la 
Montaña Aconcagua? ","6234","6962","","0","0","1","competitive","right","1.23891615868","2711.22736192","3.76108384132","2715.15859294","3.74182581902","2718.90049386","2.25817418098","2721.19421101","2722.48357487","2722.56232905","2725.56529093","0","2725.57949305","2732.76315093",""
"sujeto_06da9741","1","3","23","87","2732.91437387","direct","2","1","4","¿Cuánto mide el punto
 más profundo del océano? ","12508","11003","","0","0","1","competitive","right","1.68825602531","2734.60267591","3.31174397469","2738.07383108","4.02171802521","2742.09558988","1.97828197479","2744.12497997","2745.37645102","2745.458462","2748.46143699","0","2748.47607303","2752.68232894",""
"sujeto_06da9741","1","3","24","88","2752.82796192","inverse","1","1","3","¿Cuántos álbumes ha publicado 
el cantante Jaime Roos? ","41","34","","0","0","1","competitive","right","1.86059689522","2754.68860292","3.13940310478","2758.00065207","2.79297208786","2760.79371095","3.20702791214","2764.05063105","2765.54052091","2765.61906004","2768.62203288","0","2768.63676405","2774.83292198",""
"sujeto_06da9741","1","3","25","89","2774.98782086","direct","4","1","3","¿En qué año nació el 
ex-presidente Jorge Battle? ","1921","1927","","1","1","1","competitive","right","1.41864395142","2776.40655899","3.58135604858","2780.14461088","4.15681004524","2784.30146194","1.84318995476","2786.19615507","2787.92684388","2788.01336598","2791.01633501","1","2791.03059697","2794.51665807",""
"sujeto_06da9741","1","3","26","90","2794.64916992","inverse","1","1","3","¿Cuántas presidencias 
constitucionales  hubo en Uruguay? ","41","42","","0","0","1","competitive","left","1.42120981216","2796.07042503","3.57879018784","2799.80447102","4.13292098045","2803.93745303","1.86707901955","2805.8541019","2807.05787492","2807.138237","2810.14117289","0","2810.15590787","2815.93595195",""
"sujeto_06da9741","1","3","27","91","2816.09049797","direct","1","1","2","¿Quién escribió mas sinfonías?","Mozart","Haydn","","1","1","0","competitive","left","1.48886990547","2817.57943487","3.51113009453","2821.24887896","2.72343993187","2823.97235894","3.27656006813","2827.29916","2828.51659393","2828.60089207","2831.60387707","1","2831.61847091","2835.36852908",""
"sujeto_06da9741","1","3","28","92","2835.50303602","inverse","4","1","2","¿En qué año nació Michael Jackson?","1958","1953","","1","1","1","competitive","left","1.648239851","2837.15132093","3.351760149","2840.67637706","2.67090916634","2843.34734797","3.32909083366","2846.72567987","2848.703933","2848.77538896","2851.7783711","1","2851.79388595","2857.65618896",""
"sujeto_06da9741","1","3","29","93","2857.79521704","direct","3","1","2","¿En qué año entró en vigencia 
la ley antitabaco en Uruguay?","2005","2006","","1","1","1","competitive","right","1.25601220131","2859.05130196","3.74398779869","2862.970613","4.6755759716","2867.64625597","1.3244240284","2869.00561905","2870.600384","2870.67279005","2873.67402101","1","2873.69028902","2879.02429795",""
"sujeto_06da9741","1","3","30","94","2879.15834808","inverse","3","1","1","¿Cuándo se subió el 
primer video a youtube?","2004","2005","","0","0","1","individual","left","1.74783611298","2880.90622807","3.25216388702","2884.33130598","3.42378783226","2887.75513005","2.57621216774","2890.37996507","2891.68562889","2891.73110008","2894.734056","0","2894.74883795","2902.504462",""
"sujeto_06da9741","1","3","31","95","2902.65390396","direct","2","1","1","¿Cuántos habitantes tiene India?","1200 millones","1300 millones","","0","0","0","competitive","right","2.13527393341","2904.78922701","2.86472606659","2907.82602596","3.72213196754","2911.54819703","2.27786803246","2913.87828207","2915.84790301","2915.92936301","2918.93234587","0","2918.94752789","2924.99502087",""
"sujeto_06da9741","1","3","32","96","2925.13150287","inverse","4","1","2","¿A qué edad murió Bob Marley?","36","37","","0","0","1","competitive","right","1.59566402435","2926.72723293","3.40433597565","2930.28885508","3.40728902817","2933.69620609","2.59271097183","2936.33887196","2938.23674202","2938.32393098","2941.32661605","0","2941.3412931","2944.44373393",""
"sujeto_06da9741","1","4","1","97","3082.86463809","direct","2","1","1","¿Cuantos años dirigió la selección 
uruguaya Tabarez?","15 años","13 años","","0","0","0","competitive","left","2.26062703133","3085.12530708","2.73937296867","3088.03678107","2.74751901627","3090.78436399","3.25248098373","3094.08951187","3095.28060198","3095.35613203","3098.35858893","0","3098.37533402","3105.44293094","2944.45539999"
"sujeto_06da9741","1","4","2","98","3105.59421301","inverse","4","1","1","¿Cuantas teclas tiene un teclado 
de computadora generalmente? ","Entre 99 y 108","Entre 109 y 113","","1","1","1","competitive","right","1.83112120628","3107.42538595","3.16887879372","3110.79611397","4.49118280411","3115.28733897","1.50881719589","3116.85107493","3117.85357094","3117.93660307","3120.93861389","1","3120.95412397","3123.32557201",""
"sujeto_06da9741","1","4","3","99","3123.45410609","direct","1","1","1","¿Cuál Departamento tiene
 mayor superficie?","Río Negro","Soriano","","0","0","0","competitive","right","1.43127608299","3124.885427","3.56872391701","3128.60749388","3.67682790756","3132.28436494","2.32317209244","3134.64388108","3136.35729194","3136.44438601","3139.4465549","0","3139.46231794","3143.78844905",""
"sujeto_06da9741","1","4","4","100","3143.93283486","inverse","3","1","2","¿Cuál es el apellido de las 
hermanastras  de  cenicienta?","Tremaine","Truman","","0","0","1","competitive","left","1.3735461235","3145.30642509","3.6264538765","3149.10354304","4.11685919762","3153.22044897","1.88314080238","3155.15553093","3157.02459097","3157.10505295","3160.10759497","0","3160.12349391","3162.81941891",""
"sujeto_06da9741","1","4","5","101","3162.97374606","direct","4","1","4","¿Cuál película ganó un
 Oscar a mejor película?","Alto Impacto","Cache","","0","0","1","competitive","right","1.84176802635","3164.81557202","3.15823197365","3168.16080189","4.83260798454","3172.99345207","1.16739201546","3174.21266103","3175.33154106","3175.41531801","3178.41761708","0","3178.43252707","3180.69660902",""
"sujeto_06da9741","1","4","6","102","3180.84966803","inverse","1","1","3","¿A cuántos centímetros
equivale la medida pié?","25","30","","0","0","1","competitive","right","1.70087194443","3182.55058408","3.29912805557","3186.03560686","4.36586403847","3190.40156102","1.63413596153","3192.07381105","3193.11381698","3193.18951297","3196.1916039","0","3196.20986295","3201.61061287",""
"sujeto_06da9741","1","4","7","103","3201.79409289","direct","2","1","2","¿Qué departamento es mas grande?","Cerro Largo","Paysandú","","0","0","0","competitive","right","1.17946004868","3202.97361898","3.82053995132","3206.96353006","2.97104907036","3209.93464088","3.02895092964","3213.01710606","3214.61685395","3214.70172","3217.70224094","0","3217.72080398","3221.83058095",""
"sujeto_06da9741","1","4","8","104","3221.97232294","inverse","2","1","3","¿Quién pintó la Mona Lisa?","Picasso","Da Vinci","right","0","0","1","competitive","right","2.25428581238","3224.22665286","2.74571418762","3227.14357209","2.25301504135","3229.3966279","3.74698495865","3233.19183087","3234.79756308","3234.88037801","3237.88256693","1","3237.89772797","3240.05955505",""
"sujeto_06da9741","1","4","9","105","3240.21401787","direct","4","1","3","¿Cuántos litros hay en un galon?","3.54","3.78","","1","1","1","competitive","right","1.16161704063","3241.37570095","3.83838295937","3245.36579609","2.68987298012","3248.05573201","3.31012701988","3251.41880298","3252.93663597","3253.02161789","3256.02455997","1","3256.04025006","3261.83157301",""
"sujeto_06da9741","1","4","10","106","3261.99180794","inverse","4","1","1","¿Cuántas teclas tiene
 un piano moderno?","80","88","","0","0","1","individual","left","1.46487998962","3263.45675492","3.53512001038","3267.14477706","3.5719909668","3270.71683097","2.4280090332","3273.19790697","3274.20639396","3274.24980903","3277.25254893","0","3277.26683092","3284.0635879",""
"sujeto_06da9741","1","4","11","107","3284.22170091","direct","4","1","3","¿Cuántos países hay en África?","54","62","","0","0","1","competitive","left","1.21110200882","3285.432868","3.78889799118","3289.37392902","2.52289795876","3291.89686704","3.47710204124","3295.42622709","3297.11659503","3297.19402289","3300.19698906","0","3300.21272802","3308.01397204",""
"sujeto_06da9741","1","4","12","108","3308.14933705","inverse","1","1","3","¿En qué siglo se crearon
 las primeras pistolas?","XV","XIII","","1","1","1","competitive","right","1.31587815285","3309.46528697","3.68412184715","3313.30099988","4.19192290306","3317.49298501","1.80807709694","3319.33970809","3321.28754592","3321.37483096","3324.37763691","1","3324.39274001","3327.62581396",""
"sujeto_06da9741","1","4","13","109","3327.79327989","direct","3","1","4","¿En qué año se estrenó 
la serie friends?","1994","1995","","0","0","1","competitive","right","1.77113103867","3329.5644629","3.22886896133","3332.97805095","3.64289593697","3336.62101197","2.35710406303","3339.01861095","3340.89393592","3340.969172","3343.97156787","0","3343.9853549","3348.99054003",""
"sujeto_06da9741","1","4","14","110","3349.137393","inverse","3","1","4","¿En qué año nació Hitler?","1889","1887","","0","0","1","competitive","right","1.28867387772","3350.42613292","3.71132612228","3354.291224","4.54281997681","3358.83411002","1.45718002319","3360.32714391","3361.44152689","3361.52754498","3364.52958608","0","3364.544559","3369.57154608",""
"sujeto_06da9741","1","4","15","111","3369.71403289","direct","1","1","4","¿Cuánto pesa un elefante Africano?","6000 kilos","5400 kilos","","0","0","0","competitive","left","1.29909801483","3371.01317286","3.70090198517","3374.89916086","4.22799992561","3379.12720203","1.77200007439","3380.93814898","3382.29398203","3382.37109089","3385.37282205","0","3385.39009905","3392.09206891",""
"sujeto_06da9741","1","4","16","112","3392.24437189","inverse","1","1","2","¿Qué porcentaje de 
la población es zurda?","10%","7%","","1","1","0","competitive","right","1.16086196899","3393.40529704","3.83913803101","3397.39713597","3.35706996918","3400.75426888","2.64293003082","3403.44752502","3404.69063401","3404.76844192","3407.77138996","1","3407.78585505","3413.76459694",""
"sujeto_06da9741","1","4","17","113","3413.90409994","direct","1","1","2","¿En qué año se estrenó
Volver al futuro?","1984","1985","","0","0","1","competitive","left","1.23521494865","3415.13936901","3.76478505135","3419.07355809","3.39976596832","3422.47338796","2.60023403168","3425.11195493","3426.67375302","3426.76263499","3429.76559091","0","3429.78015304","3436.86670208",""
"sujeto_06da9741","1","4","18","114","3437.01499701","inverse","3","1","2","¿Cuántos jugadores hay en un 
equipo de baseball?","9","8","","1","1","0","competitive","right","1.65841007233","3438.6734879","3.34158992767","3442.18645287","3.14495801926","3445.33145189","2.85504198074","3448.2218411","3449.8361249","3449.92416","3452.92656994","1","3452.94203901","3457.91931391",""
"sujeto_06da9741","1","4","19","115","3458.06153107","direct","2","1","1","¿Cuántos Oscar ganó
 la película titanic?","13","11","","1","1","1","individual","left","1.70905208588","3459.77065897","3.29094791412","3463.2289691","2.91851711273","3466.14756107","3.08148288727","3469.26809192","3470.5701139","3470.61686206","3473.61977196","1","3473.63652205","3478.23855209",""
"sujeto_06da9741","1","4","20","116","3478.38738608","inverse","4","1","4","¿En qué año comenzó
la segunda guerra mundial?","1939","1976","left","0","0","1","competitive","left","1.36527609825","3479.75270605","3.63472390175","3483.55662608","3.76301813126","3487.31971407","2.23698186874","3489.59417605","3491.39404202","3491.4781971","3494.479918","1","3494.49758887","3498.48462105",""
"sujeto_06da9741","1","4","21","117","3498.64867806","direct","2","1","4","¿Cuántos biomas hay en Uruguay?","5","4","","0","0","1","competitive","left","1.48707294464","3500.13579488","3.51292705536","3503.80256987","4.33814501762","3508.14075708","1.66185498238","3509.85349298","3511.65084887","3511.74013686","3514.74260402","0","3514.75751901","3521.00689197",""
"sujeto_06da9741","1","4","22","118","3521.17402792","inverse","2","1","3","¿Cuándo murió Pablo Escobar?","1993","1997","","1","1","1","competitive","right","1.40783691406","3522.58193588","3.59216308594","3526.34737492","3.19347691536","3529.54089403","2.80652308464","3532.38412499","3534.16690993","3534.24998593","3537.25254607","1","3537.26937103","3542.97260308",""
"sujeto_06da9741","1","4","23","119","3543.12124991","direct","1","1","4","¿Qué serie ha ganado mas premios?","Friends","Murphy Brown","","1","1","0","competitive","left","1.42870998383","3544.55004001","3.57129001617","3548.28925109","2.82974004745","3551.11905694","3.17025995255","3554.32850504","3555.68088889","3555.76127887","3558.76423001","1","3558.78077197","3564.34240007",""
"sujeto_06da9741","1","4","24","120","3564.48442006","inverse","4","1","2","¿Cuántas fichas tiene el dominó?","26","28","","1","1","1","competitive","right","1.61660599709","3566.10107589","3.38339400291","3569.65069103","3.56736302376","3573.21811604","2.43263697624","3575.68881202","3576.7436111","3576.82277894","3579.82554698","1","3579.8418529","3585.08462",""
"sujeto_06da9741","1","4","25","121","3585.22783709","direct","2","1","4","¿Cuántos son los dientes de leche?","20","25","","0","0","1","competitive","right","1.51232814789","3586.74020886","3.48767185211","3590.377949","3.96924901009","3594.34725904","2.03075098991","3596.417032","3598.12658906","3598.213238","3601.21555805","0","3601.23608994","3603.38179708",""
"sujeto_06da9741","1","4","26","122","3603.52022505","inverse","3","1","3","¿Cuántos gramos son una onza?","22","28","","0","0","1","competitive","left","1.22108411789","3604.74137688","3.77891588211","3608.67333508","3.1690120697","3611.84239101","2.8309879303","3614.72621989","3616.7205739","3616.7953999","3619.7975769","0","3619.81110191","3626.10054803",""
"sujeto_06da9741","1","4","27","123","3626.26315188","direct","3","1","1","¿Cuándo salió el primer album
 de los Beatles?","1963","1962","","1","1","1","individual","left","1.95821285248","3628.22143006","3.04178714752","3631.41852999","3.65183782578","3635.07043886","2.34816217422","3637.46817493","3638.63180399","3638.67044687","3641.67339802","1","3641.69075394","3645.46255207",""
"sujeto_06da9741","1","4","28","124","3645.60761309","inverse","3","1","3","¿Quién fundó la empresa apple?","Carlos Slim","Steve Jobs","","1","1","1","competitive","right","1.18090605736","3646.78859806","3.81909394264","3650.77790308","2.75863194466","3653.53659892","3.24136805534","3656.82972097","3657.94359398","3658.01829505","3661.02057886","1","3661.03425598","3667.33207989",""
"sujeto_06da9741","1","4","29","125","3667.47086692","direct","4","1","2","¿Cuántos municipios hay
 en Montevideo?","8","7","","1","1","1","competitive","right","1.45376801491","3668.92470098","3.54623198509","3672.62315488","3.48744606972","3676.11070991","2.51255393028","3678.67414808","3680.58888102","3680.67799807","3683.68054008","1","3683.695503","3685.77656794",""
"sujeto_06da9741","1","4","30","126","3685.92927289","inverse","1","1","1","¿Cuántos kilómetros hay
 de Montevideo a Artigas?","632","599","","0","0","0","individual","left","1.87643909454","3687.80575705","3.12356090546","3691.11578894","2.94998884201","3694.06581903","3.05001115799","3697.15293598","3698.63559294","3698.68616891","3701.68858409","0","3701.70499086","3707.75670004",""
"sujeto_06da9741","1","4","31","127","3707.9053731","direct","2","1","2","¿En qué año nació 
Leonardo Da Vinci?","1452","1511","","1","1","0","competitive","left","1.23551392555","3709.14095998","3.76448607445","3713.07406902","2.87883114815","3715.95296097","3.12116885185","3719.11429286","3720.96760106","3721.04776692","3724.05069208","1","3724.06633806","3727.21277404",""
"sujeto_06da9741","1","4","32","128","3727.36773992","inverse","3","1","1","¿A qué continente
 pertenece el país Gabón?","Africa","Oceanía","","0","0","1","individual","left","1.76220488548","3729.13000989","3.23779511452","3732.55270791","3.97928500175","3736.5320549","2.02071499825","3738.59056902","3740.40218306","3740.44097805","3743.44390297","0","3743.46008205","3748.69761491",""
