"code","nro_aplicante","nro_bloque","nro_trial_bloque","nro_trial_global","show_game_type","choice_order","rival","pay_individual","pay_competitive","question","answer_left_text","answer_right_text","correct_answer","outcome_individual","outcome_competitive","outcome_rival","game_type","answer","social_time","rt_game_type","feedback_delay","show_question","answer_time","rt_answer_global","feedback_delay_2","show_jitter","jitter_time","show_outcome","outcome_time","outcome_participant_real","show_final_jitter","second_jitter_time","inicio_descanso"
"sujeto_0031826","1","1","1","1","687.779610157","direct","3","1","4","¿Cuántos centímetros corresponden
al talle 36 del calzado?","23","24","","0","0","1","competitive","right","2.89227294922","690.671956062","2.10772705078","692.938830137","4.86597204208","697.804870129","1.13402795792","698.990070105","700.018383026","700.090918064","703.091980219","0","703.108310223","705.27081418",""
"sujeto_0031826","1","1","2","2","705.409414053","inverse","3","1","2","¿Cuántas metros mide la Intendencia
Municipal de Montevideo? ","84","78","","0","0","1","individual","right","2.58342194557","707.992899179","2.41657805443","710.579717159","3.89114093781","714.470896006","2.10885906219","716.632908106","718.510949135","718.549758196","721.552698135","0","721.567592144","723.660368204",""
"sujeto_0031826","1","1","3","3","723.802620173","direct","1","1","3","¿Cuántas La Pasiva
 hay en uruguay?","15","11","","1","1","1","competitive","right","2.84128308296","726.643971205","2.15871691704","728.988185167","3.59070611","732.57896018","2.40929389","735.042135","736.653782129","736.725852013","739.728797197","1","739.744063139","744.022403002",""
"sujeto_0031826","1","1","4","4","744.161653042","inverse","3","1","3","¿De que color es la camiseta de uruguay?","blanca","celeste","right","1","1","1","competitive","right","3.6812210083","747.842939138","1.3187789917","749.317770004","2.79512190819","752.112953186","3.20487809181","755.369043112","756.573783159","756.653269053","759.65500617","1","759.670129061","763.124061108",""
"sujeto_0031826","1","1","5","5","763.272170067","direct","2","1","1","¿Cuánto metros mide
la torre Eiffel?","333","324","","1","1","1","individual","left","2.95275592804","766.22500515","2.04724407196","768.427616119","3.9963259697","772.423984051","2.0036740303","774.461962223","775.983349085","776.030722141","779.033720016","1","779.04767704","786.084381104",""
"sujeto_0031826","1","1","6","6","786.232154131","inverse","3","1","4","¿Cuantas ciudades existen
 en todo el uruguay?","63","72","","0","0","1","competitive","left","1.64076781273","787.872965097","3.35923218727","791.373466015","3.31150603294","794.685014009","2.68849396706","797.420930147","798.475756168","798.557052135","801.559943199","0","801.573096991","809.195943117",""
"sujeto_0031826","1","1","7","7","809.341223001","direct","1","1","1","¿Cuantos estados tiene África?","52","54","","1","1","0","competitive","right","2.47371006012","811.814978123","2.52628993988","814.484920025","3.01906204224","817.504042149","2.98093795776","820.535339117","822.399368048","822.470312119","825.473255157","1","825.487887144","831.248859167",""
"sujeto_0031826","1","1","8","8","831.406258106","inverse","4","1","4","¿En qué año nació
 Stephen Hawking?","1952","1942","","0","0","1","competitive","left","2.54566502571","833.951974154","2.45433497429","836.577750206","4.40420889854","840.98200202","1.59579110146","842.631612062","844.075933218","844.148112059","847.151061058","0","847.165346146","853.264710188",""
"sujeto_0031826","1","1","9","9","853.450150013","direct","2","1","3","¿Cuánto años tenía Artigas
 cuando se fue a Paraguay?","56","57","","1","1","1","competitive","right","3.26980686188","856.720006227","1.73019313812","858.623787165","3.58719706535","862.211046219","2.41280293465","864.675235033","866.224217176","866.310060024","869.31304121","1","869.327004194","875.374319077",""
"sujeto_0031826","1","1","10","10","875.512405157","inverse","1","1","2","¿Cuantos milímetros 
mide una hoja A2?","420x592","420x594","","0","0","1","individual","right","2.98252415657","878.494974136","2.01747584343","880.685750008","4.30921411514","884.995027065","1.69078588486","886.720359087","888.287957191","888.337716103","891.340714216","0","891.354675055","898.428282022",""
"sujeto_0031826","1","1","11","11","898.556167126","direct","3","1","3","¿Cuál es la menor temperatura 
registrada en Uruguay?","-5.4","-7.4","","0","0","1","competitive","left","2.23182296753","900.788056135","2.76817703247","903.709390163","4.66054320335","908.369994164","1.33945679665","909.748892069","911.430885077","911.498989105","914.499933004","0","914.51705718","918.250326157",""
"sujeto_0031826","1","1","12","12","918.385147095","inverse","2","1","2","¿Cuantos años hace que 
se fundó facebook?","18","17","","0","0","0","competitive","left","2.70486187935","921.090076208","2.29513812065","923.552010059","3.62097287178","927.173045158","2.37902712822","929.592097044","930.96481204","931.043052197","934.043948174","0","934.060098171","936.833595991",""
"sujeto_0031826","1","1","13","13","936.962179184","direct","1","1","4","¿Cuál animal es más
 pesado en promedio?","Rinoceronte","Hipopotamo","","0","0","0","competitive","right","1.78083109856","938.743079185","3.21916890144","942.116972208","4.04705810547","946.164093018","1.95294189453","948.2013731","949.280622005","949.36999321","952.373031139","0","952.386942148","956.227926016",""
"sujeto_0031826","1","1","14","14","956.35516119","inverse","1","1","2","¿Qué personaje de dragon ball 
murió más veces?","Chaoz","Krillin","","1","1","0","competitive","right","3.32085204124","959.6760571","1.67914795876","961.493657112","4.14032196999","965.634039164","1.85967803001","967.54542613","969.003206015","969.078906059","972.081844091","1","972.096795082","979.869753122",""
"sujeto_0031826","1","1","15","15","980.014925003","direct","3","1","2","La universidad de oxford. 
existe desde:","1096","1249","","1","1","0","competitive","right","3.62009501457","983.635064125","1.37990498543","985.172415018","4.53264093399","989.705097198","1.46735906601","991.222247124","992.271015167","992.339018106","995.339926004","1","995.357253075","1002.04806209",""
"sujeto_0031826","1","1","16","16","1002.19182301","inverse","3","1","1","¿Qué escritor latino ganó antes
 el premio nobel?"," García Marquez","Neruda","","0","0","1","individual","left","2.73222994804","1004.92412114","2.26777005196","1007.34894705","4.491147995","1011.84015918","1.508852005","1013.40200019","1015.14198208","1015.18665409","1018.18796611","0","1018.20414114","1021.66396999",""
"sujeto_0031826","1","1","17","17","1021.80518913","direct","4","1","3","¿Cuántos dientes tiene un
 tiburón blanco?","6000","3000","","0","0","1","individual","left","2.39194083214","1024.1971941","2.60805916786","1026.97811604","4.12193989754","1031.10010219","1.87806010246","1033.02910113","1034.06810617","1034.11324906","1037.11596012","0","1037.13008499","1041.93975711",""
"sujeto_0031826","1","1","18","18","1042.081985","inverse","4","1","1","¿Cuánto mide el paralelo Ecuador?","40.000km","70.000km","","0","0","1","individual","right","2.32606196404","1044.40811419","2.67393803596","1047.26941013","4.79866504669","1052.06812119","1.20133495331","1053.30623221","1055.26235604","1055.30668402","1058.30964613","0","1058.32479811","1061.92396402",""
"sujeto_0031826","1","1","19","19","1062.05912614","direct","4","1","2","¿Cuál fue el primer libro 
de Stephen King?","Carrie","The Stand","","1","1","1","competitive","left","2.63092517853","1064.69011712","2.36907482147","1067.22768116","3.3913090229","1070.61905122","2.6086909771","1073.28242803","1075.02653909","1075.1001482","1078.10308909","1","1078.11831307","1082.59277916",""
"sujeto_0031826","1","1","20","20","1082.73594403","inverse","2","1","3","¿Qué civilización practicaba
 la momificación?","Grecia","Egipto","right","0","0","1","competitive","right","1.49516797066","1084.23115706","3.50483202934","1087.89284706","3.92725801468","1091.8201642","2.07274198532","1093.92603922","1095.86530113","1095.94379616","1098.9468081","1","1098.96199107","1103.1908071",""
"sujeto_0031826","1","1","21","21","1103.33037901","direct","4","1","4","¿Cuántos millones de visitas
 recibe google por minuto?","3.0","4.5","","0","0","1","competitive","right","2.96795797348","1106.298388","2.03204202652","1108.502141","3.82596111298","1112.32816505","2.17403888702","1114.55380106","1116.06868505","1116.13787508","1119.14088917","0","1119.15581512","1126.27851915",""
"sujeto_0031826","1","1","22","22","1126.42349315","inverse","1","1","3","La máquina de fax. se inventó en:","1843","1960","","0","0","1","competitive","left","1.92865300179","1128.35222411","3.07134699821","1131.5812912","4.76076412201","1136.34211421","1.23923587799","1137.61404014","1138.85591221","1138.93102312","1141.93196917","0","1141.9481101","1145.18440104",""
"sujeto_0031826","1","1","23","23","1145.33390713","direct","2","1","4","En la verdadera historia de los
 300 espartanos. habían:","300 soldados","4300 soldados","","1","1","1","competitive","","2.40211796761","1147.73606205","2.59788203239","1150.50468111","6","1156.50485206","0","1156.52536321","1157.78653216","1157.86010814","1160.86308217","0","1160.87719822","1164.67890501",""
"sujeto_0031826","1","1","24","24","1164.82854819","inverse","1","1","4","¿Cuántos milímetros crece
 el pelo por día?","0.4","0.04","","0","0","0","competitive","right","2.27356505394","1167.10217905","2.72643494606","1170.00084114","3.11827111244","1173.11917615","2.88172888756","1176.05224609","1177.81195402","1177.88647008","1180.88944602","0","1180.9045012","1187.63959503",""
"sujeto_0031826","1","1","25","25","1187.78902316","direct","4","1","1","¿Cuánto mide la baldosa gris 
clásica de Montevideo?","22x22 cm.","20x20 cm.","","1","1","1","individual","left","1.87518119812","1189.66424823","3.12481880188","1192.96363711","5.41945719719","1198.3831532","0.580542802811","1199.01425505","1201.00949311","1201.04877114","1204.05173707","1","1204.06576419","1209.60856509",""
"sujeto_0031826","1","1","26","26","1209.78420711","inverse","2","1","2","¿Cuántas películas de rápidos
 y furiosos hay?","10","11","","1","1","0","competitive","left","1.39194893837","1211.17622113","3.60805106163","1214.92085218","2.87123012543","1217.7921412","3.12876987457","1220.9724071","1222.33042121","1222.4075501","1225.4105382","1","1225.42498302","1227.45968914",""
"sujeto_0031826","1","1","27","27","1227.59331107","direct","3","1","1","¿Cuántos masters 1000
 ganó Del Potro?","1","2","","1","1","1","individual","right","2.4698638916","1230.06321907","2.5301361084","1232.75022817","3.69793915749","1236.44821","2.30206084251","1238.78444314","1240.53903103","1240.58539701","1243.58837199","1","1243.60360003","1250.99997115",""
"sujeto_0031826","1","1","28","28","1251.13840008","inverse","2","1","4","¿Cuántos meses dura el 
embarazo de una leona?","3 meses","4 meses","","0","0","1","competitive","right","1.40277385712","1252.54124403","3.59722614288","1256.31199813","4.0251159668","1260.3371501","1.9748840332","1262.34630203","1263.45732403","1263.5309782","1266.53398705","0","1266.54844403","1273.26801419",""
"sujeto_0031826","1","1","29","29","1273.41688418","direct","1","1","1","¿En qué año fue creado
 el sandwich?","1762","1653","","1","1","0","individual","right","3.04532003403","1276.46224809","1.95467996597","1278.57362509","3.92458295822","1282.49825001","2.07541704178","1284.62494707","1286.22351217","1286.258919","1289.26189899","1","1289.27682805","1292.74745607",""
"sujeto_0031826","1","1","30","30","1292.89511108","inverse","4","1","2","El nombre de la moneda de Vietnam es:","Dinar","Dong","","0","0","1","competitive","right","3.20903992653","1296.1042161","1.79096007347","1298.05037618","3.44882512093","1301.49926019","2.55117487907","1304.10041213","1305.53199601","1305.61814618","1308.62109709","0","1308.6352632","1314.80369616",""
"sujeto_0031826","1","1","31","31","1314.93685007","direct","2","1","1","¿cuantos aleteos puede dar 
un colibrí por segundo?","120","50","","0","0","0","individual","","1.81636190414","1316.75325608","3.18363809586","1320.0922842","6","1326.09240007","0","1326.11010718","1327.84250402","1327.87898612","1330.88074708","0","1330.89709616","1335.109375",""
"sujeto_0031826","1","1","32","32","1335.26550817","inverse","4","1","3","¿Qué altura promedio tienen
 los hombres uruguayos?","1.73 m","1.72 m","","1","1","1","competitive","right","3.29069900513","1338.55627203","1.70930099487","1340.4359982","3.104170084","1343.54022908","2.895829916","1346.48928022","1347.75167513","1347.82488704","1350.82791901","1","1350.84190512","1355.31784821",""
"sujeto_0031826","1","2","1","33","1487.51053309","direct","1","1","1","¿En qué año nació 
el actor Bradd Pitt?","1967","1963","","1","1","1","individual","left","1.93273282051","1489.443331","3.06726717949","1492.66712403","3.06515884399","1495.732342","2.93484115601","1498.71785712","1499.81372213","1499.85290504","1502.85579419","1","1502.87000918","1508.79760218","1355.33251309"
"sujeto_0031826","1","2","2","34","1508.92124915","inverse","2","1","1","¿Cual es el segundo 
monte más alto?","Kanchenjunga","K2","","1","1","1","individual","left","2.12804603577","1511.04934216","2.87195396423","1514.07657719","4.17668795586","1518.25333405","1.82331204414","1520.11314511","1521.56556416","1521.61477113","1524.61774516","1","1524.63080502","1528.06070113",""
"sujeto_0031826","1","2","3","35","1528.19997716","direct","3","1","1","¿Cuándo finalizó la construcción
 del Palacio Legislativo?","1925","1917","","0","0","1","individual","right","3.38330411911","1531.5833261","1.61669588089","1533.35496211","3.31438279152","1536.66938806","2.68561720848","1539.40543222","1541.04711413","1541.09022713","1544.09316921","0","1544.1087172","1549.80626416",""
"sujeto_0031826","1","2","4","36","1549.95992613","inverse","3","1","3","¿Cuántos integrantes tenía
 en su inicio  el cuarteto de nos?","3","4","","1","1","1","competitive","right","1.52439117432","1551.48438311","3.47560882568","1555.09677815","4.96446919441","1560.06130815","1.03553080559","1561.13385105","1562.2669661","1562.35076213","1565.35199022","1","1565.368047","1571.01410317",""
"sujeto_0031826","1","2","5","37","1571.16941404","direct","2","1","3","¿Qué valor tiene el número pi?","3.14","4.18","left","0","0","1","competitive","left","2.09294199944","1573.262398","2.90705800056","1576.32420206","3.20215296745","1579.52639818","2.79784703255","1582.36132312","1583.81550312","1583.89614415","1586.89911103","1","1586.91354322","1593.83452201",""
"sujeto_0031826","1","2","6","38","1594.01452422","inverse","2","1","2","¿Cuál es la esperanza de vida
 en Uruguay?","75","77","","1","1","0","individual","right","2.32185602188","1596.33642316","2.67814397812","1599.15620518","3.15615606308","1602.3124032","2.84384393692","1605.20641804","1606.85992002","1606.9077332","1609.91068411","1","1609.92498302","1616.3880682",""
"sujeto_0031826","1","2","7","39","1616.52614021","direct","1","1","2","¿Cuantos pisos tiene la torre 
de las comunicaciones?","26","32","","1","1","0","competitive","right","1.30325007439","1617.829458","3.69674992561","1621.66724706","3.72206807137","1625.38936114","2.27793192863","1627.71778202","1629.54653907","1629.61929417","1632.62222099","1","1632.6362741","1634.78244305",""
"sujeto_0031826","1","2","8","40","1634.92149901","inverse","2","1","4","¿En qué país sudamericano 
no hay McDonalds?","Bolivia","Venezuela","","0","0","1","competitive","right","1.98484110832","1636.90642715","3.01515889168","1640.0926671","3.24466180801","1643.33739114","2.75533819199","1646.141855","1647.45121408","1647.52638602","1650.52938414","0","1650.54374814","1656.90000415",""
"sujeto_0031826","1","2","9","41","1657.04579306","direct","3","1","1","¿En qué año empieza
 la Edad Media?","476","512","","1","1","1","individual","right","1.38757896423","1658.43343711","3.61242103577","1662.18769312","4.93666601181","1667.12442303","1.06333398819","1668.23926306","1669.6430521","1669.68929219","1672.69195318","1","1672.70610714","1675.69199705",""
"sujeto_0031826","1","2","10","42","1675.82554412","inverse","3","1","4","¿Hace cuántos años surgió
 el ser humano?","200mil","300mil","","0","0","0","competitive","left","1.59679698944","1677.42240214","3.40320301056","1680.97966814","3.39071202278","1684.3704412","2.60928797722","1687.03187323","1688.91792321","1689.00030708","1692.00323606","0","1692.01721907","1695.3276751",""
"sujeto_0031826","1","2","11","43","1695.46899915","direct","3","1","4","¿Cuántas cuadras tiene
 actualmente 18 de julio? ","36","33","","0","0","1","competitive","right","2.99841403961","1698.46745706","2.00158596039","1700.63734412","3.06505990028","1703.70246506","2.93494009972","1706.67484808","1708.37709403","1708.4601481","1711.46311617","0","1711.47727704","1716.20355916",""
"sujeto_0031826","1","2","12","44","1716.34592915","inverse","1","1","4","¿Qué juego de equipo se 
considera mas rápido?","Lacrosse","Badminton","","0","0","0","competitive","left","1.16443705559","1717.51041007","3.83556294441","1721.51869011","3.67663288116","1725.19538212","2.32336711884","1727.55205822","1728.79514623","1728.87026119","1731.87322211","0","1731.88695812","1739.88211823",""
"sujeto_0031826","1","2","13","45","1740.02195811","direct","1","1","3","¿Qué promedio de edad 
vive una jirafa? ","25","20","","0","0","1","competitive","right","1.97455310822","1741.99658704","3.02544689178","1745.18170714","2.7406899929","1747.92245507","3.2593100071","1751.23048806","1752.99200702","1753.06630921","1756.06926823","0","1756.08344913","1762.034024",""
"sujeto_0031826","1","2","14","46","1762.20196819","inverse","1","1","2","¿Cuántos grandes lagos hay?","7","5","","0","0","1","individual","right","2.94344997406","1765.14548302","2.05655002594","1767.35642815","2.94596409798","1770.30243301","3.05403590202","1773.39263606","1774.68393421","1774.72803211","1777.73101616","0","1777.74517703","1785.56398606",""
"sujeto_0031826","1","2","15","47","1785.71340322","direct","3","1","2","¿Cuántos discos de estudio
 grabó Johhny Cash? ","54","43","","1","1","0","individual","right","2.54301309586","1788.25648117","2.45698690414","1790.87018204","4.19418692589","1795.06442809","1.80581307411","1796.90505409","1798.18365812","1798.22344303","1801.22636318","1","1801.24036121","1807.89127016",""
"sujeto_0031826","1","2","16","48","1808.02519822","inverse","4","1","1","¿Cuántos barrios tiene
 Montevideo? ","71","62","","0","0","1","individual","left","1.26929497719","1809.29456019","3.73070502281","1813.16428113","2.51216077805","1815.67648602","3.48783922195","1819.19812417","1820.2052002","1820.25074506","1823.25372219","0","1823.26761007","1828.72962999",""
"sujeto_0031826","1","2","17","49","1828.86944008","direct","3","1","3","¿Qué edad tiene Homero Simpson?","36","42","","0","0","1","competitive","right","2.45901179314","1831.32852507","2.54098820686","1834.02645111","2.89903879166","1836.92553616","3.10096120834","1840.06068516","1841.43671918","1841.51146412","1844.51199508","0","1844.52919102","1848.91793919",""
"sujeto_0031826","1","2","18","50","1849.06413913","inverse","4","1","2","¿Cuántos países con monarquía 
hay en europa actualmente? ","6","10","","1","1","1","competitive","left","3.03634595871","1852.10055017","1.96365404129","1854.24793506","3.99758791924","1858.24558806","2.00241208076","1860.28757","1861.72650123","1861.80612302","1864.80910015","1","1864.82284713","1870.97966409",""
"sujeto_0031826","1","2","19","51","1871.12505913","direct","2","1","3","¿Cuántos capítulos de
 Friends existen? ","236","228","","1","1","1","competitive","right","2.3934211731","1873.51856112","2.6065788269","1876.28143907","3.44309902191","1879.72460008","2.55690097809","1882.33260202","1883.63818121","1883.71693301","1886.71992707","1","1886.73371911","1889.10933304",""
"sujeto_0031826","1","2","20","52","1889.28652906","inverse","1","1","3","¿Cuántas óperas compuso Mozart? ","27","22","","1","1","1","competitive","right","1.603992939","1890.89058518","3.396007061","1894.43938708","3.32508397102","1897.76453114","2.67491602898","1900.49070621","1901.7828362","1901.85947704","1904.86244702","1","1904.8766942","1912.18815207",""
"sujeto_0031826","1","2","21","53","1912.34436917","direct","4","1","3","¿Cuántos mundiales de fútbol 
femenino ha realizado FIFA? ","9","7","","1","1","1","competitive","right","2.3841509819","1914.7285862","2.6158490181","1917.51808","3.2413880825","1920.75952911","2.7586119175","1923.57054901","1924.81423521","1924.88782406","1927.89082003","1","1927.90591502","1934.00836706",""
"sujeto_0031826","1","2","22","54","1934.14057112","inverse","3","1","2","¿Cuál es la temperatura 
media anual en Montevideo? ","17.5","16.3","","0","0","1","competitive","right","1.72290587425","1935.86354804","3.27709412575","1939.31268001","3.53779006004","1942.85051012","2.46220993996","1945.36498809","1947.30356312","1947.38265705","1950.38564205","0","1950.39996099","1956.96947908",""
"sujeto_0031826","1","2","23","55","1957.11910319","direct","2","1","2","¿En qué año se estrenó el
 videojuego The Sims? ","2000","2002","","0","0","0","competitive","left","1.69942593575","1958.81859517","3.30057406425","1962.29120207","3.79826998711","1966.08953118","2.20173001289","1968.343503","1970.20550418","1970.27838707","1973.28133702","0","1973.2954371","1980.68799114",""
"sujeto_0031826","1","2","24","56","1980.83055806","inverse","2","1","1","¿Cuál es la canción con 
mas covers? ","Yesterday","Stand by me","","0","0","0","individual","left","3.15897989273","1983.989604","1.84102010727","1985.98729014","3.1892490387","1989.17658019","2.8107509613","1992.03828621","1993.43685317","1993.47322416","1996.47599411","0","1996.49083805","2000.66166711",""
"sujeto_0031826","1","2","25","57","2000.80952001","direct","1","1","4","¿Cuánto duró la guerra
 de los 100 años?","116","123","","0","0","0","competitive","right","1.61800789833","2002.42759109","3.38199210167","2005.96438503","3.69515299797","2009.65958309","2.30484700203","2011.99740005","2013.47825003","2013.56573105","2016.56872106","0","2016.58193016","2018.90171719",""
"sujeto_0031826","1","2","26","58","2019.08421111","inverse","4","1","4","¿Qué color tiene la  bandera de Brasil?","Amarillo","Naranja","left","0","0","1","individual","left","1.7173178196","2020.80159807","3.2826821804","2024.25816822","3.38530802727","2027.64351821","2.61469197273","2030.3085742","2031.87510109","2031.92723608","2034.92796707","1","2034.94425607","2037.97705007",""
"sujeto_0031826","1","2","27","59","2038.11208415","direct","4","1","3","¿Qué carabela de 
Colon no volvió del viaje?","Santa María","La pinta","","0","0","1","competitive","right","1.75341796875","2039.86553812","3.24658203125","2043.28437209","3.5111849308","2046.79560304","2.4888150692","2049.33401418","2050.82398915","2050.90158701","2053.90398622","0","2053.91917515","2056.018646",""
"sujeto_0031826","1","2","28","60","2056.15424919","inverse","4","1","4","¿Cuántos huesos tiene
 un adulto humano?","217","206","","0","0","1","competitive","left","1.43531012535","2057.58962321","3.56468987465","2061.31010604","2.71949791908","2064.02966213","3.28050208092","2067.3607192","2068.63173699","2068.711689","2071.71466613","0","2071.72972322","2079.56740117",""
"sujeto_0031826","1","2","29","61","2079.69732404","direct","1","1","1","¿Qué país africano fue 
fundado por esclavos?","Liberia","Chad","","0","0","0","competitive","right","3.99525594711","2083.69264722","1.00474405289","2084.85616207","4.21040391922","2089.06662917","1.78959608078","2090.89040613","2092.88203216","2092.95772409","2095.96070719","0","2095.97506022","2103.96460605",""
"sujeto_0031826","1","2","30","62","2104.11374807","inverse","4","1","2","¿A cuánto asciende la cima
 del monte Everest?","7.990 mts","8.848 mts","","0","0","1","individual","left","2.70285391808","2106.81667709","2.29714608192","2109.28376007","4.84786200523","2114.13169003","1.15213799477","2115.33636904","2116.52123904","2116.57049513","2119.573457","0","2119.58778119","2126.77180815",""
"sujeto_0031826","1","2","31","63","2126.92226911","direct","4","1","1","¿Cuál es el país mas chico?","Sealand","Luxemburgo","","1","1","1","individual","right","3.49534296989","2130.41765714","1.50465703011","2132.0800221","3.15757107735","2135.23763204","2.84242892265","2138.13085699","2139.99432111","2140.03247404","2143.035429","1","2143.0494802","2146.17174506",""
"sujeto_0031826","1","2","32","64","2146.31839418","inverse","2","1","4","¿Cuántas pirámides hay en Egipto?","10000","11000","","1","1","1","competitive","left","3.62318015099","2149.9416461","1.37681984901","2151.48709607","3.20651578903","2154.69365716","2.79348421097","2157.54079103","2158.57439804","2158.65858102","2161.65994406","1","2161.67620206","2166.78396201",""
"sujeto_0031826","1","3","1","65","2291.32720017","direct","2","1","2","¿Cuál es el quinto país con 
mas extensión?","Canadá","Brasil","","1","1","0","individual","left","3.2634780407","2294.59074116","1.7365219593","2296.51264405","3.51105594635","2300.02374005","2.48894405365","2302.5493691","2303.88264108","2303.9336822","2306.93663502","1","2306.95057917","2314.67596722","2166.79883504"
"sujeto_0031826","1","3","2","66","2314.81882405","inverse","1","1","2","¿Qué rasgo facial no tiene
 la Mona Lisa?","Cejas","Pómulos","","0","0","1","competitive","right","1.51780080795","2316.33669019","3.48219919205","2319.97318411","4.97949719429","2324.95274115","1.02050280571","2326.02641606","2327.77594113","2327.8594172","2330.86240315","0","2330.87762403","2337.14895606",""
"sujeto_0031826","1","3","3","67","2337.29628301","direct","4","1","3","¿Cuál es el país con 
mayor población?","Esados Unidos","China","right","0","0","1","competitive","right","2.32446312904","2339.62085319","2.67553687096","2342.48817301","2.90152812004","2345.38974309","3.09847187996","2348.538625","2350.18460202","2350.25652504","2353.25950408","1","2353.27454209","2356.64187813",""
"sujeto_0031826","1","3","4","68","2356.77675819","inverse","1","1","1","La palabra dinosaurio significa","Lagarto Terrible","Lagarto Dragón","","1","1","0","individual","left","1.79802513123","2358.57482719","3.20197486877","2361.93118501","3.1435739994","2365.0748291","2.8564260006","2367.98202515","2369.15195823","2369.20010304","2372.20307803","1","2372.21707201","2375.0789001",""
"sujeto_0031826","1","3","5","69","2375.21932602","direct","2","1","3","¿Qué es el membrillero?","Arbol","Arbusto","","0","0","0","competitive","left","1.51842689514","2376.73780322","3.48157310486","2380.37231922","3.08943009377","2383.46181607","2.91056990623","2386.42349219","2388.37759209","2388.45872808","2391.46169806","0","2391.4767561","2397.94078302",""
"sujeto_0031826","1","3","6","70","2398.07784104","inverse","3","1","3","¿Alrededor de qué planeta orbita 
el satélite Europa?","Jupiter","Saturno","","1","1","1","individual","right","3.56492686272","2401.64283514","1.43507313728","2403.23611712","4.52167391777","2407.75785303","1.47832608223","2409.28513217","2410.82991815","2410.86946011","2413.87199402","1","2413.88723421","2416.09240913",""
"sujeto_0031826","1","3","7","71","2416.23887515","direct","3","1","1","¿Donde fue el mundial de 
fútbol de 1954?","Suiza","Suecia","","1","1","1","competitive","right","3.08389306068","2419.3228302","1.91610693932","2421.39552116","4.15122103691","2425.54680514","1.84877896309","2427.44645715","2428.69905615","2428.78110909","2431.78400302","1","2431.79825616","2435.7079761",""
"sujeto_0031826","1","3","8","72","2435.83293915","inverse","1","1","4","¿Cuál de los 7 enanitos
no tenía barba?","Bashful","Mudito","","1","1","0","competitive","left","1.67785620689","2437.5108602","3.32214379311","2440.98888206","4.90186786652","2445.89079499","1.09813213348","2447.04047012","2448.62058401","2448.69074702","2451.69371104","1","2451.70875907","2456.63784909",""
"sujeto_0031826","1","3","9","73","2456.77722406","direct","3","1","2","¿Cual red social es
mas utilizada mundialmente?","Instagram","Facebook","","1","1","0","competitive","left","3.17953085899","2459.95682216","1.82046914101","2461.94904613","4.03071284294","2465.97979903","1.96928715706","2468.00019908","2469.91759801","2470.00073719","2473.0036931","1","2473.01890802","2475.95340204",""
"sujeto_0031826","1","3","10","74","2476.10342002","inverse","4","1","1","¿Cuándo se inició la copa
 América de fútbol?","1916","1923","","1","1","1","individual","left","3.25233387947","2479.3558042","1.74766612053","2481.25952315","3.83830499649","2485.09789014","2.16169500351","2487.31055307","2489.20792603","2489.24493623","2492.24788117","1","2492.26312804","2494.91925311",""
"sujeto_0031826","1","3","11","75","2495.06504107","direct","3","1","4","¿Cuántos presidentes de EEUU
han muerto asesinados?","3","4","","0","0","1","competitive","right","3.33872580528","2498.40380907","1.66127419472","2500.21988702","4.5269370079","2504.74686503","1.4730629921","2506.25444913","2507.73837709","2507.82192922","2510.82398701","0","2510.83891201","2514.48301411",""
"sujeto_0031826","1","3","12","76","2514.67420912","inverse","2","1","4","¿Cuántas veces participó EEUU
 en la copa América?","4","5","","0","0","1","competitive","right","2.2106461525","2516.88490415","2.7893538475","2519.83029699","5.37949490547","2525.20985222","0.620505094528","2525.88087106","2527.32495809","2527.39772916","2530.40068913","0","2530.41491604","2536.53210402",""
"sujeto_0031826","1","3","13","77","2536.66618109","direct","4","1","1","¿Cuál de estos países 
no formaba la URSS?","Azeribayán","Afganistán","","0","0","1","individual","left","3.44063186646","2540.106884","1.55936813354","2541.82492304","3.57293987274","2545.39792418","2.42706012726","2547.87523317","2549.18798423","2549.22624612","2552.22922015","0","2552.24343801","2560.22557807",""
"sujeto_0031826","1","3","14","78","2560.37857914","inverse","1","1","1","¿En qué año se inauguró
 el teatro Solís?","1867","1856","","0","0","0","individual","left","1.98827815056","2562.36691999","3.01172184944","2565.53526115","3.67561602592","2569.21094108","2.32438397408","2571.57100105","2572.6273241","2572.67194104","2575.67488718","0","2575.68935013","2582.33716106",""
"sujeto_0031826","1","3","15","79","2582.47348022","direct","1","1","4","¿A qué velocidad vuela 
el avión más rápido?","3529","3874","","0","0","0","competitive","left","2.48832607269","2584.96184921","2.51167392731","2587.6630702","4.18579506874","2591.84890699","1.81420493126","2593.71526122","2595.47075009","2595.549824","2598.55277705","0","2598.56781721","2600.67810106",""
"sujeto_0031826","1","3","16","80","2600.81919408","inverse","3","1","4","¿De qué año es la primer 
película cinematográfica?","1897","1888","","0","0","0","individual","left","3.745677948","2604.56493711","1.254322052","2605.973979","4.07484197617","2610.04888201","1.92515802383","2612.0258441","2613.1588192","2613.20923114","2616.21220803","0","2616.22626209","2621.63604116",""
"sujeto_0031826","1","3","17","81","2621.77783799","direct","2","1","3","¿Cuántos países 
tiene nuestro planeta?","191","194","","1","1","1","competitive","right","2.36800909042","2624.145895","2.63199090958","2626.9667542","3.68610405922","2630.6529212","2.31389594078","2633.01905823","2634.37628603","2634.45380712","2637.45596409","1","2637.47119308","2640.70794606",""
"sujeto_0031826","1","3","18","82","2640.85623121","inverse","2","1","2","¿Cuántos habitantes
 tiene Buenos Aires?","2.9000.000","3650000","","0","0","0","competitive","left","2.69461607933","2643.55091405","2.30538392067","2646.01050806","3.22129607201","2649.23189402","2.77870392799","2652.062572","2653.45977521","2653.53178215","2656.53471804","0","2656.5473671","2662.37674022",""
"sujeto_0031826","1","3","19","83","2662.53273702","direct","2","1","1","¿Cuántos kilos forman una tonelada?","1000","1500","left","1","1","1","individual","left","3.00917387009","2665.54201221","1.99082612991","2667.70542121","2.77750110626","2670.48298407","3.22249889374","2673.75676703","2675.64394212","2675.69127202","2678.69195318","1","2678.70887303","2684.66628504",""
"sujeto_0031826","1","3","20","84","2684.84401917","inverse","4","1","4","¿Cuántos estados tiene la 
República del Perú? ","24","23","","0","0","1","competitive","right","4.50980806351","2689.35388803","0.490191936493","2689.99502206","2.8188829422","2692.8139472","3.1811170578","2696.03460503","2697.05674314","2697.13630509","2700.1392622","0","2700.15318704","2705.09849715",""
"sujeto_0031826","1","3","21","85","2705.2380662","direct","3","1","3","¿En qué año nació Cristóbal Colón? ","1451","1447","","0","0","1","competitive","left","2.74383807182","2707.98197818","2.25616192818","2710.39341617","3.66546106339","2714.05893707","2.33453893661","2716.42860508","2718.27448416","2718.36308503","2721.36606503","0","2721.38026714","2725.60798502",""
"sujeto_0031826","1","3","22","86","2725.74897504","inverse","4","1","4","¿Cuánto mide la 
Montaña Aconcagua? ","6234","6962","","0","0","1","competitive","right","2.38093304634","2728.12995505","2.61906695366","2730.9368062","3.53106307983","2734.46793604","2.46893692017","2736.97264409","2738.261971","2738.34112811","2741.34412217","0","2741.35733509","2748.54097509",""
"sujeto_0031826","1","3","23","87","2748.6763792","direct","2","1","4","¿Cuánto mide el punto
 más profundo del océano? ","12508","11003","","0","0","1","competitive","right","1.89860391617","2750.57503104","3.10139608383","2753.86552215","3.94943404198","2757.8149991","2.05056595802","2759.91593409","2761.16744018","2761.25045919","2764.2534411","0","2764.26770115","2768.47396517",""
"sujeto_0031826","1","3","24","88","2768.63593507","inverse","1","1","3","¿Cuántos álbumes ha publicado 
el cantante Jaime Roos? ","41","34","","0","0","1","individual","right","1.91305494308","2770.54906607","3.08694505692","2773.80975318","3.19819808006","2777.00801206","2.80180191994","2779.85939717","2781.34922719","2781.39394307","2784.39688921","0","2784.41108823","2790.60396814",""
"sujeto_0031826","1","3","25","89","2790.76313615","direct","4","1","3","¿En qué año nació el 
ex-presidente Jorge Battle? ","1921","1927","","1","1","1","individual","left","2.54981303215","2793.312994","2.45018696785","2795.93708706","4.6288588047","2800.56598902","1.3711411953","2801.97271204","2803.70338821","2803.74092913","2806.74384212","1","2806.757972","2810.24398112",""
"sujeto_0031826","1","3","26","90","2810.39284611","inverse","1","1","3","¿Cuántas presidencias 
constitucionales  hubo en Uruguay? ","41","42","","0","0","1","competitive","left","1.87217116356","2812.2651391","3.12782883644","2815.58095002","4.07203793526","2819.65305519","1.92796206474","2821.63327312","2822.83701015","2822.91799521","2825.92098212","0","2825.93411303","2831.71599412",""
"sujeto_0031826","1","3","27","91","2831.85283113","direct","1","1","2","¿Quién escribió mas sinfonías?","Mozart","Haydn","","1","1","0","individual","right","3.60215711594","2835.45503211","1.39784288406","2836.99303317","3.23099112511","2840.224087","2.76900887489","2843.02701116","2844.24449921","2844.29548216","2847.29845214","1","2847.31253219","2851.06262016",""
"sujeto_0031826","1","3","28","92","2851.21574807","inverse","4","1","2","¿En qué año nació Michael Jackson?","1958","1953","","1","1","1","individual","left","4.46224999428","2855.67806101","0.537750005722","2856.38537621","3.23260307312","2859.61804318","2.76739692688","2862.4363122","2864.41452312","2864.45419216","2867.45711923","1","2867.47131801","2873.33364105",""
"sujeto_0031826","1","3","29","93","2873.47345114","direct","3","1","2","¿En qué año entró en vigencia 
la ley antitabaco en Uruguay?","2005","2006","","1","1","1","competitive","left","3.47352409363","2876.94704223","1.52647590637","2878.63035917","4.56068205833","2883.19110322","1.43931794167","2884.66600204","2886.260746","2886.3334012","2889.33597207","1","2889.35029316","2894.68429518",""
"sujeto_0031826","1","3","30","94","2894.81842518","inverse","3","1","1","¿Cuándo se subió el 
primer video a youtube?","2004","2005","","0","0","1","individual","left","3.11056399345","2897.92903209","1.88943600655","2899.97512722","4.13887906075","2904.11407018","1.86112093925","2906.02632904","2907.3319602","2907.37721419","2910.3802011","0","2910.39427304","2918.14983606",""
"sujeto_0031826","1","3","31","95","2918.27904916","direct","2","1","1","¿Cuántos habitantes tiene India?","1200 millones","1300 millones","","0","0","0","individual","right","2.54496908188","2920.8240602","2.45503091812","2923.43632221","3.63768100739","2927.07407117","2.36231899261","2929.48850012","2931.45813203","2931.50622702","2934.50915909","0","2934.52412319","2940.56794715",""
"sujeto_0031826","1","3","32","96","2940.74198604","inverse","4","1","2","¿A qué edad murió Bob Marley?","36","37","","0","0","1","competitive","left","3.23700499535","2943.97903514","1.76299500465","2945.89900112","2.87398219109","2948.77302122","3.12601780891","2951.94969201","2953.84755802","2953.9345541","2956.93753815","0","2956.9515481","2960.05399609",""
"sujeto_0031826","1","4","1","97","3096.62812805","direct","2","1","1","¿Cuantos años dirigió la selección 
uruguaya Tabarez?","15 años","13 años","","0","0","0","individual","left","3.08997297287","3099.71814799","1.91002702713","3101.79539204","4.00473499298","3105.80016804","1.99526500702","3107.84673715","3109.03791118","3109.0809741","3112.08392715","0","3112.098279","3119.17032409","2960.06849217"
"sujeto_0031826","1","4","2","98","3119.31681514","inverse","4","1","1","¿Cuantas teclas tiene un teclado 
de computadora generalmente? ","Entre 99 y 108","Entre 109 y 113","","1","1","1","individual","left","2.73985004425","3122.05672503","2.26014995575","3124.48842406","5.68569779396","3130.17416215","0.314302206039","3130.54298902","3131.54573321","3131.59290814","3134.59591603","1","3134.60983109","3136.97998405",""
"sujeto_0031826","1","4","3","99","3137.11215615","direct","1","1","1","¿Cuál Departamento tiene
 mayor superficie?","Río Negro","Soriano","","0","0","0","competitive","right","4.29498910904","3141.40718818","0.705010890961","3142.26402712","2.99706506729","3145.26113701","3.00293493271","3148.30082011","3150.01429701","3150.08567405","3153.08865118","0","3153.10278416","3157.42887807",""
"sujeto_0031826","1","4","4","100","3157.57134008","inverse","3","1","2","¿Cuál es el apellido de las 
hermanastras  de  cenicienta?","Tremaine","Truman","","0","0","1","competitive","left","4.13271093369","3161.7041142","0.867289066315","3162.72707605","4.28706789017","3167.01420617","1.71293210983","3168.77843499","3170.64799404","3170.72898817","3173.73196602","0","3173.74713802","3176.44308114",""
"sujeto_0031826","1","4","5","101","3176.58201814","direct","4","1","4","¿Cuál película ganó un
 Oscar a mejor película?","Alto Impacto","Cache","","0","0","1","individual","left","3.10811805725","3179.69018006","1.89188194275","3181.75290418","3.74726510048","3185.50023723","2.25273489952","3187.80459404","3188.92393804","3188.97270608","3191.97568703","0","3191.98974013","3194.25434422",""
"sujeto_0031826","1","4","6","102","3194.40845013","inverse","1","1","3","¿A cuántos centímetros
equivale la medida pié?","25","30","","0","0","1","competitive","right","2.08960795403","3196.49811721","2.91039204597","3199.56038022","3.81675696373","3203.37719822","2.18324303627","3205.61242104","3206.6519711","3206.73075104","3209.73202014","0","3209.74729109","3215.14825606",""
"sujeto_0031826","1","4","7","103","3215.2818532","direct","2","1","2","¿Qué departamento es mas grande?","Cerro Largo","Paysandú","","0","0","0","individual","left","2.83533596992","3218.11723304","2.16466403008","3220.43995714","2.45722198486","3222.89723921","3.54277801514","3226.49052811","3228.09030104","3228.14328623","3231.14400816","0","3231.16024423","3235.27022815",""
"sujeto_0031826","1","4","8","104","3235.41117215","inverse","2","1","3","¿Quién pintó la Mona Lisa?","Picasso","Da Vinci","right","0","0","1","individual","right","4.25497102737","3239.66621423","0.745028972626","3240.56621909","2.46793985367","3243.0342021","3.53206014633","3246.6179471","3248.22378206","3248.26993012","3251.27193618","1","3251.28751516","3253.44984007",""
"sujeto_0031826","1","4","9","105","3253.58871007","direct","4","1","3","¿Cuántos litros hay en un galon?","3.54","3.78","","1","1","1","competitive","right","3.55845284462","3257.14722919","1.44154715538","3258.74235702","2.59780597687","3261.34022403","3.40219402313","3264.77701116","3266.29487419","3266.37929916","3269.38228607","1","3269.39647222","3275.18882012",""
"sujeto_0031826","1","4","10","106","3275.34767103","inverse","4","1","1","¿Cuántas teclas tiene
 un piano moderno?","80","88","","0","0","1","individual","left","3.30349206924","3278.65120602","1.69650793076","3280.53709817","4.33708500862","3284.87424707","1.66291499138","3286.58950019","3287.59798813","3287.63989711","3290.64287114","0","3290.65706205","3297.45482516",""
"sujeto_0031826","1","4","11","107","3297.59251714","direct","4","1","3","¿Cuántos países hay en África?","54","62","","0","0","1","individual","right","3.18070721626","3300.77330017","1.81929278374","3302.74929404","2.71690702438","3305.4662621","3.28309297562","3308.78357601","3310.47410321","3310.51857615","3313.52154207","0","3313.53584003","3321.34062314",""
"sujeto_0031826","1","4","12","108","3321.50412917","inverse","1","1","3","¿En qué siglo se crearon
 las primeras pistolas?","XV","XIII","","1","1","1","competitive","right","2.75409984589","3324.25829601","2.24590015411","3326.6616931","3.76349401474","3330.42525005","2.23650598526","3332.69626522","3334.64416003","3334.7145822","3337.71755505","1","3337.73189807","3340.96500516",""
"sujeto_0031826","1","4","13","109","3341.1002121","direct","3","1","4","¿En qué año se estrenó 
la serie friends?","1994","1995","","0","0","1","competitive","left","1.94508385658","3343.04537106","3.05491614342","3346.27004004","3.85414385796","3350.12422419","2.14585614204","3352.32217622","3354.19751501","3354.272614","3357.27559519","0","3357.29081917","3362.29689407",""
"sujeto_0031826","1","4","14","110","3362.44265103","inverse","3","1","4","¿En qué año nació Hitler?","1889","1887","","0","0","1","competitive","right","1.99364590645","3364.43634415","3.00635409355","3367.5984571","3.69182109833","3371.2903161","2.30817890167","3373.63352013","3374.74788618","3374.81828713","3377.82128811","0","3377.835325","3382.86232519",""
"sujeto_0031826","1","4","15","111","3383.00367618","direct","1","1","4","¿Cuánto pesa un elefante Africano?","6000 kilos","5400 kilos","","0","0","0","competitive","left","1.54055118561","3384.54429102","3.45944881439","3388.15984416","2.83739304543","3390.99727917","3.16260695457","3394.20967317","3395.56559205","3395.64578199","3398.64804912","0","3398.66216516","3405.36922002",""
"sujeto_0031826","1","4","16","112","3405.54791617","inverse","1","1","2","¿Qué porcentaje de 
la población es zurda?","10%","7%","","1","1","0","individual","right","1.31130313873","3406.85926604","3.68869686127","3410.7221272","3.60411310196","3414.32628703","2.39588689804","3416.77211714","3418.01522112","3418.056422","3421.05939507","1","3421.07405305","3427.053792",""
"sujeto_0031826","1","4","17","113","3427.19274807","direct","1","1","2","¿En qué año se estrenó
Volver al futuro?","1984","1985","","0","0","1","individual","right","1.83346104622","3429.02625012","3.16653895378","3432.36519718","3.66813397408","3436.0333941","2.33186602592","3438.41606903","3439.97789502","3440.01680803","3443.01977301","0","3443.03497219","3450.12643218",""
"sujeto_0031826","1","4","18","114","3450.2694211","inverse","3","1","2","¿Cuántos jugadores hay en un 
equipo de baseball?","9","8","","1","1","0","individual","left","2.64985895157","3452.91932511","2.35014104843","3455.42649913","3.44281077385","3458.86937213","2.55718922615","3461.47927213","3463.09355712","3463.13021421","3466.13315511","1","3466.14709115","3471.12428403",""
"sujeto_0031826","1","4","19","115","3471.26645613","direct","2","1","1","¿Cuántos Oscar ganó
 la película titanic?","13","11","","1","1","1","individual","right","1.79083299637","3473.05735421","3.20916700363","3476.42276907","4.75356793404","3481.17640114","1.24643206596","3482.47353506","3483.77557302","3483.82432604","3486.82725716","1","3486.84141922","3491.44408107",""
"sujeto_0031826","1","4","20","116","3491.59299707","inverse","4","1","4","¿En qué año comenzó
la segunda guerra mundial?","1939","1976","left","0","0","1","competitive","left","3.17629098892","3494.7693522","1.82370901108","3496.76577711","3.83851408958","3500.60435104","2.16148591042","3502.81648707","3504.61635017","3504.70172501","3507.70465207","1","3507.71874499","3511.70590711",""
"sujeto_0031826","1","4","21","117","3511.83678412","direct","2","1","4","¿Cuántos biomas hay en Uruguay?","5","4","","0","0","1","competitive","right","1.35157990456","3513.18844318","3.64842009544","3516.97692919","2.66335511208","3519.64032912","3.33664488792","3523.01004505","3524.80738616","3524.87820005","3527.88116407","0","3527.89616323","3534.14557409",""
"sujeto_0031826","1","4","22","118","3534.28071809","inverse","2","1","3","¿Cuándo murió Pablo Escobar?","1993","1997","","1","1","1","individual","right","1.90670084953","3536.18748713","3.09329915047","3539.43843102","3.02787399292","3542.46634507","2.97212600708","3545.47168517","3547.25447011","3547.29063702","3550.29196811","1","3550.30709004","3556.01075506",""
"sujeto_0031826","1","4","23","119","3556.14215612","direct","1","1","4","¿Qué serie ha ganado mas premios?","Friends","Murphy Brown","","1","1","0","competitive","right","2.40619778633","3558.548419","2.59380221367","3561.31344199","4.18792200089","3565.50142503","1.81207799911","3567.36724615","3568.71961904","3568.80155802","3571.80394506","1","3571.81866503","3577.38023615",""
"sujeto_0031826","1","4","24","120","3577.520118","inverse","4","1","2","¿Cuántas fichas tiene el dominó?","26","28","","1","1","1","individual","right","1.59918212891","3579.11933923","3.40081787109","3582.67712402","3.1192510128","3585.796417","2.8807489872","3588.72759008","3589.78287506","3589.82896113","3592.83194208","1","3592.84619308","3598.08798814",""
"sujeto_0031826","1","4","25","121","3598.24789214","direct","2","1","4","¿Cuántos son los dientes de leche?","20","25","","0","0","1","individual","right","2.7865011692","3601.03447008","2.2134988308","3603.42015409","2.52322220802","3605.9434371","3.47677779198","3609.47168303","3611.18199801","3611.22296119","3614.22592711","0","3614.24003601","3616.38575816",""
"sujeto_0031826","1","4","26","122","3616.52527308","inverse","3","1","3","¿Cuántos gramos son una onza?","22","28","","0","0","1","competitive","left","3.45609593391","3619.98141217","1.54390406609","3621.68038416","2.71296310425","3624.39338923","3.28703689575","3627.71247911","3629.70729303","3629.78053308","3632.78347015","0","3632.79768014","3639.08793116",""
"sujeto_0031826","1","4","27","123","3639.23319507","direct","3","1","1","¿Cuándo salió el primer album
 de los Beatles?","1963","1962","","1","1","1","individual","left","2.28520584106","3641.51847219","2.71479415894","3644.40815806","3.02022385597","3647.42843914","2.97977614403","3650.45948911","3651.62312412","3651.66028309","3654.66214919","1","3654.67825007","3658.4502511",""
"sujeto_0031826","1","4","28","124","3658.63159108","inverse","3","1","3","¿Quién fundó la empresa apple?","Carlos Slim","Steve Jobs","","1","1","1","individual","right","2.12583780289","3660.75750113","2.87416219711","3663.80170012","2.50970315933","3666.31144309","3.49029684067","3669.85230803","3670.96700716","3671.00402308","3674.0069952","1","3674.02118611","3680.31905007",""
"sujeto_0031826","1","4","29","125","3680.47242618","direct","4","1","2","¿Cuántos municipios hay
 en Montevideo?","8","7","","1","1","1","individual","left","1.71096515656","3682.18345714","3.28903484344","3685.64542413","2.2859749794","3687.93144321","3.7140250206","3691.69655609","3693.61131001","3693.64817905","3696.65115404","1","3696.66612816","3698.74727011",""
"sujeto_0031826","1","4","30","126","3698.8846612","inverse","1","1","1","¿Cuántos kilómetros hay
 de Montevideo a Artigas?","632","599","","0","0","0","individual","right","1.43077611923","3700.31548619","3.56922388077","3704.03931808","1.79915380478","3705.83852315","4.20084619522","3710.08852816","3711.57169318","3711.62411809","3714.62707114","0","3714.64153719","3720.69199419",""
"sujeto_0031826","1","4","31","127","3720.82681513","direct","2","1","2","¿En qué año nació 
Leonardo Da Vinci?","1452","1511","","1","1","0","individual","left","1.79662799835","3722.62350702","3.20337200165","3725.99920416","3.30716300011","3729.30640721","2.69283699989","3732.05132318","3733.90396404","3733.95307207","3736.95607305","1","3736.97012115","3740.11648607",""
"sujeto_0031826","1","4","32","128","3740.27140021","inverse","3","1","1","¿A qué continente
 pertenece el país Gabón?","Africa","Oceanía","","0","0","1","individual","right","1.94606304169","3742.21753407","3.05393695831","3745.42752409","3.05096697807","3748.47855401","2.94903302193","3751.47827816","3753.28993011","3753.32973123","3756.33265901","0","3756.34674811","3761.58461809",""
