"code","nro_aplicante","nro_bloque","nro_trial_bloque","nro_trial_global","show_game_type","choice_order","rival","pay_individual","pay_competitive","question","answer_left_text","answer_right_text","correct_answer","outcome_individual","outcome_competitive","outcome_rival","game_type","answer","social_time","rt_game_type","feedback_delay","show_question","answer_time","rt_answer_global","feedback_delay_2","show_jitter","jitter_time","show_outcome","outcome_time","outcome_participant_real","show_final_jitter","second_jitter_time","inicio_descanso"
"sujeto_529b55b0","1","1","1","1","928.175816059","direct","3","1","4","¿Cuántos centímetros corresponden
al talle 36 del calzado?","23","24","","0","0","1","competitive","left","1.75997805595","929.935845137","3.24002194405","933.331532001","2.07037806511","935.401982069","3.92962193489","939.381458998","940.409732103","940.483821154","943.483990192","0","943.500790119","945.663328171",""
"sujeto_529b55b0","1","1","2","2","945.802529097","inverse","3","1","2","¿Cuántas metros mide la Intendencia
Municipal de Montevideo? ","84","78","","0","0","1","competitive","left","1.19446992874","946.997045994","3.80553007126","950.957280159","3.6167371273","954.574058056","2.3832628727","957.007723093","958.885763168","958.959724188","961.962699175","0","961.976944208","964.069710016",""
"sujeto_529b55b0","1","1","3","3","964.212311029","direct","1","1","3","¿Cuántas La Pasiva
 hay en uruguay?","15","11","","1","1","1","competitive","right","0.574815988541","964.787204027","4.42518401146","969.367179155","3.99991512299","973.367154121","2.00008487701","975.418023109","977.029707193","977.102571011","980.105552197","1","980.119760036","984.398095131",""
"sujeto_529b55b0","1","1","4","4","984.538101196","inverse","3","1","3","¿De que color es la camiseta de uruguay?","blanca","celeste","right","1","1","1","competitive","right","0.902173042297","985.440328121","4.0978269577","989.708464146","2.29182505608","992.00033021","3.70817494392","995.760902166","996.965643167","997.046497107","1000.04946613","1","1000.06349802","1003.51741099",""
"sujeto_529b55b0","1","1","5","5","1003.64864421","direct","2","1","1","¿Cuánto metros mide
la torre Eiffel?","333","324","","1","1","1","competitive","right","0.933783054352","1004.58247304","4.06621694565","1008.80459213","3.56090307236","1012.36553502","2.43909692764","1014.83822203","1016.35957718","1016.43912315","1019.44209599","1","1019.45725298","1026.49200916",""
"sujeto_529b55b0","1","1","6","6","1026.65836215","inverse","3","1","4","¿Cuantas ciudades existen
 en todo el uruguay?","63","72","","0","0","1","competitive","left","0.757295131683","1027.41572905","4.24270486832","1031.81558919","3.42605614662","1035.24171615","2.57394385338","1037.85001898","1038.90483403","1038.98475099","1041.98773313","0","1042.0020442","1049.62801003",""
"sujeto_529b55b0","1","1","7","7","1049.78719807","direct","1","1","1","¿Cuantos estados tiene África?","52","54","","1","1","0","competitive","left","0.555644035339","1050.34292507","4.44435596466","1054.94451499","3.92229700089","1058.86685801","2.07770299911","1060.99567914","1062.85968018","1062.93018413","1065.93315411","1","1065.94735098","1071.70837617",""
"sujeto_529b55b0","1","1","8","8","1071.883008","inverse","4","1","4","¿En qué año nació
 Stephen Hawking?","1952","1942","","0","0","1","competitive","right","1.35590100288","1073.23895001","3.64409899712","1077.040272","3.6076798439","1080.64799404","2.3923201561","1083.09075212","1084.53505707","1084.60877419","1087.611763","0","1087.62675309","1093.72611117",""
"sujeto_529b55b0","1","1","9","9","1093.86039209","direct","2","1","3","¿Cuánto años tenía Artigas
 cuando se fue a Paraguay?","56","57","","1","1","1","competitive","right","0.860790967941","1094.72125602","4.13920903206","1099.0135591","3.946641922","1102.96026516","2.053358078","1105.04934812","1106.59886408","1106.68372798","1109.68395305","1","1109.7013042","1115.74861002",""
"sujeto_529b55b0","1","1","10","10","1115.88628101","inverse","1","1","2","¿Cuantos milímetros 
mide una hoja A2?","420x592","420x594","","0","0","1","competitive","right","0.619078874588","1116.50540805","4.38092112541","1121.06313705","4.51914286613","1125.58234406","1.48085713387","1127.11398101","1128.6823802","1128.76544619","1131.76800299","0","1131.78239703","1138.85602212",""
"sujeto_529b55b0","1","1","11","11","1138.98440218","direct","3","1","3","¿Cuál es la menor temperatura 
registrada en Uruguay?","-5.4","-7.4","","0","0","1","competitive","left","1.12214899063","1140.106637","3.87785100937","1144.14142203","3.96203398705","1148.10352206","2.03796601295","1150.17530203","1151.85598612","1151.92713714","1154.93011212","0","1154.94455814","1158.6778512",""
"sujeto_529b55b0","1","1","12","12","1158.81275916","inverse","2","1","2","¿Cuantos años hace que 
se fundó facebook?","18","17","","0","0","0","competitive","left","0.755923986435","1159.568753","4.24407601357","1163.98426914","3.59143209457","1167.575773","2.40856790543","1170.03564405","1171.40838504","1171.48657012","1174.48956513","0","1174.50465417","1177.27929211",""
"sujeto_529b55b0","1","1","13","13","1177.40561008","direct","1","1","4","¿Cuál animal es más
 pesado en promedio?","Rinoceronte","Hipopotamo","","0","0","0","competitive","right","0.850181102753","1178.25585818","4.14981889725","1182.57664013","3.10211610794","1185.6787951","2.89788389206","1188.66235113","1189.74156904","1189.81421518","1192.81719303","0","1192.83039212","1196.671386",""
"sujeto_529b55b0","1","1","14","14","1196.79931808","inverse","1","1","2","¿Qué personaje de dragon ball 
murió más veces?","Chaoz","Krillin","","1","1","0","competitive","right","0.751649856567","1197.55101705","4.24835014343","1201.97128415","5.27473020554","1207.24606299","0.725269794464","1208.02383518","1209.481704","1209.55702615","1212.55999303","1","1212.57431412","1220.34724307",""
"sujeto_529b55b0","1","1","15","15","1220.50948715","direct","3","1","2","La universidad de oxford. 
existe desde:","1096","1249","","1","1","0","competitive","right","1.10461115837","1221.61414814","3.89538884163","1225.66727209","5.33288216591","1231.0002141","0.667117834091","1231.71892214","1232.76770806","1232.83632302","1235.83924508","1","1235.8535161","1242.54433298",""
"sujeto_529b55b0","1","1","16","16","1242.67151618","inverse","3","1","1","¿Qué escritor latino ganó antes
 el premio nobel?"," García Marquez","Neruda","","0","0","1","competitive","left","0.786566972733","1243.45819306","4.21343302727","1247.82814503","5.4742128849","1253.30240107","0.525787115097","1253.863451","1255.60341907","1255.681036","1258.68401217","0","1258.69911098","1262.1595881",""
"sujeto_529b55b0","1","1","17","17","1262.28306317","direct","4","1","3","¿Cuántos dientes tiene un
 tiburón blanco?","6000","3000","","0","0","1","competitive","left","0.836384057999","1263.11949205","4.163615942","1267.43378401","4.14569592476","1271.57954311","1.85430407524","1273.46974015","1274.50799108","1274.58751822","1277.59045911","0","1277.60480714","1282.41441917",""
"sujeto_529b55b0","1","1","18","18","1282.55652714","inverse","4","1","1","¿Cuánto mide el paralelo Ecuador?","40.000km","70.000km","","0","0","1","competitive","left","1.52506709099","1284.08166218","3.47493290901","1287.70060015","4.63004279137","1292.33070612","1.36995720863","1293.75080013","1295.70693302","1295.78482008","1298.78780699","0","1298.80314612","1302.40395117",""
"sujeto_529b55b0","1","1","19","19","1302.53836703","direct","4","1","2","¿Cuál fue el primer libro 
de Stephen King?","Carrie","The Stand","","1","1","1","competitive","right","1.27436089516","1303.81279612","3.72563910484","1307.69408321","3.79765796661","1311.49180317","2.20234203339","1313.74441314","1315.48798704","1315.56254506","1318.56555104","1","1318.57954216","1323.05394316",""
"sujeto_529b55b0","1","1","20","20","1323.19759202","inverse","2","1","3","¿Qué civilización practicaba
 la momificación?","Grecia","Egipto","right","0","0","1","competitive","right","0.495338916779","1323.6929791","4.50466108322","1328.34892607","4.48308801651","1332.83205819","1.51691198349","1334.40236306","1336.33995199","1336.4194231","1339.42237616","1","1339.43770409","1343.66650414",""
"sujeto_529b55b0","1","1","21","21","1343.80758905","direct","4","1","4","¿Cuántos millones de visitas
 recibe google por minuto?","3.0","4.5","","0","0","1","competitive","right","1.03752684593","1344.84516311","3.96247315407","1348.96517706","3.55991983414","1352.52513814","2.44008016586","1354.998914","1356.51379299","1356.58361316","1359.5840342","0","1359.60155511","1366.72399211",""
"sujeto_529b55b0","1","1","22","22","1366.86943698","inverse","1","1","3","La máquina de fax. se inventó en:","1843","1960","","0","0","1","competitive","right","0.826812028885","1367.69632101","4.17318797112","1372.02736616","4.04188704491","1376.06929207","1.95811295509","1378.0611372","1379.30318117","1379.37871218","1382.38168216","0","1382.39616418","1385.63196921",""
"sujeto_529b55b0","1","1","23","23","1385.79825211","direct","2","1","4","En la verdadera historia de los
 300 espartanos. habían:","300 soldados","4300 soldados","","1","1","1","competitive","right","1.02615094185","1386.824476","3.97384905815","1390.95370817","4.46569800377","1395.41947317","1.53430199623","1397.00451303","1398.26570106","1398.33867121","1401.34000802","1","1401.35612202","1405.15600705",""
"sujeto_529b55b0","1","1","24","24","1405.29152417","inverse","1","1","4","¿Cuántos milímetros crece
 el pelo por día?","0.4","0.04","","0","0","0","competitive","left","1.01598405838","1406.30757904","3.98401594162","1410.44598103","3.57057404518","1414.01659703","2.42942595482","1416.49716902","1418.25790405","1418.3311832","1421.33202505","0","1421.34844899","1428.08352613",""
"sujeto_529b55b0","1","1","25","25","1428.23306799","direct","4","1","1","¿Cuánto mide la baldosa gris 
clásica de Montevideo?","22x22 cm.","20x20 cm.","","1","1","1","competitive","left","0.850662946701","1429.08377719","4.1493370533","1433.40919805","4.66043591499","1438.0696702","1.33956408501","1439.46088219","1441.45615005","1441.54423618","1444.54721618","1","1444.56263804","1450.10545802",""
"sujeto_529b55b0","1","1","26","26","1450.248631","inverse","2","1","2","¿Cuántas películas de rápidos
 y furiosos hay?","10","11","","1","1","0","competitive","right","0.787189006805","1451.03593206","4.21281099319","1455.4198792","2.8909509182","1458.31087708","3.1090490818","1461.471035","1462.82799315","1462.90567207","1465.90867305","1","1465.92306709","1467.95778203",""
"sujeto_529b55b0","1","1","27","27","1468.09137201","direct","3","1","1","¿Cuántos masters 1000
 ganó Del Potro?","1","2","","1","1","1","competitive","right","1.45756602287","1469.54900599","3.54243397713","1473.24468899","4.18131709099","1477.42604613","1.81868290901","1479.28054619","1481.03514409","1481.11556721","1484.11855412","1","1484.13283205","1491.52918816",""
"sujeto_529b55b0","1","1","28","28","1491.66772318","inverse","2","1","4","¿Cuántos meses dura el 
embarazo de una leona?","3 meses","4 meses","","0","0","1","competitive","left","0.593446016312","1492.26122212","4.40655398369","1496.820678","4.24850511551","1501.06922603","1.75149488449","1502.87417817","1503.9852612","1504.05754018","1507.06052613","0","1507.07484102","1513.79731917",""
"sujeto_529b55b0","1","1","29","29","1513.97635913","direct","1","1","1","¿En qué año fue creado
 el sandwich?","1762","1653","","1","1","0","competitive","right","0.563974142075","1514.54039907","4.43602585793","1519.15339899","3.63696312904","1522.79040909","2.36303687096","1525.20479512","1526.80332613","1526.872895","1529.87589812","1","1529.89034319","1533.36000609",""
"sujeto_529b55b0","1","1","30","30","1533.4914031","inverse","4","1","2","El nombre de la moneda de Vietnam es:","Dinar","Dong","","0","0","1","competitive","left","0.595058917999","1534.08651114","4.404941082","1538.66439605","4.16817307472","1542.83261204","1.83182692528","1544.71555018","1546.14755321","1546.23269701","1549.23568916","0","1549.24994206","1555.41837621",""
"sujeto_529b55b0","1","1","31","31","1555.55237699","direct","2","1","1","¿cuantos aleteos puede dar 
un colibrí por segundo?","120","50","","0","0","0","competitive","left","0.854743003845","1556.40722609","4.14525699615","1560.72578502","4.66185688972","1565.38771415","1.33814311028","1566.75992012","1568.49232316","1568.57788205","1571.58085513","0","1571.59521103","1575.80401921",""
"sujeto_529b55b0","1","1","32","32","1575.97976017","inverse","4","1","3","¿Qué altura promedio tienen
 los hombres uruguayos?","1.73 m","1.72 m","","1","1","1","competitive","left","1.4120221138","1577.39182806","3.5879778862","1581.14850712","3.09328484535","1584.24185801","2.90671515465","1587.18288803","1588.44531918","1588.53463411","1591.53597808","1","1591.55230117","1596.02824712",""
"sujeto_529b55b0","1","2","1","33","1727.1757102","direct","1","1","1","¿En qué año nació 
el actor Bradd Pitt?","1967","1963","","1","1","1","competitive","right","1.15612101555","1728.33194613","3.84387898445","1732.33069611","3.8241918087","1736.15492702","2.1758081913","1738.38286901","1739.47874212","1739.55027318","1742.55324817","1","1742.56741714","1748.49497104","1596.0394721"
"sujeto_529b55b0","1","2","2","34","1748.61969113","inverse","2","1","1","¿Cual es el segundo 
monte más alto?","Kanchenjunga","K2","","1","1","1","competitive","right","0.851359128952","1749.47112417","4.14864087105","1753.7730341","2.96103000641","1756.73410511","3.03896999359","1759.80894804","1761.26131606","1761.34318614","1764.34612203","1","1764.36125612","1767.79110909",""
"sujeto_529b55b0","1","2","3","35","1767.92910099","direct","3","1","1","¿Cuándo finalizó la construcción
 del Palacio Legislativo?","1925","1917","","0","0","1","competitive","left","0.70107293129","1768.63022208","4.29892706871","1773.08652616","4.4395980835","1777.52618504","1.5604019165","1779.13784003","1780.779526","1780.85467601","1783.85767317","0","1783.8719542","1789.56951499",""
"sujeto_529b55b0","1","2","4","36","1789.70812201","inverse","3","1","3","¿Cuántos integrantes tenía
 en su inicio  el cuarteto de nos?","3","4","","1","1","1","competitive","right","0.893214941025","1790.60138512","4.10678505898","1794.8635602","3.13779401779","1798.00141716","2.86220598221","1800.91464615","1802.04774809","1802.13305998","1805.13605905","1","1805.15041804","1810.80023599",""
"sujeto_529b55b0","1","2","5","37","1810.93380618","direct","2","1","3","¿Qué valor tiene el número pi?","3.14","4.18","left","0","0","1","competitive","left","0.909693956375","1811.84357405","4.09030604362","1816.09172511","3.02876996994","1819.1205411","2.97123003006","1822.12630105","1823.58046603","1823.66118813","1826.66416216","1","1826.67790198","1833.59600115",""
"sujeto_529b55b0","1","2","6","38","1833.72961116","inverse","2","1","2","¿Cuál es la esperanza de vida
 en Uruguay?","75","77","","1","1","0","competitive","left","0.516033172607","1834.24571919","4.48396682739","1838.88549614","3.70214509964","1842.58768106","2.29785490036","1844.93777013","1846.59156704","1846.67216206","1849.67513704","1","1849.69013715","1856.15317202",""
"sujeto_529b55b0","1","2","7","39","1856.29237318","direct","1","1","2","¿Cuantos pisos tiene la torre 
de las comunicaciones?","26","32","","1","1","0","competitive","left","0.825380086899","1857.1178081","4.1746199131","1861.44720507","3.99059700966","1865.43784213","2.00940299034","1867.49801111","1869.32677698","1869.39803505","1872.40103316","1","1872.41540909","1874.55999899",""
"sujeto_529b55b0","1","2","8","40","1874.70240021","inverse","2","1","4","¿En qué país sudamericano 
no hay McDonalds?","Bolivia","Venezuela","","0","0","1","competitive","left","0.854542970657","1875.55703306","4.14545702934","1879.874547","3.62543797493","1883.50005007","2.37456202507","1885.90965009","1887.21902204","1887.29403806","1890.29700398","0","1890.31140304","1896.67112708",""
"sujeto_529b55b0","1","2","9","41","1896.81228209","direct","3","1","1","¿En qué año empieza
 la Edad Media?","476","512","","1","1","1","competitive","right","0.573136806488","1897.38552308","4.42686319351","1901.98673511","4.47734093666","1906.46414709","1.52265906334","1908.02159214","1909.42536402","1909.50731206","1912.51028514","1","1912.52243209","1915.51098013",""
"sujeto_529b55b0","1","2","10","42","1915.64039302","inverse","3","1","4","¿Hace cuántos años surgió
 el ser humano?","200mil","300mil","","0","0","0","competitive","left","0.74279499054","1916.38323998","4.25720500946","1920.79514813","4.07401609421","1924.86923504","1.92598390579","1926.84695315","1928.73202205","1928.81379318","1931.81678009","0","1931.83104706","1935.14001799",""
"sujeto_529b55b0","1","2","11","43","1935.28263402","direct","3","1","4","¿Cuántas cuadras tiene
 actualmente 18 de julio? ","36","33","","0","0","1","competitive","left","0.458724021912","1935.741431","4.54127597809","1940.43963909","3.93472099304","1944.37442517","2.06527900696","1946.49076605","1948.19304013","1948.27599812","1951.27899218","0","1951.29340911","1956.01969814",""
"sujeto_529b55b0","1","2","12","44","1956.16189814","inverse","1","1","4","¿Qué juego de equipo se 
considera mas rápido?","Lacrosse","Badminton","","0","0","0","competitive","left","0.803621053696","1956.96559","4.1963789463","1961.35131502","4.94516396523","1966.29655099","1.05483603477","1967.40338302","1968.64647007","1968.71994519","1971.72291112","0","1971.73711801","1979.73228312",""
"sujeto_529b55b0","1","2","13","45","1979.87238908","direct","1","1","3","¿Qué promedio de edad 
vive una jirafa? ","25","20","","0","0","1","competitive","left","0.594269037247","1980.46670508","4.40573096275","1985.02971816","3.68700814247","1988.71679306","2.31299185753","1991.08082414","1992.84235001","1992.91572618","1995.91868711","0","1995.93278599","2001.88849211",""
"sujeto_529b55b0","1","2","14","46","2002.03440714","inverse","1","1","2","¿Cuántos grandes lagos hay?","7","5","","0","0","1","competitive","left","0.802359104156","2002.83681202","4.19764089584","2007.18728399","3.06049203873","2010.24783802","2.93950796127","2013.22217107","2014.5143261","2014.59084201","2017.59197307","0","2017.60828114","2025.42969513",""
"sujeto_529b55b0","1","2","15","47","2025.559021","direct","3","1","2","¿Cuántos discos de estudio
 grabó Johhny Cash? ","54","43","","1","1","0","competitive","right","0.674993038177","2026.23406601","4.32500696182","2030.71933913","4.2716422081","2034.9910481","1.7283577919","2036.77197814","2038.05062914","2038.12247205","2041.12547016","1","2041.13985801","2047.78693414",""
"sujeto_529b55b0","1","2","16","48","2047.96178007","inverse","4","1","1","¿Cuántos barrios tiene
 Montevideo? ","71","62","","0","0","1","competitive","right","0.720359802246","2048.68221807","4.27964019775","2053.13173318","2.81338500977","2055.94518209","3.18661499023","2059.16572618","2060.17281008","2060.25132918","2063.25432611","0","2063.26769018","2068.72971416",""
"sujeto_529b55b0","1","2","17","49","2068.86967802","direct","3","1","3","¿Qué edad tiene Homero Simpson?","36","42","","0","0","1","competitive","right","0.710530996323","2069.5802772","4.28946900368","2074.02656698","2.5957159996","2076.62232614","3.4042840004","2080.06047702","2081.43598318","2081.52860713","2084.5315361","0","2084.54554319","2088.93200612",""
"sujeto_529b55b0","1","2","18","50","2089.06469321","inverse","4","1","2","¿Cuántos países con monarquía 
hay en europa actualmente? ","6","10","","1","1","1","competitive","left","0.630635023117","2089.6954","4.36936497688","2094.2182591","3.21608686447","2097.43440914","2.78391313553","2100.27022409","2101.70799208","2101.78885603","2104.79181409","1","2104.80598211","2110.96001005",""
"sujeto_529b55b0","1","2","19","51","2111.09198117","direct","2","1","3","¿Cuántos capítulos de
 Friends existen? ","236","228","","1","1","1","competitive","left","0.647611141205","2111.739645","4.3523888588","2116.24690604","3.6786429882","2119.92561007","2.3213570118","2122.2809751","2123.58648205","2123.66637921","2126.66800404","1","2126.68337417","2129.05899215",""
"sujeto_529b55b0","1","2","20","52","2129.18526411","inverse","1","1","3","¿Cuántas óperas compuso Mozart? ","27","22","","1","1","1","competitive","right","0.59840798378","2129.78375506","4.40159201622","2134.34101915","3.46068620682","2137.80177712","2.53931379318","2140.37566209","2141.66782498","2141.74365807","2144.74661517","1","2144.76089001","2152.07237101",""
"sujeto_529b55b0","1","2","21","53","2152.21262217","direct","4","1","3","¿Cuántos mundiales de fútbol 
femenino ha realizado FIFA? ","9","7","","1","1","1","competitive","left","0.743231058121","2152.95593905","4.25676894188","2157.38628507","3.20758390427","2160.59390903","2.79241609573","2163.43698406","2164.68061709","2164.75568604","2167.75868917","1","2167.77176905","2173.87424302",""
"sujeto_529b55b0","1","2","22","54","2174.00532818","inverse","3","1","2","¿Cuál es la temperatura 
media anual en Montevideo? ","17.5","16.3","","0","0","1","competitive","left","0.532610177994","2174.53801608","4.46738982201","2179.16139317","4.05460500717","2183.21606517","1.94539499283","2185.21442699","2187.1529851","2187.23208809","2190.23503304","0","2190.25010204","2196.81963706",""
"sujeto_529b55b0","1","2","23","55","2196.96876502","direct","2","1","2","¿En qué año se estrenó el
 videojuego The Sims? ","2000","2002","","0","0","0","competitive","right","0.574388980865","2197.54324317","4.42561101913","2202.124439","3.39367604256","2205.51818514","2.60632395744","2208.15926409","2210.02127218","2210.09430909","2213.097296","0","2213.11160016","2220.50003815",""
"sujeto_529b55b0","1","2","24","56","2220.62938499","inverse","2","1","1","¿Cuál es la canción con 
mas covers? ","Yesterday","Stand by me","","0","0","0","competitive","right","0.597975969315","2221.22747517","4.40202403069","2225.80506301","5.03626608849","2230.84140205","0.963733911514","2231.8543992","2233.25294113","2233.33901119","2236.34199715","0","2236.35639119","2240.52722502",""
"sujeto_529b55b0","1","2","25","57","2240.67477417","direct","1","1","4","¿Cuánto duró la guerra
 de los 100 años?","116","123","","0","0","0","competitive","left","2.27570295334","2242.95054698","2.72429704666","2245.83276105","2.68572902679","2248.51855803","3.31427097321","2251.88377309","2253.36394906","2253.43533921","2256.43601704","0","2256.45326614","2258.77304912",""
"sujeto_529b55b0","1","2","26","58","2258.92069221","inverse","4","1","4","¿Qué color tiene la  bandera de Brasil?","Amarillo","Naranja","left","0","0","1","competitive","left","0.502892971039","2259.42366505","4.49710702896","2264.08942699","3.0140619278","2267.10352612","2.9859380722","2270.14181304","2271.70820999","2271.79363418","2274.796561","1","2274.81069398","2277.84349203",""
"sujeto_529b55b0","1","2","27","59","2278.01269603","direct","4","1","3","¿Qué carabela de 
Colon no volvió del viaje?","Santa María","La pinta","","0","0","1","competitive","right","0.872032880783","2278.88480115","4.12796711922","2283.18602014","5.15074205399","2288.33683109","0.849257946014","2289.23321915","2290.72397399","2290.80044818","2293.80343413","0","2293.81783509","2295.91729903",""
"sujeto_529b55b0","1","2","28","60","2296.05290103","inverse","4","1","4","¿Cuántos huesos tiene
 un adulto humano?","217","206","","0","0","1","competitive","right","0.725967884064","2296.77891612","4.27403211594","2301.21135807","4.50461387634","2305.716012","1.49538612366","2307.2631042","2308.5341351","2308.61399698","2311.61695313","0","2311.63112307","2319.46883607",""
"sujeto_529b55b0","1","2","29","61","2319.61557317","direct","1","1","1","¿Qué país africano fue 
fundado por esclavos?","Liberia","Chad","","0","0","0","competitive","right","0.577613115311","2320.19325709","4.42238688469","2324.77321005","4.6911649704","2329.46444106","1.3088350296","2330.80887818","2332.80054402","2332.87652206","2335.87950921","0","2335.89418006","2343.88502812",""
"sujeto_529b55b0","1","2","30","62","2344.02904201","inverse","4","1","2","¿A cuánto asciende la cima
 del monte Everest?","7.990 mts","8.848 mts","","0","0","1","competitive","left","0.648493051529","2344.67760205","4.35150694847","2349.18533301","4.76836895943","2353.95374703","1.23163104057","2355.23819017","2356.42304516","2356.50567102","2359.50861812","0","2359.52322221","2366.70393801",""
"sujeto_529b55b0","1","2","31","63","2366.8581202","direct","4","1","1","¿Cuál es el país mas chico?","Sealand","Luxemburgo","","1","1","1","competitive","left","0.646735906601","2367.50492716","4.3532640934","2372.01392317","4.38703799248","2376.40103006","1.61296200752","2378.06581616","2379.92931819","2380.01641607","2383.01940417","1","2383.03379011","2386.15609407",""
"sujeto_529b55b0","1","2","32","64","2386.30214214","inverse","2","1","4","¿Cuántas pirámides hay en Egipto?","10000","11000","","1","1","1","competitive","right","0.81494307518","2387.11717916","4.18505692482","2391.459378","3.00684690475","2394.46626806","2.99315309525","2397.5102191","2398.54383206","2398.62758017","2401.63056803","1","2401.64504409","2406.75410199",""
"sujeto_529b55b0","1","3","1","65","2528.79397202","direct","2","1","2","¿Cuál es el quinto país con 
mas extensión?","Canadá","Brasil","","1","1","0","competitive","right","1.07695698738","2529.87098002","3.92304301262","2533.95090604","4.24612212181","2538.1970942","1.75387787819","2540.00266218","2541.33595109","2541.41958809","2544.4225812","1","2544.43689108","2552.1632812","2406.76621604"
"sujeto_529b55b0","1","3","2","66","2552.30536413","inverse","1","1","2","¿Qué rasgo facial no tiene
 la Mona Lisa?","Cejas","Pómulos","","0","0","1","competitive","left","1.03485107422","2553.34026814","3.96514892578","2557.4634521","4.16375279427","2561.62726617","1.83624720573","2563.51446104","2565.26484299","2565.34875607","2568.35174417","0","2568.36611104","2574.63744116",""
"sujeto_529b55b0","1","3","3","67","2574.78441811","direct","4","1","3","¿Cuál es el país con 
mayor población?","Esados Unidos","China","right","0","0","1","competitive","right","0.857046127319","2575.64151621","4.14295387268","2579.94168115","3.95683407784","2583.89858007","2.04316592216","2585.99333501","2587.6393652","2587.728055","2590.73105001","1","2590.74511909","2594.11199212",""
"sujeto_529b55b0","1","3","4","68","2594.24656916","inverse","1","1","1","La palabra dinosaurio significa","Lagarto Terrible","Lagarto Dragón","","1","1","0","competitive","left","0.58816409111","2594.8348062","4.41183590889","2599.41795111","5.49882912636","2604.91684508","0.501170873642","2605.4695282","2606.63988209","2606.7191062","2609.72209311","1","2609.73646998","2612.59829807",""
"sujeto_529b55b0","1","3","5","69","2612.73969817","direct","2","1","3","¿Qué es el membrillero?","Arbol","Arbusto","","0","0","0","competitive","left","1.16320014","2613.902951","3.83679986","2617.89526105","2.76972579956","2620.6650281","3.23027420044","2623.94572616","2625.89983702","2625.98116517","2628.98415208","0","2628.99839401","2635.4624331",""
"sujeto_529b55b0","1","3","6","70","2635.61669517","inverse","3","1","3","¿Alrededor de qué planeta orbita 
el satélite Europa?","Jupiter","Saturno","","1","1","1","competitive","left","0.627464056015","2636.244205","4.37253594398","2640.77393699","4.19232296944","2644.96632719","1.80767703056","2646.808815","2648.35362601","2648.4261291","2651.4291141","1","2651.44344521","2653.64861321",""
"sujeto_529b55b0","1","3","7","71","2653.82827616","direct","3","1","1","¿Donde fue el mundial de 
fútbol de 1954?","Suiza","Suecia","","1","1","1","competitive","right","0.894149065018","2654.7224791","4.10585093498","2658.97874212","4.88560080528","2663.86441016","1.11439919472","2665.03233504","2666.28496408","2666.36555815","2669.36854601","1","2669.3828311","2673.2924881",""
"sujeto_529b55b0","1","3","8","72","2673.43488717","inverse","1","1","4","¿Cuál de los 7 enanitos
no tenía barba?","Bashful","Mudito","","1","1","0","competitive","left","0.620684146881","2674.055619","4.37931585312","2678.57667899","4.39395689964","2682.9706831","1.60604310036","2684.61174202","2686.1918962","2686.26298118","2689.26598907","1","2689.27941298","2694.20853806",""
"sujeto_529b55b0","1","3","9","73","2694.34767818","direct","3","1","2","¿Cual red social es
mas utilizada mundialmente?","Instagram","Facebook","","1","1","0","competitive","left","0.814171075821","2695.16189599","4.18582892418","2699.50443411","3.75743913651","2703.2619381","2.24256086349","2705.556633","2707.47397614","2707.55754113","2710.5600152","1","2710.57433105","2713.508775",""
"sujeto_529b55b0","1","3","10","74","2713.64224219","inverse","4","1","1","¿Cuándo se inició la copa
 América de fútbol?","1916","1923","","1","1","1","competitive","right","0.741811037064","2714.38414812","4.25818896294","2718.79765415","3.07234501839","2721.87004399","2.92765498161","2724.84879017","2726.74627209","2726.81748009","2729.82047009","1","2729.83456898","2732.49069715",""
"sujeto_529b55b0","1","3","11","75","2732.636482","direct","3","1","4","¿Cuántos presidentes de EEUU
han muerto asesinados?","3","4","","0","0","1","competitive","left","0.554758071899","2733.19129515","4.4452419281","2737.80764818","3.63362002373","2741.44134116","2.36637997627","2743.85872912","2745.34265518","2745.42723703","2748.43020821","0","2748.44454408","2752.08866",""
"sujeto_529b55b0","1","3","12","76","2752.22925711","inverse","2","1","4","¿Cuántas veces participó EEUU
 en la copa América?","4","5","","0","0","1","competitive","left","0.604168891907","2752.83351517","4.39583110809","2757.41799712","3.8603849411","2761.27842617","2.1396150589","2763.45318103","2764.89598203","2764.97115421","2767.974154","0","2767.98234105","2774.09949899",""
"sujeto_529b55b0","1","3","13","77","2774.23535109","direct","4","1","1","¿Cuál de estos países 
no formaba la URSS?","Azeribayán","Afganistán","","0","0","1","competitive","left","0.870333909988","2775.10573316","4.12966609001","2779.41380715","4.71583008766","2784.12968016","1.28416991234","2785.46515417","2786.77820206","2786.86590409","2789.86888814","0","2789.88295317","2797.86510205",""
"sujeto_529b55b0","1","3","14","78","2798.00073409","inverse","1","1","1","¿En qué año se inauguró
 el teatro Solís?","1867","1856","","0","0","0","competitive","right","0.705132007599","2798.70594311","4.2948679924","2803.19079709","5.37018489838","2808.56102514","0.629815101624","2809.24415708","2810.30048704","2810.37741804","2813.38040709","0","2813.39451408","2820.04233408",""
"sujeto_529b55b0","1","3","15","79","2820.17953205","direct","1","1","4","¿A qué velocidad vuela 
el avión más rápido?","3529","3874","","0","0","0","competitive","right","0.473623037338","2820.6532371","4.52637696266","2825.35213399","4.02306199074","2829.37526202","1.97693800926","2831.40119505","2833.15602207","2833.23576808","2836.23876405","0","2836.25314903","2838.36342812",""
"sujeto_529b55b0","1","3","16","80","2838.50570607","inverse","3","1","4","¿De qué año es la primer 
película cinematográfica?","1897","1888","","0","0","0","competitive","right","0.992611885071","2839.49838805","4.00738811493","2843.66308022","1.95530605316","2845.61842799","4.04469394684","2849.71308708","2850.84604311","2850.93190908","2853.93489313","0","2853.94925904","2859.3560071",""
"sujeto_529b55b0","1","3","17","81","2859.48539519","direct","2","1","3","¿Cuántos países 
tiene nuestro planeta?","191","194","","1","1","1","competitive","left","0.604506969452","2860.08998704","4.39549303055","2864.64120102","3.67239403725","2868.31364107","2.32760596275","2870.69206619","2872.04929399","2872.12655902","2875.12951612","1","2875.14460802","2878.38292003",""
"sujeto_529b55b0","1","3","18","82","2878.51281309","inverse","2","1","2","¿Cuántos habitantes
 tiene Buenos Aires?","2.9000.000","3650000","","0","0","0","competitive","right","0.689845085144","2879.20273805","4.31015491486","2883.68033314","4.25943613052","2887.93981099","1.74056386948","2889.71474218","2891.11200905","2891.18249607","2894.18548512","0","2894.19997716","2900.02937603",""
"sujeto_529b55b0","1","3","19","83","2900.16843605","direct","2","1","1","¿Cuántos kilos forman una tonelada?","1000","1500","left","1","1","1","competitive","left","0.610517024994","2900.77902699","4.38948297501","2905.34580112","3.17415499687","2908.51999807","2.82584500313","2911.38039017","2913.26774716","2913.34853315","2916.35152221","1","2916.36592007","2922.32329702",""
"sujeto_529b55b0","1","3","20","84","2922.45092201","inverse","4","1","4","¿Cuántos estados tiene la 
República del Perú? ","24","23","","0","0","1","competitive","right","0.627239942551","2923.0782342","4.37276005745","2927.60700321","3.77810311317","2931.38516712","2.22189688683","2933.64241314","2934.66459918","2934.74341106","2937.74402618","0","2937.76038909","2942.70570421",""
"sujeto_529b55b0","1","3","21","85","2942.87798905","direct","3","1","3","¿En qué año nació Cristóbal Colón? ","1451","1447","","0","0","1","competitive","right","0.583338975906","2943.46141005","4.41666102409","2948.05132818","2.71703410149","2950.768435","3.28296589851","2954.10233998","2955.94823503","2956.02039814","2959.02335405","0","2959.03737903","2963.26535106",""
"sujeto_529b55b0","1","3","22","86","2963.42276406","inverse","4","1","4","¿Cuánto mide la 
Montaña Aconcagua? ","6234","6962","","0","0","1","competitive","left","0.725774049759","2964.14865112","4.27422595024","2968.57472801","3.85380291939","2972.42857909","2.14619708061","2974.62717509","2975.9165082","2975.99490619","2978.99602818","0","2979.01246905","2986.19611621",""
"sujeto_529b55b0","1","3","23","87","2986.330441","direct","2","1","4","¿Cuánto mide el punto
 más profundo del océano? ","12508","11003","","0","0","1","competitive","right","0.835326910019","2987.16584206","4.16467308998","2991.52475214","4.38000607491","2995.90482903","1.61999392509","2997.57607412","2998.82759905","2998.90965509","3001.91266608","0","3001.92675519","3006.13302207",""
"sujeto_529b55b0","1","3","24","88","3006.2793231","inverse","1","1","3","¿Cuántos álbumes ha publicado 
el cantante Jaime Roos? ","41","34","","0","0","1","competitive","right","0.556605100632","3006.83600307","4.44339489937","3011.43504214","3.929926157","3015.3650322","2.070073843","3017.46891618","3018.95875812","3019.03684402","3022.03984809","0","3022.05406713","3028.25023413",""
"sujeto_529b55b0","1","3","25","89","3028.38913608","direct","4","1","3","¿En qué año nació el 
ex-presidente Jorge Battle? ","1921","1927","","1","1","1","competitive","left","0.584985971451","3028.97419214","4.41501402855","3033.57978511","4.10436987877","3037.68419719","1.89563012123","3039.63133121","3041.36203599","3041.44858503","3044.45157218","1","3044.46675014","3047.95280504",""
"sujeto_529b55b0","1","3","26","90","3048.08428502","inverse","1","1","3","¿Cuántas presidencias 
constitucionales  hubo en Uruguay? ","41","42","","0","0","1","competitive","right","0.832035064697","3048.91638803","4.1679649353","3053.2391181","4.83927083015","3058.07846212","1.16072916985","3059.29040217","3060.49419212","3060.5746882","3063.57765603","0","3063.59104705","3069.37470102",""
"sujeto_529b55b0","1","3","27","91","3069.5115912","direct","1","1","2","¿Quién escribió mas sinfonías?","Mozart","Haydn","","1","1","0","competitive","left","0.668899059296","3070.18056512","4.3311009407","3074.68479609","3.90576696396","3078.5906291","2.09423303604","3080.73566413","3081.95311713","3082.03657317","3085.03954005","1","3085.05398512","3088.80540299",""
"sujeto_529b55b0","1","3","28","92","3088.95538521","inverse","4","1","2","¿En qué año nació Michael Jackson?","1958","1953","","1","1","1","competitive","right","0.700325012207","3089.65579319","4.29967498779","3094.12794209","2.27774000168","3096.40572","3.72225999832","3100.16205001","3102.14001298","3102.23039412","3105.23337698","1","3105.24860311","3111.10800409",""
"sujeto_529b55b0","1","3","29","93","3111.25006413","direct","3","1","2","¿En qué año entró en vigencia 
la ley antitabaco en Uruguay?","2005","2006","","1","1","1","competitive","left","0.827780008316","3112.07789302","4.17221999168","3116.40633202","2.33952093124","3118.74589419","3.66047906876","3122.45728707","3124.05205512","3124.12518001","3127.12816405","1","3127.143291","3132.47729516",""
"sujeto_529b55b0","1","3","30","94","3132.61132503","inverse","3","1","1","¿Cuándo se subió el 
primer video a youtube?","2004","2005","","0","0","1","competitive","left","0.700864076614","3133.31226301","4.29913592339","3137.7829721","5.26117396355","3143.04419017","0.738826036453","3143.81807017","3145.12372112","3145.2010951","3148.20402002","0","3148.21935701","3155.97204709",""
"sujeto_529b55b0","1","3","31","95","3156.10376906","direct","2","1","1","¿Cuántos habitantes tiene India?","1200 millones","1300 millones","","0","0","0","competitive","left","0.759469985962","3156.86328721","4.24053001404","3161.26344204","4.98182797432","3166.24530816","1.01817202568","3167.31529498","3169.28490305","3169.36583805","3172.36880898","0","3172.38316417","3178.43067122",""
"sujeto_529b55b0","1","3","32","96","3178.58505201","inverse","4","1","2","¿A qué edad murió Bob Marley?","36","37","","0","0","1","competitive","left","0.806427001953","3179.39152503","4.19357299805","3183.74153399","3.39496397972","3187.13656712","2.60503602028","3189.7754972","3191.67338514","3191.76052117","3194.76349306","0","3194.77789307","3197.88000512",""
"sujeto_529b55b0","1","4","1","97","3325.53161716","direct","2","1","1","¿Cuantos años dirigió la selección 
uruguaya Tabarez?","15 años","13 años","","0","0","0","competitive","right","0.708136081696","3326.23983121","4.2918639183","3330.70236707","5.63245296478","3336.33489108","0.367547035217","3336.753901","3337.94506621","3338.02097607","3341.02396798","0","3341.03824615","3348.11027598","3197.8915"
"sujeto_529b55b0","1","4","2","98","3348.2559011","inverse","4","1","1","¿Cuantas teclas tiene un teclado 
de computadora generalmente? ","Entre 99 y 108","Entre 109 y 113","","1","1","1","competitive","left","0.544461011887","3348.80044699","4.45553898811","3353.41322613","4.61671113968","3358.02998114","1.38328886032","3359.46549702","3360.46796703","3360.54934907","3363.55195308","1","3363.56626415","3365.93770099",""
"sujeto_529b55b0","1","4","3","99","3366.08452201","direct","1","1","1","¿Cuál Departamento tiene
 mayor superficie?","Río Negro","Soriano","","0","0","0","competitive","left","0.558569908142","3366.64316702","4.44143009186","3371.23942304","4.15562200546","3375.39510298","1.84437799454","3377.29064107","3379.00395417","3379.0753541","3382.07830405","0","3382.09247804","3386.41855216",""
"sujeto_529b55b0","1","4","4","100","3386.56100321","inverse","3","1","2","¿Cuál es el apellido de las 
hermanastras  de  cenicienta?","Tremaine","Truman","","0","0","1","competitive","right","0.70029091835","3387.26136804","4.29970908165","3391.71557999","5.16872596741","3396.88437104","0.831274032593","3397.76716208","3399.63671017","3399.717592","3402.7205801","0","3402.7350471","3405.43101406",""
"sujeto_529b55b0","1","4","5","101","3405.57099819","direct","4","1","4","¿Cuál película ganó un
 Oscar a mejor película?","Alto Impacto","Cache","","0","0","1","individual","left","0.94446015358","3406.51550603","4.05553984642","3410.7267282","3.58376789093","3414.3105402","2.41623210907","3416.778543","3417.89790916","3417.94580913","3420.94878221","0","3420.96318603","3423.22777414",""
"sujeto_529b55b0","1","4","6","102","3423.41628218","inverse","1","1","3","¿A cuántos centímetros
equivale la medida pié?","25","30","","0","0","1","competitive","left","0.590306997299","3424.00666308","4.4096930027","3428.56911302","4.06554794312","3432.63473916","1.93445205688","3434.62066507","3435.66066217","3435.73910499","3438.74209213","0","3438.75535107","3444.15632319",""
"sujeto_529b55b0","1","4","7","103","3444.29343104","direct","2","1","2","¿Qué departamento es mas grande?","Cerro Largo","Paysandú","","0","0","0","competitive","right","0.927375078201","3445.22085404","4.0726249218","3449.44645214","3.4672961235","3452.91378498","2.5327038765","3455.49695015","3457.09667921","3457.16518307","3460.16817117","0","3460.1818521","3464.28797007",""
"sujeto_529b55b0","1","4","8","104","3464.45082211","inverse","2","1","3","¿Quién pintó la Mona Lisa?","Picasso","Da Vinci","right","0","0","1","competitive","right","0.586118936539","3465.03701711","4.41388106346","3469.60784221","2.54512500763","3472.15303016","3.45487499237","3475.64129114","3477.24713612","3477.32640004","3480.32938814","1","3480.34413505","3482.50646305",""
"sujeto_529b55b0","1","4","9","105","3482.6459651","direct","4","1","3","¿Cuántos litros hay en un galon?","3.54","3.78","","1","1","1","competitive","left","0.929131984711","3483.57516503","4.07086801529","3487.80012512","4.38804483414","3492.18821907","1.61195516586","3493.85171509","3495.36957407","3495.45296812","3498.45597601","1","3498.47009301","3504.26244617",""
"sujeto_529b55b0","1","4","10","106","3504.4057591","inverse","4","1","1","¿Cuántas teclas tiene
 un piano moderno?","80","88","","0","0","1","competitive","right","0.726536035538","3505.1323812","4.27346396446","3509.55740404","4.35593295097","3513.91337919","1.64406704903","3515.61068821","3516.61914802","3516.69463706","3519.69762015","0","3519.712152","3526.50991416",""
"sujeto_529b55b0","1","4","11","107","3526.67987704","direct","4","1","3","¿Cuántos países hay en África?","54","62","","0","0","1","competitive","left","0.601631879807","3527.28156805","4.39836812019","3531.84061003","3.01691508293","3534.85756898","2.98308491707","3537.89037609","3539.58005118","3539.6589551","3542.66000509","0","3542.67646408","3550.48122406",""
"sujeto_529b55b0","1","4","12","108","3550.63057208","inverse","1","1","3","¿En qué siglo se crearon
 las primeras pistolas?","XV","XIII","","1","1","1","competitive","left","0.553457975388","3551.18416619","4.44654202461","3555.81981301","4.99983096123","3560.81970716","1.00016903877","3561.87099504","3563.81891418","3563.90550518","3566.90850616","1","3566.92288303","3570.15600514",""
"sujeto_529b55b0","1","4","13","109","3570.29142904","direct","3","1","4","¿En qué año se estrenó 
la serie friends?","1994","1995","","0","0","1","competitive","right","0.61236000061","3570.90383911","4.38763999939","3575.44590616","3.90894603729","3579.354918","2.09105396271","3581.48041415","3583.35572314","3583.43154502","3586.43196607","0","3586.44909906","3591.45512509",""
"sujeto_529b55b0","1","4","14","110","3591.58467412","inverse","3","1","4","¿En qué año nació Hitler?","1889","1887","","0","0","1","competitive","left","2.74430990219","3594.32905316","2.25569009781","3596.7408402","4.61017799377","3601.3510592","1.38982200623","3602.77672601","3603.89111304","3603.9606061","3606.96359015","0","3606.97769499","3612.00470114",""
"sujeto_529b55b0","1","4","15","111","3612.12811208","direct","1","1","4","¿Cuánto pesa un elefante Africano?","6000 kilos","5400 kilos","","0","0","0","competitive","left","1.23941588402","3613.3675971","3.76058411598","3617.30171609","3.02153682709","3620.32329607","2.97846317291","3623.35229921","3624.70853305","3624.7877121","3627.79070807","0","3627.80409718","3634.51115799",""
"sujeto_529b55b0","1","4","16","112","3634.67310119","inverse","1","1","2","¿Qué porcentaje de 
la población es zurda?","10%","7%","","1","1","0","competitive","right","0.58527302742","3635.25844812","4.41472697258","3639.82972813","4.17660903931","3644.00640821","1.82339096069","3645.86467719","3647.10778618","3647.18232012","3650.1852932","1","3650.19967818","3656.17940211",""
"sujeto_529b55b0","1","4","17","113","3656.31813312","direct","1","1","2","¿En qué año se estrenó
Volver al futuro?","1984","1985","","0","0","1","competitive","left","0.986403942108","3657.30462217","4.01359605789","3661.49116707","4.16933202744","3665.66054201","1.83066797256","3667.54372001","3669.10553217","3669.19403911","3672.19703317","0","3672.21143413","3679.30288911",""
"sujeto_529b55b0","1","4","18","114","3679.44621205","inverse","3","1","2","¿Cuántos jugadores hay en un 
equipo de baseball?","9","8","","1","1","0","competitive","left","0.603540897369","3680.04983616","4.39645910263","3684.60363603","3.81706690788","3688.42074609","2.18293309212","3690.65446401","3692.26869917","3692.33873916","3695.34169817","1","3695.35689211","3700.33414507",""
"sujeto_529b55b0","1","4","19","115","3700.47494006","direct","2","1","1","¿Cuántos Oscar ganó
 la película titanic?","13","11","","1","1","1","competitive","right","0.935889959335","3701.41090012","4.06411004066","3705.66353917","3.95936203003","3709.62297201","2.04063796997","3711.69727802","3712.99932408","3713.08240104","3716.08538818","1","3716.0997951","3720.69999719",""
"sujeto_529b55b0","1","4","20","116","3720.83462405","inverse","4","1","4","¿En qué año comenzó
la segunda guerra mundial?","1939","1976","left","0","0","1","competitive","left","0.879479885101","3721.71415806","4.1205201149","3726.00852108","2.97553992271","3728.98410702","3.02446007729","3732.05980611","3733.85967302","3733.9444952","3736.94747519","1","3736.96203113","3740.94918513",""
"sujeto_529b55b0","1","4","21","117","3741.09705019","direct","2","1","4","¿Cuántos biomas hay en Uruguay?","5","4","","0","0","1","competitive","right","1.43614506721","3742.53326917","3.56385493279","3746.25248814","2.9497179985","3749.20225215","3.0502820015","3752.3032012","3754.10054302","3754.1879921","3757.19099307","0","3757.20505118","3763.45447612",""
"sujeto_529b55b0","1","4","22","118","3763.60666919","inverse","2","1","3","¿Cuándo murió Pablo Escobar?","1993","1997","","1","1","1","competitive","left","0.755838155746","3764.362571","4.24416184425","3768.76360106","4.35074591637","3773.11441517","1.64925408363","3774.81519103","3776.59804511","3776.68320704","3779.68621707","1","3779.70031309","3785.40399408",""
"sujeto_529b55b0","1","4","23","119","3785.55228019","direct","1","1","4","¿Qué serie ha ganado mas premios?","Friends","Murphy Brown","","1","1","0","competitive","left","0.801284074783","3786.35363817","4.19871592522","3790.72404408","2.84149599075","3793.56558418","3.15850400925","3796.77483606","3798.12725616","3798.20936298","3801.21237516","1","3801.22673702","3806.78801203",""
"sujeto_529b55b0","1","4","24","120","3806.91147017","inverse","4","1","2","¿Cuántas fichas tiene el dominó?","26","28","","1","1","1","competitive","left","0.660294055939","3807.57182217","4.33970594406","3812.06939006","3.65734982491","3815.72678018","2.34265017509","3818.10438609","3819.15964699","3819.23858905","3822.24159908","1","3822.25605798","3827.49914408",""
"sujeto_529b55b0","1","4","25","121","3827.64114308","direct","2","1","4","¿Cuántos son los dientes de leche?","20","25","","0","0","1","competitive","left","0.651724100113","3828.29291701","4.34827589989","3832.79806614","4.46986913681","3837.26800609","1.53013086319","3838.84965301","3840.5599761","3840.6336","3843.63596702","0","3843.65018201","3845.79584908",""
"sujeto_529b55b0","1","4","26","122","3845.95237899","inverse","3","1","3","¿Cuántos gramos son una onza?","22","28","","0","0","1","competitive","right","4.30567502975","3850.25810003","0.694324970245","3851.09081101","4.157310009","3855.24816418","1.842689991","3857.14229417","3859.13596916","3859.2101531","3862.21194601","0","3862.22810507","3868.51831102",""
"sujeto_529b55b0","1","4","27","123","3868.663059","direct","3","1","1","¿Cuándo salió el primer album
 de los Beatles?","1963","1962","","1","1","1","competitive","right","0.576231002808","3869.23936605","4.42376899719","3873.81752801","4.51868700981","3878.33625412","1.48131299019","3879.8703742","3881.03403521","3881.1046741","3884.10763621","1","3884.12213516","3887.89205503",""
"sujeto_529b55b0","1","4","28","124","3888.02385521","inverse","3","1","3","¿Quién fundó la empresa apple?","Carlos Slim","Steve Jobs","","1","1","1","competitive","right","0.776495933533","3888.80042505","4.22350406647","3893.19643807","3.06798791885","3896.26448798","2.93201208115","3899.24653912","3900.36124706","3900.43097305","3903.43394709","1","3903.44843221","3909.74401021",""
"sujeto_529b55b0","1","4","29","125","3909.88289499","direct","4","1","2","¿Cuántos municipios hay
 en Montevideo?","8","7","","1","1","1","competitive","right","0.633606910706","3910.51657104","4.36639308929","3915.05730414","3.24124598503","3918.29861116","2.75875401497","3921.10830808","3923.02308607","3923.110183","3926.11318302","1","3926.12735415","3928.20849609",""
"sujeto_529b55b0","1","4","30","126","3928.34563208","inverse","1","1","1","¿Cuántos kilómetros hay
 de Montevideo a Artigas?","632","599","","0","0","0","competitive","left","0.59808588028","3928.94380021","4.40191411972","3933.51220703","3.64955496788","3937.16182709","2.35044503212","3939.56517315","3941.0480721","3941.1326251","3944.1356101","0","3944.14997602","3950.20209002",""
"sujeto_529b55b0","1","4","31","127","3950.33555317","direct","2","1","2","¿En qué año nació 
Leonardo Da Vinci?","1452","1511","","1","1","0","competitive","right","1.789301157","3952.1249311","3.210698843","3955.49294901","3.51294898987","3959.00596905","2.48705101013","3961.52804303","3963.38168311","3963.46346116","3966.46401715","1","3966.48135304","3969.6277492",""
"sujeto_529b55b0","1","4","32","128","3969.767272","inverse","3","1","1","¿A qué continente
 pertenece el país Gabón?","Africa","Oceanía","","0","0","1","competitive","left","0.630759000778","3970.398139","4.36924099922","3974.93843412","4.07663202286","3979.01513004","1.92336797714","3980.97285914","3982.78451204","3982.85758519","3985.86056614","0","3985.874686","3991.11199617",""
