"code","nro_aplicante","nro_bloque","nro_trial_bloque","nro_trial_global","show_game_type","choice_order","rival","pay_individual","pay_competitive","question","answer_left_text","answer_right_text","correct_answer","outcome_individual","outcome_competitive","outcome_rival","game_type","answer","social_time","rt_game_type","feedback_delay","show_question","answer_time","rt_answer_global","feedback_delay_2","show_jitter","jitter_time","show_outcome","outcome_time","outcome_participant_real","show_final_jitter","second_jitter_time","inicio_descanso"
"sujeto_6fce57c3","1","1","1","1","655.12364912","direct","3","1","4","¿Cuántos centímetros corresponden
al talle 36 del calzado?","23","24","","0","0","1","competitive","left","2.11568617821","657.239377022","2.88431382179","660.298711061","3.98065280914","664.279410124","2.01934719086","666.333249092","667.361538172","667.434875011","670.437837124","0","670.451506138","672.614043951",""
"sujeto_6fce57c3","1","1","2","2","672.753278971","inverse","3","1","2","¿Cuántas metros mide la Intendencia
Municipal de Montevideo? ","84","78","","0","0","1","competitive","right","2.18208098412","674.935405016","2.81791901588","677.905655146","4.14363598824","682.049363136","1.85636401176","683.941552162","685.819540024","685.892832994","688.895802975","0","688.909862041","691.002619982",""
"sujeto_6fce57c3","1","1","3","3","691.145415068","direct","1","1","3","¿Cuántas La Pasiva
 hay en uruguay?","15","11","","1","1","1","competitive","right","1.74078297615","692.886269093","3.25921702385","696.300312996","4.52086901665","700.821223974","1.47913098335","702.352329016","703.964034081","704.035715103","707.038682938","1","707.05318594","711.331459999",""
"sujeto_6fce57c3","1","1","4","4","711.488332033","inverse","3","1","3","¿De que color es la camiseta de uruguay?","blanca","celeste","right","1","1","1","competitive","","2.60535383224","714.093749046","2.39464616776","716.659440994","6","722.659584045","0","722.678609133","723.883373022","723.962960958","726.965948105","0","726.980065107","730.433980942",""
"sujeto_6fce57c3","1","1","5","5","730.565794945","direct","2","1","1","¿Cuánto metros mide
la torre Eiffel?","333","324","","1","1","1","competitive","right","1.14538693428","731.71125102","3.85461306572","735.719185114","3.77995204926","739.499197006","2.22004795074","741.755223036","743.27660799","743.355571985","746.358553171","1","746.372586966","753.409286976",""
"sujeto_6fce57c3","1","1","6","6","753.574716091","inverse","3","1","4","¿Cuantas ciudades existen
 en todo el uruguay?","63","72","","0","0","1","competitive","right","2.89534401894","756.470127106","2.10465598106","758.730643034","4.59241986275","763.323125124","1.40758013725","764.765959978","765.82080102","765.899734974","768.900238037","0","768.916543007","776.543132067",""
"sujeto_6fce57c3","1","1","7","7","776.685286045","direct","1","1","1","¿Cuantos estados tiene África?","52","54","","1","1","0","competitive","left","1.7487590313","778.434110165","3.2512409687","781.843214035","4.28984379768","786.133118153","1.71015620232","787.89588809","789.759895086","789.830177069","792.833142996","1","792.847387075","798.60838294",""
"sujeto_6fce57c3","1","1","8","8","798.749438047","inverse","4","1","4","¿En qué año nació
 Stephen Hawking?","1952","1942","","0","0","1","individual","left","1.39061784744","800.140166998","3.60938215256","803.905470133","3.89652109146","807.802052021","2.10347890854","809.956269979","811.400553942","811.440711021","814.443680048","0","814.457462072","820.556833982",""
"sujeto_6fce57c3","1","1","9","9","820.726187944","direct","2","1","3","¿Cuánto años tenía Artigas
 cuando se fue a Paraguay?","56","57","","1","1","1","competitive","left","1.06891798973","821.795228958","3.93108201027","825.89952302","4.95545291901","830.85503602","1.04454708099","831.951442003","833.500926971","833.585291147","836.588278055","1","836.602403164","842.64970994",""
"sujeto_6fce57c3","1","1","10","10","842.770761967","inverse","1","1","2","¿Cuantos milímetros 
mide una hoja A2?","420x592","420x594","","0","0","1","competitive","left","1.15126204491","843.922070026","3.84873795509","847.943015099","4.41402006149","852.357079983","1.58597993851","853.995963097","855.564167976","855.645905018","858.648859024","0","858.663925171","865.73755312",""
"sujeto_6fce57c3","1","1","11","11","865.882476091","direct","3","1","3","¿Cuál es la menor temperatura 
registrada en Uruguay?","-5.4","-7.4","","0","0","1","individual","right","2.65551400185","868.538066149","2.34448599815","871.053550005","4.208370924","875.261986017","1.791629076","877.08861804","878.770662069","878.823919058","881.826852083","0","881.840196133","885.570693016",""
"sujeto_6fce57c3","1","1","12","12","885.725898027","inverse","2","1","2","¿Cuantos años hace que 
se fundó facebook?","18","17","","0","0","0","competitive","right","1.37913489342","887.105079174","3.62086510658","890.883559942","4.09939193726","894.98299098","1.90060806274","896.93453002","898.30726409","898.385162115","901.388139009","0","901.402101994","904.176217079",""
"sujeto_6fce57c3","1","1","13","13","904.304187059","direct","1","1","4","¿Cuál animal es más
 pesado en promedio?","Rinoceronte","Hipopotamo","","0","0","0","individual","right","2.0468120575","906.351046085","2.9531879425","909.459471941","4.44451212883","913.904025078","1.55548787117","915.544973135","916.624241114","916.661333084","919.664256096","0","919.679404974","923.520409107",""
"sujeto_6fce57c3","1","1","14","14","923.679182053","inverse","1","1","2","¿Qué personaje de dragon ball 
murió más veces?","Chaoz","Krillin","","1","1","0","competitive","left","2.60383296013","926.28305912","2.39616703987","928.836408138","4.88758111","933.724051952","1.11241889","934.886036158","936.343846083","936.419636965","939.420202017","1","939.437541008","947.208188057",""
"sujeto_6fce57c3","1","1","15","15","947.338785172","direct","3","1","2","La universidad de oxford. 
existe desde:","1096","1249","","1","1","0","individual","right","1.83724999428","949.176129103","3.16275000572","952.513849974","4.72518205643","957.239093065","1.27481794357","958.549803972","959.59861517","959.633762121","962.636742115","1","962.650905132","969.341760159",""
"sujeto_6fce57c3","1","1","16","16","969.469408989","inverse","3","1","1","¿Qué escritor latino ganó antes
 el premio nobel?"," García Marquez","Neruda","","0","0","1","competitive","right","2.83362984657","972.303086042","2.16637015343","974.642830133","4.68523597717","979.328161955","1.31476402283","980.695016146","982.43495512","982.512539148","985.515512943","0","985.529757023","988.987627983",""
"sujeto_6fce57c3","1","1","17","17","989.130993128","direct","4","1","3","¿Cuántos dientes tiene un
 tiburón blanco?","6000","3000","","0","0","1","competitive","left","2.81506204605","991.946099997","2.18493795395","994.303447008","4.21459889412","998.518087149","1.78540110588","1000.35462403","1001.39362407","1001.47204804","1004.47501516","0","1004.48993897","1009.29630399",""
"sujeto_6fce57c3","1","1","18","18","1009.42425895","inverse","4","1","1","¿Cuánto mide el paralelo Ecuador?","40.000km","70.000km","","0","0","1","competitive","left","3.10984301567","1012.53417802","1.89015698433","1014.57910109","3.83997321129","1018.41914105","2.16002678871","1020.63171911","1022.58786011","1022.66649008","1025.66946411","0","1025.68344402","1029.28598499",""
"sujeto_6fce57c3","1","1","19","19","1029.41864514","direct","4","1","2","¿Cuál fue el primer libro 
de Stephen King?","Carrie","The Stand","","1","1","1","competitive","left","2.60348200798","1032.02217603","2.39651799202","1034.58870196","4.55544185638","1039.14418602","1.44455814362","1040.64166498","1042.38423204","1042.4589231","1045.460186","1","1045.4763701","1049.95080614",""
"sujeto_6fce57c3","1","1","20","20","1050.09493613","inverse","2","1","3","¿Qué civilización practicaba
 la momificación?","Grecia","Egipto","right","0","0","1","competitive","right","2.45724105835","1052.55224299","2.54275894165","1055.26912212","3.06205105782","1058.331213","2.93794894218","1061.30252194","1063.24182796","1063.32118797","1066.32415795","1","1066.33826113","1070.56702614",""
"sujeto_6fce57c3","1","1","21","21","1070.70635414","direct","4","1","4","¿Cuántos millones de visitas
 recibe google por minuto?","3.0","4.5","","0","0","1","competitive","left","1.87287306786","1072.57936096","3.12712693214","1075.87649417","4.6157040596","1080.49223709","1.3842959404","1081.92911696","1083.44401217","1083.52888894","1086.53188896","0","1086.54623604","1093.66896105",""
"sujeto_6fce57c3","1","1","22","22","1093.83109403","inverse","1","1","3","La máquina de fax. se inventó en:","1843","1960","","0","0","1","competitive","right","1.49317598343","1095.32431507","3.50682401657","1098.97263312","4.79664111137","1103.76931596","1.20335888863","1105.00748205","1106.24955702","1106.32480311","1109.32777905","0","1109.34191203","1112.57818198",""
"sujeto_6fce57c3","1","1","23","23","1112.72655702","direct","2","1","4","En la verdadera historia de los
 300 espartanos. habían:","300 soldados","4300 soldados","","1","1","1","competitive","left","1.96585583687","1114.69246101","3.03414416313","1117.90081906","5.41549491882","1123.31637502","0.584505081177","1123.95269108","1125.21392202","1125.28599405","1128.28900194","1","1128.3031671","1132.10420799",""
"sujeto_6fce57c3","1","1","24","24","1132.23877311","inverse","1","1","4","¿Cuántos milímetros crece
 el pelo por día?","0.4","0.04","","0","0","0","competitive","right","2.61460018158","1134.85342216","2.38539981842","1137.39201117","4.77338695526","1142.16544509","1.22661304474","1143.44557309","1145.20627403","1145.28018117","1148.28315711","0","1148.2971611","1155.03218508",""
"sujeto_6fce57c3","1","1","25","25","1155.16511202","direct","4","1","1","¿Cuánto mide la baldosa gris 
clásica de Montevideo?","22x22 cm.","20x20 cm.","","1","1","1","individual","right","2.39031004906","1157.55546713","2.60968995094","1160.35365915","4.65067315102","1165.00439095","1.34932684898","1166.40784001","1168.40309715","1168.44164705","1171.44462109","1","1171.45957613","1177.00235796",""
"sujeto_6fce57c3","1","1","26","26","1177.14417696","inverse","2","1","2","¿Cuántas películas de rápidos
 y furiosos hay?","10","11","","1","1","0","competitive","right","1.39332294464","1178.53754711","3.60667705536","1182.28274798","4.62677288055","1186.90959001","1.37322711945","1188.31686711","1189.674891","1189.75087905","1192.75225115","1","1192.76857495","1194.80330014",""
"sujeto_6fce57c3","1","1","27","27","1194.93638706","direct","3","1","1","¿Cuántos masters 1000
 ganó Del Potro?","1","2","","1","1","1","individual","right","3.60110092163","1198.53753304","1.39889907837","1200.10989499","3.91563892365","1204.02557516","2.08436107635","1206.14472413","1207.89934397","1207.94501996","1210.94799209","1","1210.96276808","1218.35912609",""
"sujeto_6fce57c3","1","1","28","28","1218.49741316","inverse","2","1","4","¿Cuántos meses dura el 
embarazo de una leona?","3 meses","4 meses","","0","0","1","competitive","right","1.2811870575","1219.77866697","3.7188129425","1223.67175603","4.62485098839","1228.29667616","1.37514901161","1229.70604897","1230.81711698","1230.90684295","1233.90982509","0","1233.92391515","1240.64640212",""
"sujeto_6fce57c3","1","1","29","29","1240.77559996","direct","1","1","1","¿En qué año fue creado
 el sandwich?","1762","1653","","1","1","0","competitive","left","2.04307293892","1242.818717","2.95692706108","1245.93309212","4.1645720005","1250.09772515","1.8354279995","1251.98527098","1253.58383203","1253.66915703","1256.67215705","1","1256.68624115","1260.15622997",""
"sujeto_6fce57c3","1","1","30","30","1260.305444","inverse","4","1","2","El nombre de la moneda de Vietnam es:","Dinar","Dong","","0","0","1","competitive","right","1.51435089111","1261.81984115","3.48564910889","1265.45841098","4.61427307129","1270.07272696","1.38572692871","1271.50992608","1272.94192004","1273.02792501","1276.02822399","0","1276.04451609","1282.21294904",""
"sujeto_6fce57c3","1","1","31","31","1282.34871817","direct","2","1","1","¿cuantos aleteos puede dar 
un colibrí por segundo?","120","50","","0","0","0","competitive","left","1.63211202621","1283.98087406","3.36788797379","1287.50520205","2.06762909889","1289.57289195","3.93237090111","1293.55448508","1295.28686094","1295.35741305","1298.3603971","0","1298.37467194","1302.58691311",""
"sujeto_6fce57c3","1","1","32","32","1302.72546196","inverse","4","1","3","¿Qué altura promedio tienen
 los hombres uruguayos?","1.73 m","1.72 m","","1","1","1","competitive","left","2.3403608799","1305.06588507","2.6596391201","1307.89563107","3.43827795982","1311.33395004","2.56172204018","1313.950104","1315.21252799","1315.28460097","1318.28758597","1","1318.30159903","1322.77620101",""
"sujeto_6fce57c3","1","2","1","33","1440.54451799","direct","1","1","1","¿En qué año nació 
el actor Bradd Pitt?","1967","1963","","1","1","1","competitive","right","1.86389899254","1442.40848112","3.13610100746","1445.70445514","3.26100707054","1448.965523","2.73899292946","1451.73708606","1452.83223009","1452.90555","1455.90853596","1","1455.92252398","1461.84822416","1322.78755617"
"sujeto_6fce57c3","1","2","2","34","1461.99369597","inverse","2","1","1","¿Cual es el segundo 
monte más alto?","Kanchenjunga","K2","","1","1","1","competitive","right","1.29886507988","1463.292624","3.70113492012","1467.14688516","4.31368899345","1471.46061516","1.68631100655","1473.19721603","1474.64960814","1474.732023","1477.73501015","1","1477.74925399","1481.17916608",""
"sujeto_6fce57c3","1","2","3","35","1481.31738615","direct","3","1","1","¿Cuándo finalizó la construcción
 del Palacio Legislativo?","1925","1917","","0","0","1","individual","left","1.77520608902","1483.09265399","3.22479391098","1486.47502804","4.28858780861","1490.76367617","1.71141219139","1492.5267601","1494.16846299","1494.21010399","1497.21220517","0","1497.22838306","1502.92590809",""
"sujeto_6fce57c3","1","2","4","36","1503.06250215","inverse","3","1","3","¿Cuántos integrantes tenía
 en su inicio  el cuarteto de nos?","3","4","","1","1","1","competitive","right","2.43618607521","1505.498734","2.56381392479","1508.234725","5.2429728508","1513.47775817","0.7570271492","1514.27109003","1515.40419102","1515.48813105","1518.49107409","1","1518.50623703","1524.15222096",""
"sujeto_6fce57c3","1","2","5","37","1524.29053211","direct","2","1","3","¿Qué valor tiene el número pi?","3.14","4.18","left","0","0","1","competitive","left","2.19128704071","1526.48188305","2.80871295929","1529.43053198","3.41931009293","1532.84990215","2.58068990707","1535.48134804","1536.93557501","1537.0167861","1540.01972699","1","1540.03387594","1546.95480204",""
"sujeto_6fce57c3","1","2","6","38","1547.08451414","inverse","2","1","2","¿Cuál es la esperanza de vida
 en Uruguay?","75","77","","1","1","0","competitive","left","1.18541908264","1548.26999807","3.81458091736","1552.23712611","3.40274715424","1555.63990998","2.59725284576","1558.28954315","1559.94334316","1560.02496696","1563.02788496","1","1563.04210114","1569.50509715",""
"sujeto_6fce57c3","1","2","7","39","1569.643152","direct","1","1","2","¿Cuantos pisos tiene la torre 
de las comunicaciones?","26","32","","1","1","0","competitive","right","1.19892287254","1570.84213614","3.80107712746","1574.80373502","5.51934289932","1580.3231411","0.480657100677","1580.85447216","1582.68326998","1582.75480294","1585.75778913","1","1585.77217102","1587.91837406",""
"sujeto_6fce57c3","1","2","8","40","1588.09089208","inverse","2","1","4","¿En qué país sudamericano 
no hay McDonalds?","Bolivia","Venezuela","","0","0","1","competitive","right","1.73128700256","1589.82224417","3.26871299744","1593.24737215","4.89570212364","1598.14311099","1.10429787636","1599.29918313","1600.60817814","1600.68248606","1603.68418312","0","1603.70031595","1610.05616903",""
"sujeto_6fce57c3","1","2","9","41","1610.201092","direct","3","1","1","¿En qué año empieza
 la Edad Media?","476","512","","1","1","1","individual","left","4.24215888977","1614.44331694","0.757841110229","1615.35878515","4.31150197983","1619.67035007","1.68849802017","1621.39272904","1622.79618311","1622.84349394","1625.84416699","1","1625.86130309","1628.84818196",""
"sujeto_6fce57c3","1","2","10","42","1629.01263094","inverse","3","1","4","¿Hace cuántos años surgió
 el ser humano?","200mil","300mil","","0","0","0","competitive","right","2.16870307922","1631.18140006","2.83129692078","1634.16711497","5.58822202682","1639.75537801","0.411777973175","1640.20412111","1642.09018898","1642.16980004","1645.17277503","0","1645.18697095","1648.49744511",""
"sujeto_6fce57c3","1","2","11","43","1648.62218714","direct","3","1","4","¿Cuántas cuadras tiene
 actualmente 18 de julio? ","36","33","","0","0","1","competitive","left","3.23626303673","1651.85851502","1.76373696327","1653.77744794","4.5999751091","1658.37746406","1.4000248909","1659.81388402","1661.51607704","1661.59703207","1664.60001612","0","1664.61437011","1669.34019017",""
"sujeto_6fce57c3","1","2","12","44","1669.46638608","inverse","1","1","4","¿Qué juego de equipo se 
considera mas rápido?","Lacrosse","Badminton","","0","0","0","competitive","left","1.59113478661","1671.05758595","3.40886521339","1674.62105203","4.17044687271","1678.79153895","1.82955312729","1680.67282414","1681.915941","1681.98986197","1684.99222612","0","1685.00735807","1693.00248194",""
"sujeto_6fce57c3","1","2","13","45","1693.1420331","direct","1","1","3","¿Qué promedio de edad 
vive una jirafa? ","25","20","","0","0","1","competitive","right","1.94868707657","1695.09079599","3.05131292343","1698.31566","3.5940618515","1701.90978599","2.4059381485","1704.34973216","1706.11122704","1706.18451405","1709.18749905","0","1709.20276809","1715.15848994",""
"sujeto_6fce57c3","1","2","14","46","1715.30455017","inverse","1","1","2","¿Cuántos grandes lagos hay?","7","5","","0","0","1","competitive","left","2.58922791481","1717.89382601","2.41077208519","1720.45935512","4.41743397713","1724.8768301","1.58256602287","1726.49524713","1727.78740597","1727.87968397","1730.88264298","0","1730.897012","1738.71838617",""
"sujeto_6fce57c3","1","2","15","47","1738.86501813","direct","3","1","2","¿Cuántos discos de estudio
 grabó Johhny Cash? ","54","43","","1","1","0","individual","right","3.42888402939","1742.29397416","1.57111597061","1744.02543116","4.7164440155","1748.74191499","1.2835559845","1750.06058002","1751.33920217","1751.37741709","1754.38038516","1","1754.394732","1761.044173",""
"sujeto_6fce57c3","1","2","16","48","1761.19926596","inverse","4","1","1","¿Cuántos barrios tiene
 Montevideo? ","71","62","","0","0","1","competitive","right","1.79371595383","1762.99304509","3.20628404617","1766.3537941","4.03115916252","1770.38501","1.96884083748","1772.38891912","1773.39595604","1773.47283697","1776.47582102","0","1776.48903108","1781.95103002",""
"sujeto_6fce57c3","1","2","17","49","1782.09132409","direct","3","1","3","¿Qué edad tiene Homero Simpson?","36","42","","0","0","1","competitive","left","3.81078314781","1785.90218115","1.18921685219","1787.26508999","4.73004698753","1791.99518204","1.26995301247","1793.30010414","1794.67614412","1794.75029516","1797.75183606","0","1797.76699615","1802.15574694",""
"sujeto_6fce57c3","1","2","18","50","1802.302526","inverse","4","1","2","¿Cuántos países con monarquía 
hay en europa actualmente? ","6","10","","1","1","1","competitive","left","2.54970312119","1804.85230112","2.45029687881","1807.47298408","4.72524189949","1812.19828796","1.27475810051","1813.51030898","1814.94816804","1815.02737403","1818.03031111","1","1818.04441404","1824.20018697",""
"sujeto_6fce57c3","1","2","19","51","1824.33033609","direct","2","1","3","¿Cuántos capítulos de
 Friends existen? ","236","228","","1","1","1","competitive","left","2.38205504417","1826.71245408","2.61794495583","1829.49839902","5.13396286964","1834.63242507","0.866037130356","1835.53865409","1836.8442471","1836.92148399","1839.92421794","1","1839.93956494","1842.31522608",""
"sujeto_6fce57c3","1","2","20","52","1842.45723295","inverse","1","1","3","¿Cuántas óperas compuso Mozart? ","27","22","","1","1","1","competitive","right","1.30616807938","1843.76344395","3.69383192062","1847.61220598","3.99724698067","1851.609519","2.00275301933","1853.64693213","1854.93908715","1855.01421094","1858.01720715","1","1858.03116894","1865.34024215",""
"sujeto_6fce57c3","1","2","21","53","1865.48302603","direct","4","1","3","¿Cuántos mundiales de fútbol 
femenino ha realizado FIFA? ","9","7","","1","1","1","competitive","left","2.53954792023","1868.02262115","2.46045207977","1870.67357516","4.15600800514","1874.82964301","1.84399199486","1876.726403","1877.97010517","1878.04347706","1881.04422712","1","1881.05934405","1887.16181111",""
"sujeto_6fce57c3","1","2","22","54","1887.29297996","inverse","3","1","2","¿Cuál es la temperatura 
media anual en Montevideo? ","17.5","16.3","","0","0","1","individual","left","2.31670689583","1889.60973001","2.68329310417","1892.44787812","4.66785907745","1897.11580706","1.33214092255","1898.50344014","1900.44204116","1900.487149","1903.49012113","0","1903.50514507","1910.07222104",""
"sujeto_6fce57c3","1","2","23","55","1910.23947811","direct","2","1","2","¿En qué año se estrenó el
 videojuego The Sims? ","2000","2002","","0","0","0","competitive","right","1.33833408356","1911.57785416","3.66166591644","1915.39755607","3.83230280876","1919.22989702","2.16769719124","1921.44803095","1923.31000495","1923.38324094","1926.38619804","0","1926.40047717","1933.79218602",""
"sujeto_6fce57c3","1","2","24","56","1933.93558407","inverse","2","1","1","¿Cuál es la canción con 
mas covers? ","Yesterday","Stand by me","","0","0","0","competitive","right","2.01938199997","1935.95503116","2.98061800003","1939.09262514","4.02828812599","1943.12097096","1.97171187401","1945.12825894","1946.52683115","1946.59588599","1949.59885502","0","1949.61272717","1953.78022313",""
"sujeto_6fce57c3","1","2","25","57","1953.93130803","direct","1","1","4","¿Cuánto duró la guerra
 de los 100 años?","116","123","","0","0","0","competitive","left","1.9018099308","1955.83317113","3.0981900692","1959.11933208","3.80866980553","1962.92805696","2.19133019447","1965.15537715","1966.63617301","1966.70646715","1969.70944715","0","1969.72345304","1972.04323316",""
"sujeto_6fce57c3","1","2","26","58","1972.17527914","inverse","4","1","4","¿Qué color tiene la  bandera de Brasil?","Amarillo","Naranja","left","0","0","1","competitive","left","2.0348739624","1974.21021795","2.9651260376","1977.32604003","3.77216696739","1981.09825611","2.22783303261","1983.38179302","1984.9481771","1985.03256798","1988.03549194","1","1988.049757","1991.08250713",""
"sujeto_6fce57c3","1","2","27","59","1991.25117517","direct","4","1","3","¿Qué carabela de 
Colon no volvió del viaje?","Santa María","La pinta","","0","0","1","individual","right","2.30610203743","1993.55732107","2.69389796257","1996.42224002","4.51410889626","2000.93640995","1.48589110374","2002.47299695","2003.96406317","2004.00662112","2007.00958896","0","2007.02383113","2009.12326908",""
"sujeto_6fce57c3","1","2","28","60","2009.25889611","inverse","4","1","4","¿Cuántos huesos tiene
 un adulto humano?","217","206","","0","0","1","competitive","right","2.63849806786","2011.89745998","2.36150193214","2014.44845104","2.96999287605","2017.41848612","3.03000712395","2020.50034308","2021.77134895","2021.85129094","2024.85427999","0","2024.86951995","2032.70721698",""
"sujeto_6fce57c3","1","2","29","61","2032.83663416","direct","1","1","1","¿Qué país africano fue 
fundado por esclavos?","Liberia","Chad","","0","0","0","competitive","right","1.90388894081","2034.74058604","3.09611105919","2038.02584195","4.44474101067","2042.47062397","1.55525898933","2044.06033397","2046.05195904","2046.12907505","2049.13201308","0","2049.14673901","2057.13756704",""
"sujeto_6fce57c3","1","2","30","62","2057.28121996","inverse","4","1","2","¿A cuánto asciende la cima
 del monte Everest?","7.990 mts","8.848 mts","","0","0","1","individual","right","2.30645799637","2059.58775115","2.69354200363","2062.45376515","3.63589811325","2066.08973217","2.36410188675","2068.5060811","2069.69093108","2069.74049807","2072.74348116","0","2072.75766706","2079.93491602",""
"sujeto_6fce57c3","1","2","31","63","2080.07569695","direct","4","1","1","¿Cuál es el país mas chico?","Sealand","Luxemburgo","","1","1","1","competitive","right","4.58410000801","2084.65986204","0.415899991989","2085.23517895","4.01270294189","2089.24794602","1.98729705811","2091.28459811","2093.14812207","2093.21922207","2096.22220802","1","2096.23657703","2099.35885501",""
"sujeto_6fce57c3","1","2","32","64","2099.48862004","inverse","2","1","4","¿Cuántas pirámides hay en Egipto?","10000","11000","","1","1","1","competitive","left","1.68429803848","2101.1729641","3.31570196152","2104.64600205","3.92493486404","2108.57100606","2.07506513596","2110.68059897","2111.71419215","2111.79786897","2114.80083203","1","2114.81494808","2119.92400217",""
"sujeto_6fce57c3","1","3","1","65","2223.08368516","direct","2","1","2","¿Cuál es el quinto país con 
mas extensión?","Canadá","Brasil","","1","1","0","competitive","right","3.47400093079","2226.55774999","1.52599906921","2228.24405217","4.69852304459","2232.94263005","1.30147695541","2234.29238605","2235.62567306","2235.71050906","2238.71222615","1","2238.72758913","2246.453969","2119.93559003"
"sujeto_6fce57c3","1","3","2","66","2246.57969499","inverse","1","1","2","¿Qué rasgo facial no tiene
 la Mona Lisa?","Cejas","Pómulos","","0","0","1","competitive","left","1.35510993004","2247.93485403","3.64489006996","2251.73984599","1.37891983986","2253.11880398","4.62108016014","2257.78874207","2259.53915","2259.62506795","2262.62800598","0","2262.64240003","2268.91227007",""
"sujeto_6fce57c3","1","3","3","67","2269.04352713","direct","4","1","3","¿Cuál es el país con 
mayor población?","Esados Unidos","China","right","0","0","1","competitive","right","1.75738787651","2270.80098009","3.24261212349","2274.20161605","2.93334293365","2277.13501906","3.06665706635","2280.25119209","2281.89719915","2281.97006297","2284.97304606","1","2284.98747206","2288.35481715",""
"sujeto_6fce57c3","1","3","4","68","2288.48833203","inverse","1","1","1","La palabra dinosaurio significa","Lagarto Terrible","Lagarto Dragón","","1","1","0","competitive","left","2.2577419281","2290.74611712","2.7422580719","2293.64477706","4.01429486275","2297.659132","1.98570513725","2299.69585204","2300.86614013","2300.94647312","2303.94943094","1","2303.96355414","2306.82533908",""
"sujeto_6fce57c3","1","3","5","69","2306.96511912","direct","2","1","3","¿Qué es el membrillero?","Arbol","Arbusto","","0","0","0","competitive","left","1.49407505989","2308.45924115","3.50592494011","2312.12071705","3.36446785927","2315.48525095","2.63553214073","2318.17172408","2320.12421608","2320.20620394","2323.20920396","0","2323.22340608","2329.68740416",""
"sujeto_6fce57c3","1","3","6","70","2329.84152198","inverse","3","1","3","¿Alrededor de qué planeta orbita 
el satélite Europa?","Jupiter","Saturno","","1","1","1","individual","right","1.73201107979","2331.57359815","3.26798892021","2335.00033617","4.22030305862","2339.22070098","1.77969694138","2341.05081415","2342.59557414","2342.63498402","2345.63794494","1","2345.65227294","2347.8574481",""
"sujeto_6fce57c3","1","3","7","71","2348.00484705","direct","3","1","1","¿Donde fue el mundial de 
fútbol de 1954?","Suiza","Suecia","","1","1","1","competitive","right","2.2900788784","2350.29497099","2.7099211216","2353.15950203","5.0924270153","2358.25199509","0.907572984695","2359.19453216","2360.44714308","2360.52766204","2363.52817202","1","2363.5453341","2367.4570961",""
"sujeto_6fce57c3","1","3","8","72","2367.59757304","inverse","1","1","4","¿Cuál de los 7 enanitos
no tenía barba?","Bashful","Mudito","","1","1","0","competitive","right","1.35063385963","2368.948277","3.64936614037","2372.75138497","4.41595697403","2377.16739011","1.58404302597","2378.80279803","2380.38293695","2380.45350599","2383.45649004","1","2383.47094917","2388.39623713",""
"sujeto_6fce57c3","1","3","9","73","2388.53888512","direct","3","1","2","¿Cual red social es
mas utilizada mundialmente?","Instagram","Facebook","","1","1","0","individual","left","1.5726621151","2390.11161709","3.4273378849","2393.71397209","3.31466817856","2397.02870798","2.68533182144","2399.764956","2401.68233395","2401.73275399","2404.73570299","1","2404.75002313","2407.68453407",""
"sujeto_6fce57c3","1","3","10","74","2407.81911707","inverse","4","1","1","¿Cuándo se inició la copa
 América de fútbol?","1916","1923","","1","1","1","competitive","right","2.5567009449","2410.37588406","2.4432990551","2412.99161601","5.10727405548","2418.09892917","0.892725944519","2419.04358697","2420.94102812","2421.02704","2424.03000617","1","2424.04429507","2426.70041704",""
"sujeto_6fce57c3","1","3","11","75","2426.86251807","direct","3","1","4","¿Cuántos presidentes de EEUU
han muerto asesinados?","3","4","","0","0","1","competitive","left","3.13063192368","2429.99321508","1.86936807632","2432.0294621","4.53277301788","2436.56229901","1.46722698212","2438.06911111","2439.55218697","2439.63650203","2442.63949299","0","2442.65439916","2446.29850316",""
"sujeto_6fce57c3","1","3","12","76","2446.43965697","inverse","2","1","4","¿Cuántas veces participó EEUU
 en la copa América?","4","5","","0","0","1","competitive","left","2.22579193115","2448.66549301","2.77420806885","2451.60867405","3.17884802818","2454.78759003","2.82115197182","2457.64581203","2459.08989096","2459.16439295","2462.16735816","0","2462.18149209","2468.29865503",""
"sujeto_6fce57c3","1","3","13","77","2468.43269801","direct","4","1","1","¿Cuál de estos países 
no formaba la URSS?","Azeribayán","Afganistán","","0","0","1","individual","left","1.86608195305","2470.29884815","3.13391804695","2473.60504198","4.76777386665","2478.37287617","1.23222613335","2479.65808296","2480.97116303","2481.01946306","2484.02022409","0","2484.03640699","2492.01781011",""
"sujeto_6fce57c3","1","3","14","78","2492.15487409","inverse","1","1","1","¿En qué año se inauguró
 el teatro Solís?","1867","1856","","0","0","0","competitive","left","2.54517817497","2494.70016003","2.45482182503","2497.31728101","4.2879178524","2501.60524011","1.7120821476","2503.37134194","2504.42764115","2504.50431204","2507.50728297","0","2507.52217817","2514.16819906",""
"sujeto_6fce57c3","1","3","15","79","2514.30668306","direct","1","1","4","¿A qué velocidad vuela 
el avión más rápido?","3529","3874","","0","0","0","competitive","right","2.08674693108","2516.39349604","2.91325306892","2519.46579599","4.03369498253","2523.49955416","1.96630501747","2525.51573706","2527.27123308","2527.34984612","2530.35282803","0","2530.36794996","2532.47822714",""
"sujeto_6fce57c3","1","3","16","80","2532.60249496","inverse","3","1","4","¿De qué año es la primer 
película cinematográfica?","1897","1888","","0","0","0","individual","right","3.3802011013","2535.98276305","1.6197988987","2537.75674605","5.07806682587","2542.83488202","0.921933174133","2543.79191899","2544.92487097","2544.97581196","2547.97876906","0","2547.99304104","2553.40278196",""
"sujeto_6fce57c3","1","3","17","81","2553.54488301","direct","2","1","3","¿Cuántos países 
tiene nuestro planeta?","191","194","","1","1","1","competitive","left","3.21472787857","2556.75969505","1.78527212143","2558.69957209","4.4554541111","2563.15507412","1.5445458889","2564.75272703","2566.10990715","2566.18783903","2569.19084811","1","2569.20409513","2572.44240117",""
"sujeto_6fce57c3","1","3","18","82","2572.57317901","inverse","2","1","2","¿Cuántos habitantes
 tiene Buenos Aires?","2.9000.000","3650000","","0","0","0","competitive","left","2.29000091553","2574.86324406","2.70999908447","2577.74525809","4.29404711723","2582.03936696","1.70595288277","2583.7796731","2585.17618299","2585.24690104","2588.24822307","0","2588.26429105","2594.09226608",""
"sujeto_6fce57c3","1","3","19","83","2594.232234","direct","2","1","1","¿Cuántos kilos forman una tonelada?","1000","1500","left","1","1","1","competitive","left","2.20727801323","2596.43957496","2.79272198677","2599.38814998","3.73432207108","2603.12250996","2.26567792892","2605.42370296","2607.31105709","2607.39162803","2610.39222717","1","2610.4086051","2616.36598897",""
"sujeto_6fce57c3","1","3","20","84","2616.51030707","inverse","4","1","4","¿Cuántos estados tiene la 
República del Perú? ","24","23","","0","0","1","individual","left","2.63843798637","2619.14878917","2.36156201363","2621.69741607","4.51740098","2626.21487808","1.48259902","2627.73598003","2628.75817108","2628.80394006","2631.80690217","0","2631.82100606","2636.76630402",""
"sujeto_6fce57c3","1","3","21","85","2636.90606308","direct","3","1","3","¿En qué año nació Cristóbal Colón? ","1451","1447","","0","0","1","competitive","right","3.43699193001","2640.34315515","1.56300806999","2642.07871008","4.61735582352","2646.69615507","1.38264417648","2648.11335397","2649.95923209","2650.03135109","2653.03218102","0","2653.0481751","2657.27217817",""
"sujeto_6fce57c3","1","3","22","86","2657.41750216","inverse","4","1","4","¿Cuánto mide la 
Montaña Aconcagua? ","6234","6962","","0","0","1","competitive","left","4.06981897354","2661.48738503","0.930181026459","2662.58910608","4.7322640419","2667.32143307","1.2677359581","2668.62463808","2669.91399717","2669.99240112","2672.99530101","0","2673.00948405","2680.19223499",""
"sujeto_6fce57c3","1","3","23","87","2680.32726407","direct","2","1","4","¿Cuánto mide el punto
 más profundo del océano? ","12508","11003","","0","0","1","competitive","left","1.92733192444","2682.25467205","3.07266807556","2685.51808","4.26155400276","2689.77969408","1.73844599724","2691.56795096","2692.81950903","2692.90230703","2695.90528607","0","2695.91963601","2700.12585616",""
"sujeto_6fce57c3","1","3","24","88","2700.25378799","inverse","1","1","3","¿Cuántos álbumes ha publicado 
el cantante Jaime Roos? ","41","34","","0","0","1","competitive","right","2.07704687119","2702.33087802","2.92295312881","2705.412431","3.36845493317","2708.78094506","2.63154506683","2711.4631021","2712.95220709","2713.03083897","2716.03222394","0","2716.04859209","2722.24478197",""
"sujeto_6fce57c3","1","3","25","89","2722.385077","direct","4","1","3","¿En qué año nació el 
ex-presidente Jorge Battle? ","1921","1927","","1","1","1","individual","left","2.93604302406","2725.32116699","2.06395697594","2727.55611014","5.15805697441","2732.71421003","0.841943025589","2733.59282613","2735.32352209","2735.37618494","2738.37912703","1","2738.39323997","2741.87929916",""
"sujeto_6fce57c3","1","3","26","90","2742.01226902","inverse","1","1","3","¿Cuántas presidencias 
constitucionales  hubo en Uruguay? ","41","42","","0","0","1","competitive","right","2.070073843","2744.08238816","2.929926157","2747.18278408","5.13659286499","2752.31941795","0.86340713501","2753.23606515","2754.43989301","2754.51939297","2757.52232695","0","2757.53738308","2763.321033",""
"sujeto_6fce57c3","1","3","27","91","2763.4549861","direct","1","1","2","¿Quién escribió mas sinfonías?","Mozart","Haydn","","1","1","0","competitive","left","1.82960915565","2765.28464007","3.17039084435","2768.61202312","4.37653017044","2772.98861003","1.62346982956","2774.64398599","2775.86148596","2775.94574213","2778.94818807","1","2778.96242714","2782.71223116",""
"sujeto_6fce57c3","1","3","28","92","2782.86524916","inverse","4","1","2","¿En qué año nació Michael Jackson?","1958","1953","","1","1","1","individual","right","1.93655395508","2784.80185294","3.06344604492","2788.02255011","4.21532416344","2792.23793507","1.78467583656","2794.0574801","2796.03569508","2796.07425213","2799.07721305","1","2799.09249806","2804.95482016",""
"sujeto_6fce57c3","1","3","29","93","2805.12656307","direct","3","1","2","¿En qué año entró en vigencia 
la ley antitabaco en Uruguay?","2005","2006","","1","1","1","competitive","right","2.57651877403","2807.70312595","2.42348122597","2810.28300595","4.63912391663","2814.92217207","1.36087608337","2816.336133","2817.93089294","2818.0027771","2821.00575399","1","2821.02096796","2826.3549881",""
"sujeto_6fce57c3","1","3","30","94","2826.48868608","inverse","3","1","1","¿Cuándo se subió el 
primer video a youtube?","2004","2005","","0","0","1","individual","right","3.56464910507","2830.05340004","1.43535089493","2831.66181803","4.02249288559","2835.68435216","1.97750711441","2837.71272898","2839.01836395","2839.06442809","2842.06734514","0","2842.08142805","2849.83620596",""
"sujeto_6fce57c3","1","3","31","95","2849.96500301","direct","2","1","1","¿Cuántos habitantes tiene India?","1200 millones","1300 millones","","0","0","0","competitive","right","2.3865749836","2852.35162306","2.6134250164","2855.12092209","4.83966517448","2859.96064901","1.16033482552","2861.15619206","2863.12578702","2863.20759606","2866.20822597","0","2866.22460103","2872.27210212",""
"sujeto_6fce57c3","1","3","32","96","2872.40939403","inverse","4","1","2","¿A qué edad murió Bob Marley?","36","37","","0","0","1","competitive","right","2.36042404175","2874.76988196","2.63957595825","2877.56933594","3.37048697472","2880.93988299","2.62951302528","2883.62038302","2885.51821709","2885.60540295","2888.60818601","0","2888.62239695","2891.72481704",""
"sujeto_6fce57c3","1","4","1","97","3015.70506001","direct","2","1","1","¿Cuantos años dirigió la selección 
uruguaya Tabarez?","15 años","13 años","","0","0","0","competitive","left","2.0502409935","3017.75536299","2.9497590065","3020.87695503","4.43336892128","3025.31036901","1.56663107872","3026.92929697","3028.12044811","3028.19626999","3031.1992321","0","3031.21343613","3038.28545713","2891.73631811"
"sujeto_6fce57c3","1","4","2","98","3038.4324801","inverse","4","1","1","¿Cuantas teclas tiene un teclado 
de computadora generalmente? ","Entre 99 y 108","Entre 109 y 113","","1","1","1","individual","left","2.42496681213","3040.85751414","2.57503318787","3043.60519505","4.45025682449","3048.05548716","1.54974317551","3049.65771794","3050.66042805","3050.70872211","3053.71164608","1","3053.72593117","3056.09623194",""
"sujeto_6fce57c3","1","4","3","99","3056.22702408","direct","1","1","1","¿Cuál Departamento tiene
 mayor superficie?","Río Negro","Soriano","","0","0","0","competitive","left","1.83256983757","3058.05964613","3.16743016243","3061.39913297","4.56956410408","3065.96873617","1.43043589592","3067.44988704","3069.16338205","3069.23445296","3072.237427","0","3072.25153995","3076.57763696",""
"sujeto_6fce57c3","1","4","4","100","3076.73656106","inverse","3","1","2","¿Cuál es el apellido de las 
hermanastras  de  cenicienta?","Tremaine","Truman","","0","0","1","competitive","right","3.6913599968","3080.42798615","1.3086400032","3081.89242506","5.61152410507","3087.50399017","0.388475894928","3087.94373202","3089.81218815","3089.89387608","3092.89618516","0","3092.91140914","3095.60735416",""
"sujeto_6fce57c3","1","4","5","101","3095.74584413","direct","4","1","4","¿Cuál película ganó un
 Oscar a mejor película?","Alto Impacto","Cache","","0","0","1","individual","right","1.83527302742","3097.58118701","3.16472697258","3100.92037606","5.019728899","3105.94016695","0.980271100998","3106.970577","3108.08995509","3108.13882399","3111.14051294","0","3111.15577817","3113.42041206",""
"sujeto_6fce57c3","1","4","6","102","3113.55740309","inverse","1","1","3","¿A cuántos centímetros
equivale la medida pié?","25","30","","0","0","1","competitive","right","1.55892014503","3115.11636996","3.44107985497","3118.71164799","4.09865903854","3122.81037807","1.90134096146","3124.76258111","3125.80258894","3125.88040805","3128.88338995","0","3128.8974781","3134.29844594",""
"sujeto_6fce57c3","1","4","7","103","3134.4334681","direct","2","1","2","¿Qué departamento es mas grande?","Cerro Largo","Paysandú","","0","0","0","competitive","right","3.39895796776","3137.83246994","1.60104203224","3139.58555412","4.12493109703","3143.71054506","1.87506890297","3145.64210105","3147.24185896","3147.32638001","3150.32936907","0","3150.3432641","3154.45324111",""
"sujeto_6fce57c3","1","4","8","104","3154.59512901","inverse","2","1","3","¿Quién pintó la Mona Lisa?","Picasso","Da Vinci","right","0","0","1","competitive","right","2.62552595139","3157.22070599","2.37447404861","3159.74761701","2.54212784767","3162.28978801","3.45787215233","3165.80110502","3167.40695095","3167.48598909","3170.488976","1","3170.50396395","3172.66628599",""
"sujeto_6fce57c3","1","4","9","105","3172.80554104","direct","4","1","3","¿Cuántos litros hay en un galon?","3.54","3.78","","1","1","1","individual","left","3.06827402115","3175.87388897","1.93172597885","3177.97719097","3.49665188789","3181.47390509","2.50334811211","3184.01111603","3185.52895403","3185.57963395","3188.58018398","1","3188.59628415","3194.38819003",""
"sujeto_6fce57c3","1","4","10","106","3194.53157902","inverse","4","1","1","¿Cuántas teclas tiene
 un piano moderno?","80","88","","0","0","1","individual","right","2.09946799278","3196.63109112","2.90053200722","3199.70462394","4.63245296478","3204.33714509","1.36754703522","3205.73982501","3206.74822807","3206.79084301","3209.79382014","0","3209.80787206","3216.60562897",""
"sujeto_6fce57c3","1","4","11","107","3216.75947809","direct","4","1","3","¿Cuántos países hay en África?","54","62","","0","0","1","competitive","left","2.77488017082","3219.53442407","2.22511982918","3221.91409516","3.30625414848","3225.22039199","2.69374585152","3227.9669981","3229.65750599","3229.73522711","3232.73818016","0","3232.75251794","3240.55724907",""
"sujeto_6fce57c3","1","4","12","108","3240.68676209","inverse","1","1","3","¿En qué siglo se crearon
 las primeras pistolas?","XV","XIII","","1","1","1","competitive","right","1.36323189735","3242.05007005","3.63676810265","3245.86221814","4.03226804733","3249.89452815","1.96773195267","3251.91342497","3253.86023402","3253.93062305","3256.93359017","1","3256.94815516","3260.181252",""
"sujeto_6fce57c3","1","4","13","109","3260.31641316","direct","3","1","4","¿En qué año se estrenó 
la serie friends?","1994","1995","","0","0","1","competitive","left","1.89825510979","3262.2147131","3.10174489021","3265.50623012","3.45441102982","3268.96068215","2.54558897018","3271.55701804","3273.43235707","3273.50858998","3276.51156211","0","3276.52579808","3281.53186607",""
"sujeto_6fce57c3","1","4","14","110","3281.67744613","inverse","3","1","4","¿En qué año nació Hitler?","1889","1887","","0","0","1","competitive","right","1.35477399826","3283.03227806","3.64522600174","3286.83298612","4.17280507088","3291.00585604","1.82719492912","3292.88515115","3293.99949694","3294.06860805","3297.07158995","0","3297.08663917","3302.11362815",""
"sujeto_6fce57c3","1","4","15","111","3302.25416994","direct","1","1","4","¿Cuánto pesa un elefante Africano?","6000 kilos","5400 kilos","","0","0","0","competitive","right","1.46381592751","3303.71802998","3.53618407249","3307.42620015","3.21776103973","3310.64401913","2.78223896027","3313.47705197","3314.83294606","3314.91201305","3317.91496611","0","3317.92921305","3324.63628316",""
"sujeto_6fce57c3","1","4","16","112","3324.76558995","inverse","1","1","2","¿Qué porcentaje de 
la población es zurda?","10%","7%","","1","1","0","competitive","right","2.09363698959","3326.85929108","2.90636301041","3329.92276716","4.41947412491","3334.34228301","1.58052587509","3335.97484207","3337.21793294","3337.29205203","3340.29506016","1","3340.3094101","3346.28913116",""
"sujeto_6fce57c3","1","4","17","113","3346.42731714","direct","1","1","2","¿En qué año se estrenó
Volver al futuro?","1984","1985","","0","0","1","competitive","left","1.22007894516","3347.64746594","3.77992105484","3351.60117412","3.58126497269","3355.18248415","2.41873502731","3357.65123296","3359.2130301","3359.28680897","3362.28978705","0","3362.30305696","3369.39448214",""
"sujeto_6fce57c3","1","4","18","114","3369.53820515","inverse","3","1","2","¿Cuántos jugadores hay en un 
equipo de baseball?","9","8","","1","1","0","individual","left","2.5413980484","3372.07964706","2.4586019516","3374.69651413","4.10210704803","3378.79866314","1.89789295197","3380.74755716","3382.36179113","3382.39832115","3385.40131211","1","3385.41533899","3390.39260101",""
"sujeto_6fce57c3","1","4","19","115","3390.51679111","direct","2","1","1","¿Cuántos Oscar ganó
 la película titanic?","13","11","","1","1","1","competitive","right","1.26998114586","3391.7868371","3.73001885414","3395.68587112","3.86093592644","3399.54686594","2.13906407356","3401.7220161","3403.02401996","3403.10633206","3406.10823798","1","3406.1235311","3410.726197",""
"sujeto_6fce57c3","1","4","20","116","3410.87567902","inverse","4","1","4","¿En qué año comenzó
la segunda guerra mundial?","1939","1976","left","0","0","1","","","","","","","","","","","","","","","3415.88443708","3419.87157416",""
"sujeto_6fce57c3","1","4","21","117","3420.00044107","direct","2","1","4","¿Cuántos biomas hay en Uruguay?","5","4","","0","0","1","competitive","right","1.66961812973","3421.67012906","3.33038187027","3425.15494609","3.22112512589","3428.37616515","2.77887487411","3431.20651507","3433.00386906","3433.07505798","3436.07802105","0","3436.09280205","3442.34219909",""
"sujeto_6fce57c3","1","4","22","118","3442.47705197","inverse","2","1","3","¿Cuándo murió Pablo Escobar?","1993","1997","","1","1","1","competitive","right","2.13818502426","3444.61530805","2.86181497574","3447.63371301","3.37255597115","3451.00631213","2.62744402885","3453.684973","3455.46782207","3455.55363297","3458.55661201","1","3458.57078004","3464.27444696",""
"sujeto_6fce57c3","1","4","23","119","3464.40571713","direct","1","1","4","¿Qué serie ha ganado mas premios?","Friends","Murphy Brown","","1","1","0","competitive","left","1.47071504593","3465.87649703","3.52928495407","3469.57924414","2.83622717857","3472.41553307","3.16377282143","3475.62970996","3476.98211908","3477.06509113","3480.0680511","1","3480.0823071","3485.64299798",""
"sujeto_6fce57c3","1","4","24","120","3485.78310895","inverse","4","1","2","¿Cuántas fichas tiene el dominó?","26","28","","1","1","1","individual","right","1.35557389259","3487.13881111","3.64442610741","3490.93764997","3.6880030632","3494.62572002","2.3119969368","3496.99061394","3498.04589915","3498.09104705","3501.09403205","1","3501.10947204","3506.35258794",""
"sujeto_6fce57c3","1","4","25","121","3506.52511811","direct","2","1","4","¿Cuántos son los dientes de leche?","20","25","","0","0","1","competitive","left","1.26268005371","3507.78784609","3.73731994629","3511.68323302","3.93452000618","3515.61778998","2.06547999382","3517.73572397","3519.44609499","3519.51937294","3522.52236104","0","3522.53740096","3524.68311",""
"sujeto_6fce57c3","1","4","26","122","3524.80516601","inverse","3","1","3","¿Cuántos gramos son una onza?","22","28","","0","0","1","individual","left","2.21681594849","3527.02202797","2.78318405151","3529.96006799","4.05790686607","3534.01803613","1.94209313393","3536.01198101","3538.00685","3538.04692698","3541.04987717","0","3541.06407905","3547.35220814",""
"sujeto_6fce57c3","1","4","27","123","3547.49914503","direct","3","1","1","¿Cuándo salió el primer album
 de los Beatles?","1963","1962","","1","1","1","individual","right","2.2790210247","3549.77821112","2.7209789753","3552.65649605","4.62270903587","3557.27926612","1.37729096413","3558.70845509","3559.87207603","3559.90840912","3562.91135907","1","3562.92482305","3566.69686294",""
"sujeto_6fce57c3","1","4","28","124","3566.84226513","inverse","3","1","3","¿Quién fundó la empresa apple?","Carlos Slim","Steve Jobs","","1","1","1","individual","right","2.86006212234","3569.70237207","2.13993787766","3572.01510501","2.79731583595","3574.81248307","3.20268416405","3578.05025315","3579.16490412","3579.20214295","3582.20423603","1","3582.21940303","3588.51726103",""
"sujeto_6fce57c3","1","4","29","125","3588.65370107","direct","4","1","2","¿Cuántos municipios hay
 en Montevideo?","8","7","","1","1","1","individual","left","1.57780694962","3590.23155499","3.42219305038","3593.81195998","3.78657007217","3597.59859705","2.21342992783","3599.8600471","3601.77482009","3601.82731605","3604.83029199","1","3604.84458017","3606.92422104",""
"sujeto_6fce57c3","1","4","30","126","3607.06303906","inverse","1","1","1","¿Cuántos kilómetros hay
 de Montevideo a Artigas?","632","599","","0","0","0","","","","","","","","","","","","","","","3612.07078004","3618.12289",""
"sujeto_6fce57c3","1","4","31","127","3618.23721814","direct","2","1","2","¿En qué año nació 
Leonardo Da Vinci?","1452","1511","","1","1","0","competitive","right","1.69858813286","3619.9358511","3.30141186714","3623.3921411","3.51968216896","3626.91188216","2.48031783104","3629.44412303","3631.29772401","3631.37766194","3634.38023496","1","3634.39552712","3637.54193997",""
"sujeto_6fce57c3","1","4","32","128","3637.66367006","inverse","3","1","1","¿A qué continente
 pertenece el país Gabón?","Africa","Oceanía","","0","0","1","individual","left","3.12024497986","3640.78398204","1.87975502014","3642.835917","4.13207888603","3646.96803999","1.86792111397","3648.88836002","3650.69999313","3650.73938394","3653.74017906","0","3653.756459","3658.99219298",""
