"code","nro_aplicante","nro_bloque","nro_trial_bloque","nro_trial_global","show_game_type","choice_order","rival","pay_individual","pay_competitive","question","answer_left_text","answer_right_text","correct_answer","outcome_individual","outcome_competitive","outcome_rival","game_type","answer","social_time","rt_game_type","feedback_delay","show_question","answer_time","rt_answer_global","feedback_delay_2","show_jitter","jitter_time","show_outcome","outcome_time","outcome_participant_real","show_final_jitter","second_jitter_time","inicio_descanso"
"sujeto_72b8e12c","1","1","1","1","724.349321127","direct","3","1","4","¿Cuántos centímetros corresponden
al talle 36 del calzado?","23","24","","0","0","1","competitive","left","2.89618301392","727.245568037","2.10381698608","729.504072189","2.70245814323","732.206574202","3.29754185677","735.556431055","736.584733009","736.657922029","739.660877228","0","739.67536521","741.837874174",""
"sujeto_72b8e12c","1","1","2","2","741.960046053","inverse","3","1","2","¿Cuántas metros mide la Intendencia
Municipal de Montevideo? ","84","78","","0","0","1","competitive","left","1.23154091835","743.191660166","3.76845908165","747.109897137","3.24362492561","750.353579998","2.75637507439","753.145279169","755.023347139","755.096626043","758.099044085","0","758.114225149","760.206984043",""
"sujeto_72b8e12c","1","1","3","3","760.366475105","direct","1","1","3","¿Cuántas La Pasiva
 hay en uruguay?","15","11","","1","1","1","competitive","left","1.64008688927","762.006605148","3.35991311073","765.508100033","3.10344290733","768.611601114","2.89655709267","771.557672024","773.169367075","773.243331194","776.246328115","1","776.260950089","780.539059162",""
"sujeto_72b8e12c","1","1","4","4","780.660946131","inverse","3","1","3","¿De que color es la camiseta de uruguay?","blanca","celeste","right","1","1","1","competitive","right","0.887666940689","781.548656225","4.11233305931","785.800692081","2.783867836","788.584598064","3.216132164","791.851826191","793.056548119","793.136026144","796.138992071","1","796.153941154","799.607821226",""
"sujeto_72b8e12c","1","1","5","5","799.75744319","direct","2","1","1","¿Cuánto metros mide
la torre Eiffel?","333","324","","1","1","1","competitive","left","1.4312081337","801.18872714","3.5687918663","804.911508083","2.9781088829","807.88967514","3.0218911171","810.942966223","812.463034153","812.544205189","815.547161102","1","815.561440229","822.592432022",""
"sujeto_72b8e12c","1","1","6","6","822.768601179","inverse","3","1","4","¿Cuantas ciudades existen
 en todo el uruguay?","63","72","","0","0","1","competitive","right","0.771047115326","823.539698124","4.22895288467","827.922502995","3.94108295441","831.86364603","2.05891704559","833.957317114","835.012131214","835.091703176","838.094664097","0","838.108905077","845.73547101",""
"sujeto_72b8e12c","1","1","7","7","845.877019167","direct","1","1","1","¿Cuantos estados tiene África?","52","54","","1","1","0","competitive","left","1.41859102249","847.295652151","3.58140897751","851.018545151","3.33701705933","854.355602026","2.66298294067","857.068762064","858.932788134","859.003996134","862.006977081","1","862.021393061","867.782424212",""
"sujeto_72b8e12c","1","1","8","8","867.922570229","inverse","4","1","4","¿En qué año nació
 Stephen Hawking?","1952","1942","","0","0","1","competitive","right","0.79910993576","868.721733093","4.20089006424","873.096234083","3.55841398239","876.654692173","2.44158601761","879.146739006","880.591046095","880.665021181","883.667978048","0","883.682210207","889.781554222",""
"sujeto_72b8e12c","1","1","9","9","889.922060013","direct","2","1","3","¿Cuánto años tenía Artigas
 cuando se fue a Paraguay?","56","57","","1","1","1","competitive","left","0.953594923019","890.875699043","4.04640507698","895.091264009","3.48639392853","898.577697039","2.51360607147","901.141509056","902.691074133","902.776797056","905.779791117","1","905.793977022","911.841281176",""
"sujeto_72b8e12c","1","1","10","10","911.978202105","inverse","1","1","2","¿Cuantos milímetros 
mide una hoja A2?","420x592","420x594","","0","0","1","competitive","right","0.953492879868","912.931761026","4.04650712013","917.149195194","3.30348396301","920.452718019","2.69651603699","923.201821089","924.770191193","924.853495121","927.856462002","0","927.870511055","934.944146156",""
"sujeto_72b8e12c","1","1","11","11","935.071732998","direct","3","1","3","¿Cuál es la menor temperatura 
registrada en Uruguay?","-5.4","-7.4","","0","0","1","competitive","right","1.45992302895","936.531723022","3.54007697105","940.231033087","4.19556379318","944.426634073","1.80443620682","946.265612125","947.94701004","948.016194105","951.019175053","0","951.03342104","954.766689062",""
"sujeto_72b8e12c","1","1","12","12","954.918420076","inverse","2","1","2","¿Cuantos años hace que 
se fundó facebook?","18","17","","0","0","0","competitive","left","0.906267881393","955.824748039","4.09373211861","960.073960066","3.73870992661","963.8127141","2.26129007339","966.125771046","967.498484135","967.576803207","970.579778194","0","970.594182014","973.368816137",""
"sujeto_72b8e12c","1","1","13","13","973.495724201","direct","1","1","4","¿Cuál animal es más
 pesado en promedio?","Rinoceronte","Hipopotamo","","0","0","0","competitive","right","1.23991703987","974.73570919","3.76008296013","978.650518179","4.00313401222","982.653695107","1.99686598778","984.751435995","985.830633163","985.903073072","988.906057119","0","988.920097113","992.761101007",""
"sujeto_72b8e12c","1","1","14","14","992.888226032","inverse","1","1","2","¿Qué personaje de dragon ball 
murió más veces?","Chaoz","Krillin","","1","1","0","competitive","right","1.15954709053","994.047823191","3.84045290947","998.025552034","3.2581589222","1001.28377104","2.7418410778","1004.05946422","1005.517277","1005.59474111","1008.59766316","1","1008.61184907","1016.38478208",""
"sujeto_72b8e12c","1","1","15","15","1016.51714516","direct","3","1","2","La universidad de oxford. 
existe desde:","1096","1249","","1","1","0","competitive","left","0.844574213028","1017.36178923","4.15542578697","1021.67256308","3.87916588783","1025.55178714","2.12083411217","1027.70712304","1028.75588107","1028.84144521","1031.84443712","1","1031.85871601","1038.54955816",""
"sujeto_72b8e12c","1","1","16","16","1038.67640805","inverse","3","1","1","¿Qué escritor latino ganó antes
 el premio nobel?"," García Marquez","Neruda","","0","0","1","competitive","right","0.717331886292","1039.39381409","4.28266811371","1043.83362103","3.96014308929","1047.79381418","2.03985691071","1049.8685112","1051.60852003","1051.68652701","1054.68952322","0","1054.70384312","1058.16437006",""
"sujeto_72b8e12c","1","1","17","17","1058.2889781","direct","4","1","3","¿Cuántos dientes tiene un
 tiburón blanco?","6000","3000","","0","0","1","competitive","right","0.649742841721","1058.938766","4.35025715828","1063.4613452","3.16836905479","1066.62975502","2.83163094521","1069.5119102","1070.55093718","1070.63000512","1073.63299417","0","1073.64701605","1078.45666599",""
"sujeto_72b8e12c","1","1","18","18","1078.60185719","inverse","4","1","1","¿Cuánto mide el paralelo Ecuador?","40.000km","70.000km","","0","0","1","competitive","right","2.37885904312","1080.98075819","2.62114095688","1083.76819921","4.35651993752","1088.12476206","1.64348006248","1089.82281709","1091.77893305","1091.857342","1094.86033201","0","1094.87450314","1098.47707319",""
"sujeto_72b8e12c","1","1","19","19","1098.64278102","direct","4","1","2","¿Cuál fue el primer libro 
de Stephen King?","Carrie","The Stand","","1","1","1","competitive","right","1.5329349041","1100.1757791","3.4670650959","1103.79901505","4.02267193794","1107.82172513","1.97732806206","1109.84964609","1111.59370613","1111.66695213","1114.66988111","1","1114.68415403","1119.15502",""
"sujeto_72b8e12c","1","1","20","20","1119.28645301","inverse","2","1","3","¿Qué civilización practicaba
 la momificación?","Grecia","Egipto","right","0","0","1","competitive","right","0.954593896866","1120.24111104","4.04540610313","1124.4258182","2.91092896461","1127.33681202","3.08907103539","1130.45975804","1132.39906502","1132.47771716","1135.47900915","1","1135.49510121","1139.72300911",""
"sujeto_72b8e12c","1","1","21","21","1139.85813522","direct","4","1","4","¿Cuántos millones de visitas
 recibe google por minuto?","3.0","4.5","","0","0","1","competitive","right","0.913677930832","1140.77186418","4.08632206917","1145.01698899","3.68583798409","1148.7028892","2.31416201591","1151.06931019","1152.5830431","1152.67096019","1155.67394209","0","1155.68794417","1162.81062102",""
"sujeto_72b8e12c","1","1","22","22","1162.93917823","inverse","1","1","3","La máquina de fax. se inventó en:","1843","1960","","0","0","1","competitive","left","0.894665956497","1163.83389521","4.1053340435","1168.09717202","3.4786438942","1171.57588315","2.5213561058","1174.13067913","1175.37278605","1175.44886112","1178.45181918","0","1178.46704912","1181.70335817",""
"sujeto_72b8e12c","1","1","23","23","1181.83608723","direct","2","1","4","En la verdadera historia de los
 300 espartanos. habían:","300 soldados","4300 soldados","","1","1","1","competitive","right","1.09976005554","1182.93591404","3.90023994446","1186.99096107","4.89377593994","1191.88480115","1.10622406006","1193.04320502","1194.30443621","1194.37669516","1197.37965608","1","1197.39315605","1201.19496107",""
"sujeto_72b8e12c","1","1","24","24","1201.34612322","inverse","1","1","4","¿Cuántos milímetros crece
 el pelo por día?","0.4","0.04","","0","0","0","competitive","right","1.33162713051","1202.6778152","3.66837286949","1206.50166702","3.38914489746","1209.89088321","2.61085510254","1212.55176401","1214.31247616","1214.38679218","1217.38975811","0","1217.40388918","1224.13896203",""
"sujeto_72b8e12c","1","1","25","25","1224.30570507","direct","4","1","1","¿Cuánto mide la baldosa gris 
clásica de Montevideo?","22x22 cm.","20x20 cm.","","1","1","1","competitive","right","0.940135002136","1225.24594307","4.05986499786","1229.4917922","4.51301193237","1234.00484419","1.48698806763","1235.54496717","1237.54022217","1237.62977314","1240.6310091","1","1240.64631605","1246.18911099",""
"sujeto_72b8e12c","1","1","26","26","1246.31458807","inverse","2","1","2","¿Cuántas películas de rápidos
 y furiosos hay?","10","11","","1","1","0","competitive","right","1.62123990059","1247.93587208","3.37876009941","1251.45866323","3.55714011192","1255.01584315","2.44285988808","1257.49232507","1258.8503201","1258.92598009","1261.92700911","1","1261.94325304","1263.97791505",""
"sujeto_72b8e12c","1","1","27","27","1264.11240101","direct","3","1","1","¿Cuántos masters 1000
 ganó Del Potro?","1","2","","1","1","1","competitive","right","0.900413990021","1265.01286316","4.09958600998","1269.2833972","3.71441507339","1272.99787402","2.28558492661","1275.31794715","1277.07100821","1277.1527791","1280.15571213","1","1280.16993999","1287.56631303",""
"sujeto_72b8e12c","1","1","28","28","1287.70637918","inverse","2","1","4","¿Cuántos meses dura el 
embarazo de una leona?","3 meses","4 meses","","0","0","1","competitive","left","0.857465982437","1288.56388903","4.14253401756","1292.86276913","4.14704990387","1297.00985622","1.85295009613","1298.91316509","1300.02421021","1300.09763122","1303.10063601","0","1303.11471605","1309.83502316",""
"sujeto_72b8e12c","1","1","29","29","1309.96620202","direct","1","1","1","¿En qué año fue creado
 el sandwich?","1762","1653","","1","1","0","competitive","right","2.12861394882","1312.09488201","2.87138605118","1315.1384182","3.52545595169","1318.66391611","2.47454404831","1321.19221401","1322.79069209","1322.8593781","1325.8622961","1","1325.87760115","1329.348207",""
"sujeto_72b8e12c","1","1","30","30","1329.47855902","inverse","4","1","2","El nombre de la moneda de Vietnam es:","Dinar","Dong","","0","0","1","competitive","left","1.60935807228","1331.08798409","3.39064192772","1334.63472819","3.28313994408","1337.91792512","2.71686005592","1340.68451214","1342.11653209","1342.18629503","1345.18927121","0","1345.20359802","1351.37102008",""
"sujeto_72b8e12c","1","1","31","31","1351.53206015","direct","2","1","1","¿cuantos aleteos puede dar 
un colibrí por segundo?","120","50","","0","0","0","competitive","left","0.893804073334","1352.42590809","4.10619592667","1356.69484019","4.37405395508","1361.06895304","1.62594604492","1362.74697304","1364.47937822","1364.56390619","1367.56684518","0","1367.5812211","1371.79101014",""
"sujeto_72b8e12c","1","1","32","32","1371.93347716","inverse","4","1","3","¿Qué altura promedio tienen
 los hombres uruguayos?","1.73 m","1.72 m","","1","1","1","competitive","left","1.41245412827","1373.34598207","3.58754587173","1377.0868001","3.55306506157","1380.63990307","2.44693493843","1383.13928103","1384.40170312","1384.47331619","1387.47627401","1","1387.490345","1391.96305418",""
"sujeto_72b8e12c","1","2","1","33","1518.22743607","direct","1","1","1","¿En qué año nació 
el actor Bradd Pitt?","1967","1963","","1","1","1","competitive","left","1.1045050621","1519.33198404","3.8954949379","1523.3811202","3.60180497169","1526.98296714","2.39819502831","1529.4316771","1530.52754211","1530.59964013","1533.60261917","1","1533.61668611","1539.54428005","1391.97458816"
"sujeto_72b8e12c","1","2","2","34","1539.6690352","inverse","2","1","1","¿Cual es el segundo 
monte más alto?","Kanchenjunga","K2","","1","1","1","competitive","left","0.947926044464","1540.61700511","4.05207395554","1544.8251822","4.27680802345","1549.10205817","1.72319197655","1550.86044002","1552.3128202","1552.39394903","1555.39691401","1","1555.41207004","1558.84195209",""
"sujeto_72b8e12c","1","2","3","35","1558.98037004","direct","3","1","1","¿Cuándo finalizó la construcción
 del Palacio Legislativo?","1925","1917","","0","0","1","competitive","right","0.999625921249","1559.98006511","4.00037407875","1564.1350801","4.48183083534","1568.61695313","1.51816916466","1570.18641305","1571.82809305","1571.90375519","1574.90673208","0","1574.92102408","1580.61859012",""
"sujeto_72b8e12c","1","2","4","36","1580.75615501","inverse","3","1","3","¿Cuántos integrantes tenía
 en su inicio  el cuarteto de nos?","3","4","","1","1","1","competitive","left","1.23283004761","1581.98903418","3.76716995239","1585.91351414","3.5974521637","1589.51102614","2.4025478363","1591.96402216","1593.09711814","1593.18203115","1596.185009","1","1596.19931912","1601.84913015",""
"sujeto_72b8e12c","1","2","5","37","1601.98356819","direct","2","1","3","¿Qué valor tiene el número pi?","3.14","4.18","left","0","0","1","competitive","left","1.56843709946","1603.55206704","3.43156290054","1607.12489414","2.93110918999","1610.05606413","3.06889081001","1613.17435908","1614.62857413","1614.70981717","1617.71105218","1","1617.72740316","1624.64837909",""
"sujeto_72b8e12c","1","2","6","38","1624.77873206","inverse","2","1","2","¿Cuál es la esperanza de vida
 en Uruguay?","75","77","","1","1","0","competitive","left","0.703346967697","1625.48218107","4.2966530323","1629.93497205","2.98204708099","1632.91708922","3.01795291901","1635.98640513","1637.63905406","1637.72143221","1640.7244122","1","1640.738379","1647.20139623",""
"sujeto_72b8e12c","1","2","7","39","1647.34037709","direct","1","1","2","¿Cuantos pisos tiene la torre 
de las comunicaciones?","26","32","","1","1","0","competitive","right","1.08667898178","1648.42711902","3.91332101822","1652.49337602","4.41262102127","1656.90604115","1.58737897873","1658.52871513","1660.35748506","1660.42963505","1663.43261409","1","1663.44685006","1665.5930531",""
"sujeto_72b8e12c","1","2","8","40","1665.73240209","inverse","2","1","4","¿En qué país sudamericano 
no hay McDonalds?","Bolivia","Venezuela","","0","0","1","competitive","left","0.867686033249","1666.60016704","4.13231396675","1670.88975215","3.6682741642","1674.55808806","2.3317258358","1676.93657112","1678.24591112","1678.32011414","1681.32308221","0","1681.33725405","1687.69431901",""
"sujeto_72b8e12c","1","2","9","41","1687.82433605","direct","3","1","1","¿En qué año empieza
 la Edad Media?","476","512","","1","1","1","competitive","left","1.22968101501","1689.05408812","3.77031898499","1692.96904016","4.68497300148","1697.65405822","1.31502699852","1699.0198071","1700.42358112","1700.50357413","1703.50654602","1","1703.52080917","1706.50937819",""
"sujeto_72b8e12c","1","2","10","42","1706.63990808","inverse","3","1","4","¿Hace cuántos años surgió
 el ser humano?","200mil","300mil","","0","0","0","competitive","left","1.63013982773","1708.27011013","3.36986017227","1711.794626","3.97434091568","1715.76900315","2.02565908432","1717.82793307","1719.71395516","1719.79651213","1722.79949307","0","1722.81410122","1726.12457013",""
"sujeto_72b8e12c","1","2","11","43","1726.26522207","direct","3","1","4","¿Cuántas cuadras tiene
 actualmente 18 de julio? ","36","33","","0","0","1","competitive","left","0.937897920609","1727.2032001","4.06210207939","1731.40472412","4.38228988647","1735.787076","1.61771011353","1737.45565009","1739.15788913","1739.239779","1742.24277711","0","1742.25706911","1746.98298907",""
"sujeto_72b8e12c","1","2","12","44","1747.12514019","inverse","1","1","4","¿Qué juego de equipo se 
considera mas rápido?","Lacrosse","Badminton","","0","0","0","competitive","left","1.12089586258","1748.24607706","3.87910413742","1752.282408","4.34965085983","1756.63209605","1.65034914017","1758.33311009","1759.57616401","1759.65156603","1762.65455413","0","1762.66789007","1770.6629951",""
"sujeto_72b8e12c","1","2","13","45","1770.81994605","direct","1","1","3","¿Qué promedio de edad 
vive una jirafa? ","25","20","","0","0","1","competitive","right","0.831170082092","1771.65118504","4.16882991791","1775.97784305","3.39727282524","1779.37515306","2.60272717476","1782.01200008","1783.7734971","1783.84707808","1786.85001612","0","1786.86427808","1792.81997514",""
"sujeto_72b8e12c","1","2","14","46","1792.96530509","inverse","1","1","2","¿Cuántos grandes lagos hay?","7","5","","0","0","1","competitive","left","1.44184803963","1794.40721703","3.55815196037","1798.12305522","3.24101305008","1801.36412811","2.75898694992","1804.15559912","1805.44776607","1805.53226805","1808.53499603","0","1808.54147315","1816.36286712",""
"sujeto_72b8e12c","1","2","15","47","1816.50864601","direct","3","1","2","¿Cuántos discos de estudio
 grabó Johhny Cash? ","54","43","","1","1","0","competitive","right","1.06851601601","1817.57720613","3.93148398399","1821.666991","3.99401593208","1825.6610682","2.00598406792","1827.70106506","1828.97971606","1829.05199504","1832.0549562","1","1832.06960821","1838.71899199",""
"sujeto_72b8e12c","1","2","16","48","1838.85411501","inverse","4","1","1","¿Cuántos barrios tiene
 Montevideo? ","71","62","","0","0","1","competitive","left","0.837073087692","1839.69123316","4.16292691231","1843.99577713","3.25935411453","1847.25519109","2.74064588547","1850.02969909","1851.03677106","1851.11449909","1854.11749101","0","1854.1318152","1859.59386611",""
"sujeto_72b8e12c","1","2","17","49","1859.73196602","direct","3","1","3","¿Qué edad tiene Homero Simpson?","36","42","","0","0","1","competitive","right","1.00016093254","1860.73223209","3.99983906746","1864.90711021","4.06096315384","1868.96811509","1.93903684616","1870.94123411","1872.31727719","1872.39278412","1875.39577913","0","1875.41005111","1879.79880118",""
"sujeto_72b8e12c","1","2","18","50","1879.94441319","inverse","4","1","2","¿Cuántos países con monarquía 
hay en europa actualmente? ","6","10","","1","1","1","competitive","left","0.991742134094","1880.93625617","4.00825786591","1885.10066319","3.85242700577","1888.95313501","2.14757299423","1891.15164018","1892.58995223","1892.66989923","1895.67288113","1","1895.68688822","1901.8437252",""
"sujeto_72b8e12c","1","2","19","51","1901.97170401","direct","2","1","3","¿Cuántos capítulos de
 Friends existen? ","236","228","","1","1","1","competitive","left","1.04354310036","1903.01532221","3.95645689964","1907.12739515","2.84081220627","1909.96824813","3.15918779373","1913.1774292","1914.4829812","1914.56231022","1917.56528521","1","1917.58068013","1919.95627308",""
"sujeto_72b8e12c","1","2","20","52","1920.09841919","inverse","1","1","3","¿Cuántas óperas compuso Mozart? ","27","22","","1","1","1","competitive","left","1.04976415634","1921.14824605","3.95023584366","1925.25440311","3.41676998138","1928.67123604","2.58323001862","1931.30515718","1932.59731412","1932.67362118","1935.67659402","1","1935.69087219","1943.00235915",""
"sujeto_72b8e12c","1","2","21","53","1943.14194703","direct","4","1","3","¿Cuántos mundiales de fútbol 
femenino ha realizado FIFA? ","9","7","","1","1","1","competitive","left","0.937259912491","1944.07927108","4.06274008751","1948.31594205","3.84220600128","1952.15819216","2.15779399872","1954.35085821","1955.59457016","1955.6686461","1958.67104602","1","1958.68606019","1964.78853822",""
"sujeto_72b8e12c","1","2","22","54","1964.92109919","inverse","3","1","2","¿Cuál es la temperatura 
media anual en Montevideo? ","17.5","16.3","","0","0","1","competitive","left","0.982079982758","1965.90322304","4.01792001724","1970.07741904","4.26674985886","1974.34420919","1.73325014114","1976.12864614","1978.0669961","1978.14630413","1981.14927912","0","1981.16419601","1987.73101401",""
"sujeto_72b8e12c","1","2","23","55","1987.86594701","direct","2","1","2","¿En qué año se estrenó el
 videojuego The Sims? ","2000","2002","","0","0","0","competitive","right","1.43026995659","1989.29626107","3.56973004341","1993.01831722","4.03987002373","1997.05823112","1.96012997627","1999.07054305","2000.93101311","2001.00543022","2004.00841618","0","2004.022686","2011.41634512",""
"sujeto_72b8e12c","1","2","24","56","2011.57420921","inverse","2","1","1","¿Cuál es la canción con 
mas covers? ","Yesterday","Stand by me","","0","0","0","competitive","right","1.06407308578","2012.63839221","3.93592691422","2016.73514819","4.05798316002","2020.79318905","1.94201683998","2022.76935005","2024.16791701","2024.23731208","2027.2390511","0","2027.25426102","2031.42507219",""
"sujeto_72b8e12c","1","2","25","57","2031.57340813","direct","1","1","4","¿Cuánto duró la guerra
 de los 100 años?","116","123","","0","0","0","competitive","right","1.29586100578","2032.86933708","3.70413899422","2036.72810411","2.53909397125","2039.26723719","3.46090602875","2042.77943516","2044.25905514","2044.32996607","2047.33296204","0","2047.34845519","2049.66779423",""
"sujeto_72b8e12c","1","2","26","58","2049.8326211","inverse","4","1","4","¿Qué color tiene la  bandera de Brasil?","Amarillo","Naranja","left","0","0","1","competitive","left","0.938608884811","2050.7712791","4.06139111519","2054.97069407","3.12440800667","2058.09513617","2.87559199333","2061.02159119","2062.58807516","2062.67346001","2065.67506123","1","2065.69113922","2068.72394109",""
"sujeto_72b8e12c","1","2","27","59","2068.85883021","direct","4","1","3","¿Qué carabela de 
Colon no volvió del viaje?","Santa María","La pinta","","0","0","1","competitive","right","1.00955700874","2069.86847401","3.99044299126","2074.01520205","3.95503997803","2077.97028804","2.04496002197","2080.06642723","2081.5574832","2081.6336751","2084.63665199","0","2084.65102601","2086.75050211",""
"sujeto_72b8e12c","1","2","28","60","2086.90269423","inverse","4","1","4","¿Cuántos huesos tiene
 un adulto humano?","217","206","","0","0","1","competitive","right","1.08558702469","2087.98832607","3.91441297531","2092.07414317","3.2061111927","2095.28030109","2.7938888073","2098.12521911","2099.39625621","2099.47511721","2102.47807717","0","2102.49327517","2110.33098412",""
"sujeto_72b8e12c","1","2","29","61","2110.46145415","direct","1","1","1","¿Qué país africano fue 
fundado por esclavos?","Liberia","Chad","","0","0","0","competitive","left","1.53578615189","2111.99729013","3.46421384811","2115.61951518","4.62980604172","2120.24938917","1.37019395828","2121.67128706","2123.66295004","2123.73806","2126.741045","0","2126.75655508","2134.74699807",""
"sujeto_72b8e12c","1","2","30","62","2134.89063215","inverse","4","1","2","¿A cuánto asciende la cima
 del monte Everest?","7.990 mts","8.848 mts","","0","0","1","competitive","left","1.12161016464","2136.01228499","3.87838983536","2140.04870701","3.33548903465","2143.38426304","2.66451096535","2146.09977102","2147.28462601","2147.36730719","2150.37028909","0","2150.38421702","2157.56824923",""
"sujeto_72b8e12c","1","2","31","63","2157.70535922","direct","4","1","1","¿Cuál es el país mas chico?","Sealand","Luxemburgo","","1","1","1","competitive","right","1.09995412827","2158.80536103","3.90004587173","2162.85546708","3.58578085899","2166.44130921","2.41421914101","2168.90729022","2170.77082205","2170.85835719","2173.86135221","1","2173.87677622","2176.99904013",""
"sujeto_72b8e12c","1","2","32","64","2177.14535904","inverse","2","1","4","¿Cuántas pirámides hay en Egipto?","10000","11000","","1","1","1","competitive","left","0.866980075836","2178.01241803","4.13301992416","2182.30405712","3.21521115303","2185.51930904","2.78478884697","2188.35412121","2189.38771915","2189.47254109","2192.47549701","1","2192.48987412","2197.5989511",""
"sujeto_72b8e12c","1","3","1","65","2306.31576514","direct","2","1","2","¿Cuál es el quinto país con 
mas extensión?","Canadá","Brasil","","1","1","0","competitive","left","1.57560300827","2307.89140916","3.42439699173","2311.47067404","2.88463306427","2314.35536623","3.11536693573","2317.52116013","2318.85445023","2318.93958116","2321.9425652","1","2321.95657206","2329.68295908","2197.61042619"
"sujeto_72b8e12c","1","3","2","66","2329.80845213","inverse","1","1","2","¿Qué rasgo facial no tiene
 la Mona Lisa?","Cejas","Pómulos","","0","0","1","competitive","left","1.14898610115","2330.95750308","3.85101389885","2334.9615941","4.3477139473","2339.30934906","1.6522860527","2340.9966712","2342.7469852","2342.83043218","2345.83341002","0","2345.84764123","2352.11898112",""
"sujeto_72b8e12c","1","3","3","67","2352.25138712","direct","4","1","3","¿Cuál es el país con 
mayor población?","Esados Unidos","China","right","0","0","1","competitive","right","2.20901918411","2354.46047807","2.79098081589","2357.4252491","2.8511660099","2360.27647805","3.1488339901","2363.4778161","2365.12305307","2365.21297622","2368.21597409","1","2368.23004913","2371.59738421",""
"sujeto_72b8e12c","1","3","4","68","2371.73168612","inverse","1","1","1","La palabra dinosaurio significa","Lagarto Terrible","Lagarto Dragón","","1","1","0","competitive","left","0.756779193878","2372.48850918","4.24322080612","2376.9040041","3.28142094612","2380.18546605","2.71857905388","2382.95441413","2384.12475109","2384.20577312","2387.20875216","1","2387.22305703","2390.08488607",""
"sujeto_72b8e12c","1","3","5","69","2390.2244072","direct","2","1","3","¿Qué es el membrillero?","Arbol","Arbusto","","0","0","0","competitive","right","1.12295007706","2391.34742212","3.87704992294","2395.36301517","3.97834801674","2399.34143019","2.02165198326","2401.39742422","2403.35101008","2403.43238711","2406.43534708","0","2406.44932318","2412.91332412",""
"sujeto_72b8e12c","1","3","6","70","2413.05132818","inverse","3","1","3","¿Alrededor de qué planeta orbita 
el satélite Europa?","Jupiter","Saturno","","1","1","1","competitive","left","0.914092063904","2413.9654851","4.0859079361","2418.20347619","4.05797195435","2422.26151013","1.94202804565","2424.23950005","2425.78302908","2425.85722208","2428.85905814","1","2428.87439513","2431.07955623",""
"sujeto_72b8e12c","1","3","7","71","2431.210464","direct","3","1","1","¿Donde fue el mundial de 
fútbol de 1954?","Suiza","Suecia","","1","1","1","competitive","left","1.32096004486","2432.53148913","3.67903995514","2436.38532519","4.41012096405","2440.795506","1.58987903595","2442.41867805","2443.67104602","2443.75300312","2446.75507021","1","2446.77042103","2450.68219709",""
"sujeto_72b8e12c","1","3","8","72","2450.82252622","inverse","1","1","4","¿Cuál de los 7 enanitos
no tenía barba?","Bashful","Mudito","","1","1","0","competitive","left","1.01191997528","2451.83448911","3.98808002472","2455.97839117","4.08509516716","2460.06354713","1.91490483284","2462.02947116","2463.60958505","2463.6805501","2466.68353319","1","2466.69757819","2471.62305403",""
"sujeto_72b8e12c","1","3","9","73","2471.76526809","direct","3","1","2","¿Cual red social es
mas utilizada mundialmente?","Instagram","Facebook","","1","1","0","competitive","left","1.43124198914","2473.19654512","3.56875801086","2476.92017913","3.88627886772","2480.80652404","2.11372113228","2482.97311115","2484.89048719","2484.97311616","2487.97610402","1","2487.991189","2490.92569017",""
"sujeto_72b8e12c","1","3","10","74","2491.05980206","inverse","4","1","1","¿Cuándo se inició la copa
 América de fútbol?","1916","1923","","1","1","1","competitive","left","1.60865902901","2492.66851115","3.39134097099","2496.21520305","4.64028501511","2500.85553002","1.35971498489","2502.24995708","2504.1474061","2504.23427701","2507.23728013","1","2507.251544","2509.90766406",""
"sujeto_72b8e12c","1","3","11","75","2510.08695602","direct","3","1","4","¿Cuántos presidentes de EEUU
han muerto asesinados?","3","4","","0","0","1","competitive","left","0.914122104645","2511.00113201","4.08587789536","2515.25873017","3.46562695503","2518.72441602","2.53437304497","2521.30964112","2522.79353714","2522.877285","2525.87897515","0","2525.89414716","2529.53824115",""
"sujeto_72b8e12c","1","3","12","76","2529.67992115","inverse","2","1","4","¿Cuántas veces participó EEUU
 en la copa América?","4","5","","0","0","1","competitive","left","1.07563114166","2530.75562","3.92436885834","2534.83549619","3.26606702805","2538.1016252","2.73393297195","2540.88574219","2542.32982302","2542.404001","2545.4069891","0","2545.42139316","2551.53856921",""
"sujeto_72b8e12c","1","3","13","77","2551.6893661","direct","4","1","1","¿Cuál de estos países 
no formaba la URSS?","Azeribayán","Afganistán","","0","0","1","competitive","left","1.04515695572","2552.73460007","3.95484304428","2556.84554005","4.07594203949","2560.92152715","1.92405796051","2562.87973619","2564.19281602","2564.26480412","2567.26778221","0","2567.28217006","2575.26430202",""
"sujeto_72b8e12c","1","3","14","78","2575.40107703","inverse","1","1","1","¿En qué año se inauguró
 el teatro Solís?","1867","1856","","0","0","0","competitive","left","1.07539796829","2576.47653818","3.92460203171","2580.55872416","4.0317940712","2584.59058022","1.9682059288","2586.60951018","2587.66582823","2587.74470806","2590.74769402","0","2590.76083803","2597.40864301",""
"sujeto_72b8e12c","1","3","15","79","2597.54609513","direct","1","1","4","¿A qué velocidad vuela 
el avión más rápido?","3529","3874","","0","0","0","competitive","left","0.901508808136","2598.44768","4.09849119186","2602.70318508","4.01927900314","2606.72252512","1.98072099686","2608.75481415","2610.51032805","2610.58858109","2613.59153104","0","2613.60671401","2615.71699119",""
"sujeto_72b8e12c","1","3","16","80","2615.87538505","inverse","3","1","4","¿De qué año es la primer 
película cinematográfica?","1897","1888","","0","0","0","competitive","left","0.773124217987","2616.64855218","4.22687578201","2621.02788711","3.43064188957","2624.45857215","2.56935811043","2627.08014107","2628.213135","2628.29873204","2631.30171418","0","2631.31572914","2636.7215991",""
"sujeto_72b8e12c","1","3","17","81","2636.90296912","direct","2","1","3","¿Cuántos países 
tiene nuestro planeta?","191","194","","1","1","1","competitive","right","2.14058494568","2639.04360604","2.85941505432","2642.0543592","3.37714910507","2645.43154812","2.62285089493","2648.08910418","2649.44632602","2649.53221416","2652.53520203","1","2652.55772614","2655.7960341",""
"sujeto_72b8e12c","1","3","18","82","2655.92640018","inverse","2","1","2","¿Cuántos habitantes
 tiene Buenos Aires?","2.9000.000","3650000","","0","0","0","competitive","left","1.03118991852","2656.95766521","3.96881008148","2661.08356619","3.29394698143","2664.37755513","2.70605301857","2667.11822009","2668.51508117","2668.60285211","2671.60583305","0","2671.62011313","2677.4494431",""
"sujeto_72b8e12c","1","3","19","83","2677.58802414","direct","2","1","1","¿Cuántos kilos forman una tonelada?","1000","1500","left","1","1","1","competitive","right","0.828586101532","2678.41667604","4.17141389847","2682.74452209","2.55505895615","2685.29964209","3.44494104385","2688.79533601","2690.6826582","2690.76379418","2693.76674414","0","2693.78078604","2699.73500919",""
"sujeto_72b8e12c","1","3","20","84","2699.87756014","inverse","4","1","4","¿Cuántos estados tiene la 
República del Perú? ","24","23","","0","0","1","competitive","left","0.938078165054","2700.81570816","4.06192183495","2705.02147818","3.92104697227","2708.94258118","2.07895302773","2711.07360816","2712.09574819","2712.17436719","2715.17737222","0","2715.19151211","2720.13677621",""
"sujeto_72b8e12c","1","3","21","85","2720.2768712","direct","3","1","3","¿En qué año nació Cristóbal Colón? ","1451","1447","","0","0","1","competitive","right","0.903712034225","2721.18062806","4.09628796577","2725.44961905","4.10393095016","2729.55359006","1.89606904984","2731.50124311","2733.34712601","2733.41867518","2736.42165303","0","2736.43586612","2740.66386008",""
"sujeto_72b8e12c","1","3","22","86","2740.82108021","inverse","4","1","4","¿Cuánto mide la 
Montaña Aconcagua? ","6234","6962","","0","0","1","competitive","left","0.710500955582","2741.5316422","4.28949904442","2745.97700214","2.61258912086","2748.58963203","3.38741087914","2752.01075721","2753.30010819","2753.37900615","2756.38196015","0","2756.39586616","2763.57944918",""
"sujeto_72b8e12c","1","3","23","87","2763.71230006","direct","2","1","4","¿Cuánto mide el punto
 más profundo del océano? ","12508","11003","","0","0","1","competitive","left","1.17831802368","2764.89066219","3.82168197632","2768.85594916","3.72567296028","2772.58168912","2.27432703972","2774.88987422","2776.14138818","2776.22428608","2779.227283","0","2779.24146008","2783.4477272",""
"sujeto_72b8e12c","1","3","24","88","2783.57659721","inverse","1","1","3","¿Cuántos álbumes ha publicado 
el cantante Jaime Roos? ","41","34","","0","0","1","competitive","right","1.08102703094","2784.65766716","3.91897296906","2788.73117018","4.19544696808","2792.92667603","1.80455303192","2794.76667309","2796.25646806","2796.3343122","2799.33505321","0","2799.35124016","2805.5474",""
"sujeto_72b8e12c","1","3","25","89","2805.68642402","direct","4","1","3","¿En qué año nació el 
ex-presidente Jorge Battle? ","1921","1927","","1","1","1","competitive","left","1.25719404221","2806.94366503","3.74280595779","2810.82781601","3.69079589844","2814.51867104","2.30920410156","2816.8774991","2818.60819602","2818.69425511","2821.69725418","1","2821.7115972","2825.197649",""
"sujeto_72b8e12c","1","3","26","90","2825.33047414","inverse","1","1","3","¿Cuántas presidencias 
constitucionales  hubo en Uruguay? ","41","42","","0","0","1","competitive","left","1.60110998154","2826.93165517","3.39889001846","2830.4877212","4.15189194679","2834.63965201","1.84810805321","2836.53859401","2837.74230313","2837.82262421","2840.82556701","0","2840.83995414","2846.62354612",""
"sujeto_72b8e12c","1","3","27","91","2846.75928116","direct","1","1","2","¿Quién escribió mas sinfonías?","Mozart","Haydn","","1","1","0","competitive","left","0.99237704277","2847.75170422","4.00762295723","2851.91409802","2.30353093147","2854.21768713","3.69646906853","2857.96517301","2859.18260908","2859.26741219","2862.27043605","1","2862.28443813","2866.03581119",""
"sujeto_72b8e12c","1","3","28","92","2866.18623209","inverse","4","1","2","¿En qué año nació Michael Jackson?","1958","1953","","1","1","1","competitive","left","1.14239192009","2867.32869411","3.85760807991","2871.34019804","3.88843202591","2875.22866917","2.11156797409","2877.39228106","2879.37045217","2879.442276","2882.44523406","1","2882.46049213","2888.32277322",""
"sujeto_72b8e12c","1","3","29","93","2888.47851014","direct","3","1","2","¿En qué año entró en vigencia 
la ley antitabaco en Uruguay?","2005","2006","","1","1","1","competitive","right","1.28515815735","2889.763731","3.71484184265","2893.63731813","3.69535398483","2897.3327322","2.30464601517","2899.68752813","2901.28226209","2901.35548711","2904.3585","1","2904.37266517","2909.70302415",""
"sujeto_72b8e12c","1","3","30","94","2909.84069514","inverse","3","1","1","¿Cuándo se subió el 
primer video a youtube?","2004","2005","","0","0","1","competitive","left","1.20098209381","2911.04175305","3.79901790619","2914.9979012","3.71867609024","2918.71663404","2.28132390976","2921.04794502","2922.35358715","2922.43321204","2925.43618512","0","2925.45048809","2933.2060802",""
"sujeto_72b8e12c","1","3","31","95","2933.36866212","direct","2","1","1","¿Cuántos habitantes tiene India?","1200 millones","1300 millones","","0","0","0","competitive","left","1.24405694008","2934.61276102","3.75594305992","2938.52695417","4.15970611572","2942.68670416","1.84029388428","2944.57763815","2946.54702401","2946.62890005","2949.63188314","0","2949.64585614","2955.69103909",""
"sujeto_72b8e12c","1","3","32","96","2955.84755301","inverse","4","1","2","¿A qué edad murió Bob Marley?","36","37","","0","0","1","competitive","right","1.22411108017","2957.0717082","3.77588891983","2960.98779202","3.87686514854","2964.86471701","2.12313485146","2967.02193117","2968.91975117","2968.98908305","2971.99203014","0","2972.00708103","2975.10703611",""
"sujeto_72b8e12c","1","4","1","97","3092.98562312","direct","2","1","1","¿Cuantos años dirigió la selección 
uruguaya Tabarez?","15 años","13 años","","0","0","0","competitive","right","1.65313386917","3094.63882017","3.34686613083","3098.14033103","4.1694688797","3102.30984712","1.8305311203","3104.19122005","3105.38236904","3105.45826602","3108.46124005","0","3108.47569704","3115.54704118","2975.11840105"
"sujeto_72b8e12c","1","4","2","98","3115.67744207","inverse","4","1","1","¿Cuantas teclas tiene un teclado 
de computadora generalmente? ","Entre 99 y 108","Entre 109 y 113","","1","1","1","competitive","right","0.671411037445","3116.34892201","4.32858896255","3120.83645606","4.27333307266","3125.10983419","1.72666692734","3126.88868618","3127.89144206","3127.97241211","3130.97538614","1","3130.989434","3133.35904717",""
"sujeto_72b8e12c","1","4","3","99","3133.4911871","direct","1","1","1","¿Cuál Departamento tiene
 mayor superficie?","Río Negro","Soriano","","0","0","0","competitive","right","1.41061306","3134.90186501","3.58938694","3138.64616323","3.20162391663","3141.847826","2.79837608337","3144.69672823","3146.41020608","3146.48130512","3149.48428822","0","3149.49941707","3153.82547522",""
"sujeto_72b8e12c","1","4","4","100","3153.96696615","inverse","3","1","2","¿Cuál es el apellido de las 
hermanastras  de  cenicienta?","Tremaine","Truman","","0","0","1","competitive","left","1.0138862133","3154.98091817","3.9861137867","3159.12393713","5.14589500427","3164.26987219","0.854104995728","3165.17457223","3167.04409909","3167.12543416","3170.12840819","0","3170.14345002","3172.83942103",""
"sujeto_72b8e12c","1","4","5","101","3172.99412107","direct","4","1","4","¿Cuál película ganó un
 Oscar a mejor película?","Alto Impacto","Cache","","0","0","1","competitive","left","1.00373697281","3173.99791121","3.99626302719","3178.16698623","4.61481904984","3182.78184605","1.38518095016","3184.2173512","3185.33667803","3185.41866422","3188.42162704","0","3188.43587112","3190.70051503",""
"sujeto_72b8e12c","1","4","6","102","3190.87124801","inverse","1","1","3","¿A cuántos centímetros
equivale la medida pié?","25","30","","0","0","1","competitive","left","0.99867606163","3191.8699801","4.00132393837","3196.02554321","4.06931400299","3200.09493899","1.93068599701","3202.07717013","3203.1171701","3203.19416213","3206.197155","0","3206.21119308","3211.61216402",""
"sujeto_72b8e12c","1","4","7","103","3211.77914214","direct","2","1","2","¿Qué departamento es mas grande?","Cerro Largo","Paysandú","","0","0","0","competitive","right","0.954169988632","3212.73342013","4.04583001137","3216.93621302","4.25056385994","3221.1868341","1.74943614006","3222.98709321","3224.58682323","3224.67224121","3227.67500114","0","3227.6889751","3231.79499912",""
"sujeto_72b8e12c","1","4","8","104","3231.92418408","inverse","2","1","3","¿Quién pintó la Mona Lisa?","Picasso","Da Vinci","right","0","0","1","competitive","right","0.885751962662","3232.80998707","4.11424803734","3237.0922122","4.12759208679","3241.21986508","1.87240791321","3243.12754107","3244.73337603","3244.81219506","3247.81518507","1","3247.8292141","3249.99154615",""
"sujeto_72b8e12c","1","4","9","105","3250.14790106","direct","4","1","3","¿Cuántos litros hay en un galon?","3.54","3.78","","1","1","1","competitive","right","0.778926849365","3250.92689204","4.22107315063","3255.30586505","3.68795704842","3258.99386311","2.31204295158","3261.35780215","3262.87502003","3262.95790315","3265.96089005","1","3265.97527122","3271.76764202",""
"sujeto_72b8e12c","1","4","10","106","3271.91083503","inverse","4","1","1","¿Cuántas teclas tiene
 un piano moderno?","80","88","","0","0","1","competitive","right","1.74502897263","3273.65592623","3.25497102737","3277.06750011","4.13236188889","3281.19990015","1.86763811111","3283.11856413","3284.12704206","3284.20305705","3287.20605016","0","3287.22031808","3294.01803017",""
"sujeto_72b8e12c","1","4","11","107","3294.15493917","direct","4","1","3","¿Cuántos países hay en África?","54","62","","0","0","1","competitive","right","1.06403207779","3295.21901822","3.93596792221","3299.32816911","4.07363414764","3303.4018681","1.92636585236","3305.37974","3307.07030821","3307.14714813","3310.15012908","0","3310.16515207","3317.967026",""
"sujeto_72b8e12c","1","4","12","108","3318.09998202","inverse","1","1","3","¿En qué siglo se crearon
 las primeras pistolas?","XV","XIII","","1","1","1","competitive","left","0.856909036636","3318.9569602","4.14309096336","3323.27330923","3.21655392647","3326.48993015","2.78344607353","3329.32343102","3331.27132416","3331.35902619","3334.362005","1","3334.37623811","3337.60932112",""
"sujeto_72b8e12c","1","4","13","109","3337.76193404","direct","3","1","4","¿En qué año se estrenó 
la serie friends?","1994","1995","","0","0","1","competitive","right","0.829976081848","3338.59198618","4.17002391815","3342.91764307","3.87022089958","3346.78790712","2.12977910042","3348.96937919","3350.8430531","3350.92063117","3353.92357111","0","3353.93786812","3358.94304705",""
"sujeto_72b8e12c","1","4","14","110","3359.07354212","inverse","3","1","4","¿En qué año nació Hitler?","1889","1887","","0","0","1","competitive","right","0.992367982864","3360.06595802","4.00763201714","3364.22874904","4.7731180191","3369.00192523","1.2268819809","3370.2806282","3371.39496803","3371.46414208","3374.46704507","0","3374.48195505","3379.50705314",""
"sujeto_72b8e12c","1","4","15","111","3379.66634321","direct","1","1","4","¿Cuánto pesa un elefante Africano?","6000 kilos","5400 kilos","","0","0","0","competitive","left","1.22152495384","3380.887918","3.77847504616","3384.82321715","3.45967197418","3388.28294706","2.54032802582","3390.85662007","3392.21253204","3392.29135013","3395.29433012","0","3395.3086071","3402.01567316",""
"sujeto_72b8e12c","1","4","16","112","3402.1432271","inverse","1","1","2","¿Qué porcentaje de 
la población es zurda?","10%","7%","","1","1","0","competitive","left","1.3406598568","3403.48393011","3.6593401432","3407.30062914","3.41822910309","3410.71889901","2.58177089691","3413.35067606","3414.59377909","3414.66923618","3417.67223001","1","3417.68633604","3423.66342306",""
"sujeto_72b8e12c","1","4","17","113","3423.80657101","direct","1","1","2","¿En qué año se estrenó
Volver al futuro?","1984","1985","","0","0","1","competitive","right","0.813473939896","3424.6201272","4.1865260601","3428.9620502","4.2188141346","3433.180902","1.7811858654","3435.01326513","3436.57507014","3436.64789605","3439.65081","0","3439.66503906","3446.75648212",""
"sujeto_72b8e12c","1","4","18","114","3446.91705704","inverse","3","1","2","¿Cuántos jugadores hay en un 
equipo de baseball?","9","8","","1","1","0","competitive","left","1.03894209862","3447.9560802","3.96105790138","3452.09095001","3.60298204422","3455.69399405","2.39701795578","3458.14186621","3459.75500202","3459.82635617","3462.8293252","1","3462.84362221","3467.8163991",""
"sujeto_72b8e12c","1","4","19","115","3467.99547601","direct","2","1","1","¿Cuántos Oscar ganó
 la película titanic?","13","11","","1","1","1","individual","left","1.53477191925","3469.530334","3.46522808075","3473.15253305","3.02140808105","3476.1739831","2.97859191895","3479.200881","3480.50293803","3480.5519762","3483.55493402","1","3483.56928205","3488.171031",""
"sujeto_72b8e12c","1","4","20","116","3488.30399323","inverse","4","1","4","¿En qué año comenzó
la segunda guerra mundial?","1939","1976","left","0","0","1","competitive","right","1.37903213501","3489.683074","3.62096786499","3493.46238923","4.86255598068","3498.32498407","1.13744401932","3499.51364422","3501.31351519","3501.39773321","3504.40071321","0","3504.41512918","3508.40227604",""
"sujeto_72b8e12c","1","4","21","117","3508.53357005","direct","2","1","4","¿Cuántos biomas hay en Uruguay?","5","4","","0","0","1","competitive","right","2.27444696426","3510.80807018","2.72555303574","3513.68622518","3.07676815987","3516.76305819","2.92323184013","3519.72340512","3521.52078104","3521.608181","3524.6110611","0","3524.6261282","3530.87554717",""
"sujeto_72b8e12c","1","4","22","118","3531.04428005","inverse","2","1","3","¿Cuándo murió Pablo Escobar?","1993","1997","","1","1","1","competitive","left","1.00573801994","3532.05006409","3.99426198006","3536.20116401","3.66885495186","3539.87007904","2.33114504814","3542.25127506","3544.03412414","3544.1201961","3547.12317514","1","3547.13736105","3552.83905005",""
"sujeto_72b8e12c","1","4","23","119","3552.97228909","direct","1","1","4","¿Qué serie ha ganado mas premios?","Friends","Murphy Brown","","1","1","0","competitive","left","0.743768930435","3553.71610403","4.25623106956","3558.11159301","4.11442494392","3562.22608018","1.88557505608","3564.16325212","3565.51501012","3565.59685802","3568.59908009","1","3568.61421919","3574.17152214",""
"sujeto_72b8e12c","1","4","24","120","3574.2993381","inverse","4","1","2","¿Cuántas fichas tiene el dominó?","26","28","","1","1","1","competitive","left","2.79270291328","3577.09212112","2.20729708672","3579.45528007","3.97467398643","3583.42999315","2.02532601357","3585.50603509","3586.56135321","3586.63943601","3589.64241219","1","3589.65672207","3594.89983702",""
"sujeto_72b8e12c","1","4","25","121","3595.07516623","direct","2","1","4","¿Cuántos son los dientes de leche?","20","25","","0","0","1","competitive","left","1.17283010483","3596.24803805","3.82716989517","3600.21701217","4.08597588539","3604.30303001","1.91402411461","3606.26835608","3607.97871208","3608.0520761","3611.05500603","0","3611.07039618","3613.21504712",""
"sujeto_72b8e12c","1","4","26","122","3613.35511518","inverse","3","1","3","¿Cuántos gramos son una onza?","22","28","","0","0","1","competitive","left","2.37292003632","3615.72807622","2.62707996368","3618.51071715","3.75235414505","3622.263129","2.24764585495","3624.5608592","3626.55576015","3626.62925601","3629.63224006","0","3629.6472652","3635.93503308",""
"sujeto_72b8e12c","1","4","27","123","3636.08137512","direct","3","1","1","¿Cuándo salió el primer album
 de los Beatles?","1963","1962","","1","1","1","competitive","right","0.901717185974","3636.98316002","4.09828281403","3641.25472617","3.57030200958","3644.825068","2.42969799042","3647.30606818","3648.46970105","3648.55704713","3651.55903006","1","3651.57414818","3655.34619522",""
"sujeto_72b8e12c","1","4","28","124","3655.50927901","inverse","3","1","3","¿Quién fundó la empresa apple?","Carlos Slim","Steve Jobs","","1","1","1","competitive","left","0.973836898804","3656.48319101","4.0261631012","3660.66479516","3.32024598122","3663.98507905","2.67975401878","3666.71519017","3667.82983303","3667.89999604","3670.90294409","1","3670.91715407","3677.21500921",""
"sujeto_72b8e12c","1","4","29","125","3677.36923814","direct","4","1","2","¿Cuántos municipios hay
 en Montevideo?","8","7","","1","1","1","competitive","left","1.10580778122","3678.47509122","3.89419221878","3682.54264021","3.34734797478","3685.89005303","2.65265202522","3688.57737207","3690.49213815","3690.577914","3693.57903719","1","3693.59637117","3695.67751622",""
"sujeto_72b8e12c","1","4","30","126","3695.814116","inverse","1","1","1","¿Cuántos kilómetros hay
 de Montevideo a Artigas?","632","599","","0","0","0","competitive","right","1.00996899605","3696.82413101","3.99003100395","3700.98544216","4.03267502785","3705.01817703","1.96732497215","3707.03716803","3708.51901412","3708.6041162","3711.60702515","0","3711.621418","3717.67352605",""
"sujeto_72b8e12c","1","4","31","127","3717.80947518","direct","2","1","2","¿En qué año nació 
Leonardo Da Vinci?","1452","1511","","1","1","0","competitive","left","0.844595909119","3718.65411711","4.15540409088","3722.97762203","3.45647788048","3726.43415999","2.54352211952","3729.03006101","3730.883003","3730.96497607","3733.96792912","1","3733.98192","3737.12830019",""
"sujeto_72b8e12c","1","4","32","128","3737.26825714","inverse","3","1","1","¿A qué continente
 pertenece el país Gabón?","Africa","Oceanía","","0","0","1","competitive","right","1.2428150177","3738.5111351","3.7571849823","3742.42386413","3.99925398827","3746.42316318","2.00074601173","3748.47449613","3750.2861712","3750.35923004","3753.36218619","0","3753.37667322","3758.614573",""
