"code","nro_aplicante","nro_bloque","nro_trial_bloque","nro_trial_global","show_game_type","choice_order","rival","pay_individual","pay_competitive","question","answer_left_text","answer_right_text","correct_answer","outcome_individual","outcome_competitive","outcome_rival","game_type","answer","social_time","rt_game_type","feedback_delay","show_question","answer_time","rt_answer_global","feedback_delay_2","show_jitter","jitter_time","show_outcome","outcome_time","outcome_participant_real","show_final_jitter","second_jitter_time","inicio_descanso"
"sujeto_0071765","1","1","1","1","628.541404009","direct","3","1","4","¿Cuántos centímetros corresponden
al talle 36 del calzado?","23","24","","0","0","1","competitive","right","2.34287786484","630.884346008","2.65712213516","633.71101594","3.88731002808","637.598397017","2.11268997192","639.762074947","640.790363073","640.863099098","643.866074085","0","643.880069971","646.042598009",""
"sujeto_0071765","1","1","2","2","646.18145895","inverse","3","1","2","¿Cuántas metros mide la Intendencia
Municipal de Montevideo? ","84","78","","0","0","1","individual","right","1.72286891937","647.904405117","3.27713108063","651.319986105","3.15436315536","654.474391937","2.84563684464","657.369034052","659.24703908","659.286345005","662.289335966","0","662.304680109","664.397393942",""
"sujeto_0071765","1","1","3","3","664.523801088","direct","1","1","3","¿Cuántas La Pasiva
 hay en uruguay?","15","11","","1","1","1","competitive","left","1.71551299095","666.239357948","3.28448700905","669.68036294","3.27592992783","672.956361055","2.72407007217","675.713523149","677.32515502","677.39793396","680.400898933","1","680.416118145","684.694455147",""
"sujeto_0071765","1","1","4","4","684.835513115","inverse","3","1","3","¿De que color es la camiseta de uruguay?","blanca","celeste","right","1","1","1","competitive","right","1.76781415939","686.603425026","3.23218584061","689.990200043","3.26410889626","693.254375935","2.73589110374","696.040873051","697.245651007","697.325108051","700.328016996","1","700.342036009","703.795940161",""
"sujeto_0071765","1","1","5","5","703.959408998","direct","2","1","1","¿Cuánto metros mide
la torre Eiffel?","333","324","","1","1","1","individual","right","2.58905792236","706.548593998","2.41094207764","709.147352934","3.02791786194","712.175312996","2.97208213806","715.201074123","716.722465992","716.768764019","719.771737099","1","719.785639048","726.822332144",""
"sujeto_0071765","1","1","6","6","726.956160069","inverse","3","1","4","¿Cuantas ciudades existen
 en todo el uruguay?","63","72","","0","0","1","competitive","left","2.07319092751","729.029418945","2.92680907249","732.094438076","5.58281612396","737.677299976","0.417183876038","738.13051796","739.185335159","739.263712168","742.266689062","0","742.281077147","749.907624006",""
"sujeto_0071765","1","1","7","7","750.033756018","direct","1","1","1","¿Cuantos estados tiene África?","52","54","","1","1","0","competitive","right","2.98059296608","753.014402151","2.01940703392","755.185085058","3.09621596336","758.281345129","2.90378403664","761.223726988","763.087753057","763.159023046","766.162008047","1","766.176865101","771.937883139",""
"sujeto_0071765","1","1","8","8","772.078727007","inverse","4","1","4","¿En qué año nació
 Stephen Hawking?","1952","1942","","0","0","1","competitive","right","1.65260791779","773.731431961","3.34739208221","777.234977007","3.39636683464","780.631440163","2.60363316536","783.268768072","784.713056087","784.78729105","787.790230036","0","787.804337025","793.90349412",""
"sujeto_0071765","1","1","9","9","794.039860964","direct","2","1","3","¿Cuánto años tenía Artigas
 cuando se fue a Paraguay?","56","57","","1","1","1","competitive","left","1.6064209938","795.646327972","3.3935790062","799.180412054","3.71593689919","802.896391153","2.28406310081","805.230517149","806.780032158","806.865337133","809.868319988","1","809.882333994","815.929636955",""
"sujeto_0071765","1","1","10","10","816.101169109","inverse","1","1","2","¿Cuantos milímetros 
mide una hoja A2?","420x592","420x594","","0","0","1","competitive","right","2.17017507553","818.271440029","2.82982492447","821.257380962","4.31597185135","825.57341814","1.68402814865","827.309252977","828.877652168","828.96022296","831.963158131","0","831.977067947","839.043878078",""
"sujeto_0071765","1","1","11","11","839.182825089","direct","3","1","3","¿Cuál es la menor temperatura 
registrada en Uruguay?","-5.4","-7.4","","0","0","1","individual","left","1.7535200119","840.936434031","3.2464799881","844.336647987","3.66170692444","847.998399973","2.33829307556","850.369976044","852.052026033","852.087968111","855.090898991","0","855.10503602","858.835512161",""
"sujeto_0071765","1","1","12","12","858.975652933","inverse","2","1","2","¿Cuantos años hace que 
se fundó facebook?","18","17","","0","0","0","competitive","left","1.309705019","860.285403013","3.690294981","864.129371166","4.74196195602","868.871412039","1.25803804398","870.162214041","871.534956932","871.612946033","874.615931034","0","874.630021095","877.40350008",""
"sujeto_0071765","1","1","13","13","877.531551123","direct","1","1","4","¿Cuál animal es más
 pesado en promedio?","Rinoceronte","Hipopotamo","","0","0","0","competitive","left","2.10379695892","879.635442972","2.89620304108","882.691030025","4.51830387115","887.209403992","1.48169612885","888.789232969","889.86847806","889.939764023","892.942749977","0","892.95788002","896.798885107",""
"sujeto_0071765","1","1","14","14","896.960979939","inverse","1","1","2","¿Qué personaje de dragon ball 
murió más veces?","Chaoz","Krillin","","1","1","0","competitive","right","2.52281594276","899.483850002","2.47718405724","902.11730504","3.81006097794","905.927438974","2.18993902206","908.166867018","909.624686003","909.701483011","912.704467058","1","912.71858716","920.491523981",""
"sujeto_0071765","1","1","15","15","920.620057106","direct","3","1","2","La universidad de oxford. 
existe desde:","1096","1249","","1","1","0","individual","right","1.90728902817","922.527418137","3.09271097183","925.795470953","3.3858859539","929.181420088","2.6141140461","931.845448017","932.894243956","932.929742098","935.932708025","1","935.946855068","942.635512114",""
"sujeto_0071765","1","1","16","16","942.770574093","inverse","3","1","1","¿Qué escritor latino ganó antes
 el premio nobel?"," García Marquez","Neruda","","0","0","1","individual","left","1.77177000046","944.542389154","3.22822999954","947.923584938","4.17369699478","952.097349167","1.82630300522","953.973417044","955.713421106","955.758044958","958.759530067","0","958.775767088","962.236290932",""
"sujeto_0071765","1","1","17","17","962.376933098","direct","4","1","3","¿Cuántos dientes tiene un
 tiburón blanco?","6000","3000","","0","0","1","individual","left","2.7249751091","965.101959944","2.2750248909","967.530390978","3.59196281433","971.122394085","2.40803718567","973.584387064","974.623381138","974.668000937","977.670972109","0","977.685866117","982.495514154",""
"sujeto_0071765","1","1","18","18","982.640197992","inverse","4","1","1","¿Cuánto mide el paralelo Ecuador?","40.000km","70.000km","","0","0","1","individual","left","1.52311682701","984.163365126","3.47688317299","987.793956041","4.02634501457","991.820363045","1.97365498543","993.827605963","995.783726931","995.828329086","998.831272125","0","998.846493959","1002.44906497",""
"sujeto_0071765","1","1","19","19","1002.61605","direct","4","1","2","¿Cuál fue el primer libro 
de Stephen King?","Carrie","The Stand","","1","1","1","individual","right","1.71926689148","1004.33536601","3.28073310852","1007.78718305","4.62508797646","1012.41233897","1.37491202354","1013.82086706","1015.56497812","1015.60549307","1018.608464","1","1018.62272","1023.09551096",""
"sujeto_0071765","1","1","20","20","1023.24328709","inverse","2","1","3","¿Qué civilización practicaba
 la momificación?","Grecia","Egipto","right","0","0","1","competitive","right","2.35405397415","1025.59738803","2.64594602585","1028.41244602","3.22586083412","1031.63837099","2.77413916588","1034.46581101","1036.40510106","1036.48298597","1039.48597097","1","1039.50104213","1043.72983599",""
"sujeto_0071765","1","1","21","21","1043.87010098","direct","4","1","4","¿Cuántos millones de visitas
 recibe google por minuto?","3.0","4.5","","0","0","1","competitive","right","2.12132287025","1045.99148703","2.87867712975","1049.02675605","3.25253605843","1052.27933502","2.74746394157","1055.07588911","1056.59072995","1056.66052914","1059.66348314","0","1059.67749095","1066.80013204",""
"sujeto_0071765","1","1","22","22","1066.95055509","inverse","1","1","3","La máquina de fax. se inventó en:","1843","1960","","0","0","1","competitive","left","1.56478714943","1068.51540709","3.43521285057","1072.10318208","2.28210806847","1074.38533211","3.71789193153","1078.15276694","1079.39484811","1079.47196198","1082.47494602","0","1082.48911095","1085.72542",""
"sujeto_0071765","1","1","23","23","1085.87563396","direct","2","1","4","En la verdadera historia de los
 300 espartanos. habían:","300 soldados","4300 soldados","","1","1","1","competitive","","1.65970993042","1087.53540516","3.34029006958","1091.02960014","6","1097.02972007","0","1097.04495716","1098.30613303","1098.38150597","1101.38449597","0","1101.39868402","1105.20044494",""
"sujeto_0071765","1","1","24","24","1105.35043001","inverse","1","1","4","¿Cuántos milímetros crece
 el pelo por día?","0.4","0.04","","0","0","0","competitive","right","1.15288805962","1106.50336599","3.84711194038","1110.50624108","2.27014422417","1112.77642608","3.72985577583","1116.55621314","1118.3154881","1118.39172506","1121.394701","0","1121.40864706","1128.14374709",""
"sujeto_0071765","1","1","25","25","1128.28038216","direct","4","1","1","¿Cuánto mide la baldosa gris 
clásica de Montevideo?","22x22 cm.","20x20 cm.","","1","1","1","individual","right","1.66396903992","1129.94442701","3.33603096008","1133.43489003","4.02642607689","1137.46138501","1.97357392311","1139.483989","1141.47923613","1141.51755404","1144.52052307","1","1144.53573704","1150.0785501",""
"sujeto_0071765","1","1","26","26","1150.22334313","inverse","2","1","2","¿Cuántas películas de rápidos
 y furiosos hay?","10","11","","1","1","0","competitive","left","1.63500809669","1151.85841703","3.36499190331","1155.36367702","2.24965786934","1157.61339617","3.75034213066","1161.41293406","1162.77100706","1162.84794497","1165.85095","1","1165.86505604","1167.89949512",""
"sujeto_0071765","1","1","27","27","1168.03459501","direct","3","1","1","¿Cuántos masters 1000
 ganó Del Potro?","1","2","","1","1","1","individual","right","1.92477297783","1169.95948005","3.07522702217","1173.18855","3.81979584694","1177.00840998","2.18020415306","1179.23960114","1180.99416304","1181.04124498","1184.04416394","1","1184.05816102","1191.45451808",""
"sujeto_0071765","1","1","28","28","1191.59452915","inverse","2","1","4","¿Cuántos meses dura el 
embarazo de una leona?","3 meses","4 meses","","0","0","1","competitive","left","1.72985196114","1193.32442713","3.27014803886","1196.75121999","3.33709001541","1200.08837104","2.66290998459","1202.80162907","1203.91271305","1203.98604894","1206.98906207","0","1207.00301814","1213.72347808",""
"sujeto_0071765","1","1","29","29","1213.85784507","direct","1","1","1","¿En qué año fue creado
 el sandwich?","1762","1653","","1","1","0","individual","right","1.07848381996","1214.93637609","3.92151618004","1219.00882697","2.73946595192","1221.74835396","3.26053404808","1225.06080699","1226.65933108","1226.69586515","1229.69882202","1","1229.71309996","1233.18374515",""
"sujeto_0071765","1","1","30","30","1233.34814215","inverse","4","1","2","El nombre de la moneda de Vietnam es:","Dinar","Dong","","0","0","1","individual","left","1.4922170639","1234.84042597","3.5077829361","1238.48944712","4.61685609818","1243.10636497","1.38314390182","1244.54014516","1245.97214198","1246.02376199","1249.02670813","0","1249.04187703","1255.20747805",""
"sujeto_0071765","1","1","31","31","1255.34305811","direct","2","1","1","¿cuantos aleteos puede dar 
un colibrí por segundo?","120","50","","0","0","0","competitive","left","1.54227399826","1256.88537812","3.45772600174","1260.48428011","2.92602610588","1263.41036797","3.07397389412","1266.51761603","1268.24883199","1268.31873012","1271.31950498","0","1271.33663416","1275.54752398",""
"sujeto_0071765","1","1","32","32","1275.68808007","inverse","4","1","3","¿Qué altura promedio tienen
 los hombres uruguayos?","1.73 m","1.72 m","","1","1","1","competitive","left","1.55830192566","1277.24642706","3.44169807434","1280.84409714","3.39328813553","1284.23745704","2.60671186447","1286.87824202","1288.14067411","1288.21293211","1291.21591711","1","1291.22985005","1295.70578909",""
"sujeto_0071765","1","2","1","33","1432.91750216","direct","1","1","1","¿En qué año nació 
el actor Bradd Pitt?","1967","1963","","1","1","1","individual","left","1.28980708122","1434.20735312","3.71019291878","1438.0584271","1.98294901848","1440.04143715","4.01705098152","1444.10764313","1445.20350003","1445.24337316","1448.24355102","1","1448.26077199","1454.18836308","1295.72099996"
"sujeto_0071765","1","2","2","34","1454.33000994","inverse","2","1","1","¿Cual es el segundo 
monte más alto?","Kanchenjunga","K2","","1","1","1","competitive","left","1.60833191872","1455.938411","3.39166808128","1459.46968603","4.03063201904","1463.500386","1.96936798096","1465.52028012","1466.97269702","1467.05404615","1470.05704808","1","1470.07348514","1473.50336909",""
"sujeto_0071765","1","2","3","35","1473.64152193","direct","3","1","1","¿Cuándo finalizó la construcción
 del Palacio Legislativo?","1925","1917","","0","0","1","individual","right","2.81085395813","1476.45242214","2.18914604187","1478.82840395","2.25592803955","1481.08439612","3.74407196045","1484.87936306","1486.52109504","1486.56524515","1489.56747794","0","1489.5825541","1495.28014112",""
"sujeto_0071765","1","2","4","36","1495.43718505","inverse","3","1","3","¿Cuántos integrantes tenía
 en su inicio  el cuarteto de nos?","3","4","","1","1","1","competitive","right","1.25716304779","1496.69439197","3.74283695221","1500.59004998","4.08627986908","1504.67637014","1.91372013092","1506.64186716","1507.7749691","1507.85843301","1510.85948205","1","1510.87555099","1516.52531695",""
"sujeto_0071765","1","2","5","37","1516.66360211","direct","2","1","3","¿Qué valor tiene el número pi?","3.14","4.18","left","0","0","1","competitive","left","1.74979710579","1518.41344595","3.25020289421","1521.80169606","2.31363201141","1524.11540914","3.68636798859","1527.83485508","1529.28906894","1529.36999607","1532.37296796","1","1532.38718915","1539.30750704",""
"sujeto_0071765","1","2","6","38","1539.47563195","inverse","2","1","2","¿Cuál es la esperanza de vida
 en Uruguay?","75","77","","1","1","0","competitive","left","1.31174087524","1540.78748012","3.68825912476","1544.63013101","2.53623604774","1547.16643214","3.46376395226","1550.67971301","1552.33348799","1552.41522694","1555.41818404","1","1555.43236208","1561.89541316",""
"sujeto_0071765","1","2","7","39","1562.0170331","direct","1","1","2","¿Cuantos pisos tiene la torre 
de las comunicaciones?","26","32","","1","1","0","competitive","right","1.22932004929","1563.24640393","3.77067995071","1567.1749301","4.19939517975","1571.37439299","1.80060482025","1573.22583008","1575.05462503","1575.14298415","1578.14596701","1","1578.16084599","1580.30707407",""
"sujeto_0071765","1","2","8","40","1580.47748995","inverse","2","1","4","¿En qué país sudamericano 
no hay McDonalds?","Bolivia","Venezuela","","0","0","1","competitive","right","2.042937994","1582.52049804","2.957062006","1585.6184001","4.35001516342","1589.96848297","1.64998483658","1591.66833401","1592.97772098","1593.05351615","1596.05650115","0","1596.07017398","1602.42751694",""
"sujeto_0071765","1","2","9","41","1602.57290816","direct","3","1","1","¿En qué año empieza
 la Edad Media?","476","512","","1","1","1","individual","left","2.38947296143","1604.96243","2.61052703857","1607.7456851","1.94669699669","1609.69244599","4.05330300331","1613.77899003","1615.18278408","1615.23178911","1618.23475099","1","1618.24788404","1621.23548102",""
"sujeto_0071765","1","2","10","42","1621.36649704","inverse","3","1","4","¿Hace cuántos años surgió
 el ser humano?","200mil","300mil","","0","0","0","competitive","left","1.55390906334","1622.92045212","3.44609093666","1626.52210999","5.49527788162","1632.01742816","0.504722118378","1632.55659699","1634.44262409","1634.52388","1637.52687407","0","1637.54189706","1640.85236406",""
"sujeto_0071765","1","2","11","43","1640.99284005","direct","3","1","4","¿Cuántas cuadras tiene
 actualmente 18 de julio? ","36","33","","0","0","1","individual","left","1.12659692764","1642.11948514","3.87340307236","1646.14628816","2.15305304527","1648.29940915","3.84694695473","1652.19754004","1653.89947009","1653.94971609","1656.95269299","0","1656.96777105","1661.69408202",""
"sujeto_0071765","1","2","12","44","1661.81935215","inverse","1","1","4","¿Qué juego de equipo se 
considera mas rápido?","Lacrosse","Badminton","","0","0","0","competitive","left","1.38203310966","1663.20143294","3.61796689034","1666.97601104","3.05633091927","1670.03238606","2.94366908073","1673.02663493","1674.26967907","1674.34467411","1677.34752107","0","1677.36181998","1685.35551",""
"sujeto_0071765","1","2","13","45","1685.50142503","direct","1","1","3","¿Qué promedio de edad 
vive una jirafa? ","25","20","","0","0","1","competitive","left","1.41894984245","1686.92044497","3.58105015755","1690.63813806","3.09721398354","1693.73542714","2.90278601646","1696.67170811","1698.43320608","1698.50713396","1701.51011896","0","1701.52431893","1707.47550416",""
"sujeto_0071765","1","2","14","46","1707.61171508","inverse","1","1","2","¿Cuántos grandes lagos hay?","7","5","","0","0","1","competitive","left","1.70967411995","1709.32143617","3.29032588005","1712.76656199","2.47480797768","1715.24141097","3.52519202232","1718.81664014","1720.10880804","1720.18509507","1723.18807912","0","1723.20220804","1731.02359509",""
"sujeto_0071765","1","2","15","47","1731.17084098","direct","3","1","2","¿Cuántos discos de estudio
 grabó Johhny Cash? ","54","43","","1","1","0","competitive","right","1.53653597832","1732.70743608","3.46346402168","1736.31191707","2.87047696114","1739.18243504","3.12952303886","1742.3619051","1743.640553","1743.71331406","1746.71628594","1","1746.73124909","1753.38215995",""
"sujeto_0071765","1","2","16","48","1753.51586699","inverse","4","1","1","¿Cuántos barrios tiene
 Montevideo? ","71","62","","0","0","1","individual","left","1.46450400352","1754.98044109","3.53549599648","1758.67408204","2.65929794312","1761.33342099","3.34070205688","1764.72230506","1765.72937298","1765.77424693","1768.77720594","0","1768.79119706","1774.25320697",""
"sujeto_0071765","1","2","17","49","1774.39254403","direct","3","1","3","¿Qué edad tiene Homero Simpson?","36","42","","0","0","1","competitive","right","1.67086005211","1776.06346297","3.32913994789","1779.5509131","2.28051900864","1781.83149314","3.71948099136","1785.58404016","1786.96008396","1787.03645802","1790.03944707","0","1790.05357409","1794.44230914",""
"sujeto_0071765","1","2","18","50","1794.59020495","inverse","4","1","2","¿Cuántos países con monarquía 
hay en europa actualmente? ","6","10","","1","1","1","individual","left","1.14016985893","1795.73042297","3.85983014107","1799.74409699","3.96428489685","1803.70842314","2.03571510315","1805.79493904","1807.23320913","1807.27958012","1810.28253698","1","1810.2967751","1816.4535861",""
"sujeto_0071765","1","2","19","51","1816.600564","direct","2","1","3","¿Cuántos capítulos de
 Friends existen? ","236","228","","1","1","1","competitive","right","1.64181089401","1818.24244404","3.35818910599","1821.73929811","2.63105797768","1824.37039709","3.36894202232","1827.78917313","1829.09473395","1829.17470908","1832.17768908","1","1832.19167614","1834.56729603",""
"sujeto_0071765","1","2","20","52","1834.69326997","inverse","1","1","3","¿Cuántas óperas compuso Mozart? ","27","22","","1","1","1","competitive","left","1.31314706802","1836.00649214","3.68685293198","1839.84489608","2.35248422623","1842.19744205","3.64751577377","1845.89604616","1847.18818212","1847.26551414","1850.26849604","1","1850.28266597","1857.59414411",""
"sujeto_0071765","1","2","21","53","1857.73342013","direct","4","1","3","¿Cuántos mundiales de fútbol 
femenino ha realizado FIFA? ","9","7","","1","1","1","competitive","left","1.87402105331","1859.60751915","3.12597894669","1862.89379501","3.1176109314","1866.01145196","2.8823890686","1868.94400907","1870.18750405","1870.26194906","1873.26493001","1","1873.27914","1879.381603",""
"sujeto_0071765","1","2","22","54","1879.51450014","inverse","3","1","2","¿Cuál es la temperatura 
media anual en Montevideo? ","17.5","16.3","","0","0","1","individual","right","1.30291795731","1880.81746411","3.69708204269","1884.67157602","3.06877684593","1887.74041414","2.93122315407","1890.721802","1892.65953898","1892.70711493","1895.71010113","0","1895.724298","1902.29153299",""
"sujeto_0071765","1","2","23","55","1902.42715001","direct","2","1","2","¿En qué año se estrenó el
 videojuego The Sims? ","2000","2002","","0","0","0","individual","left","1.67727088928","1904.10448813","3.32272911072","1907.58275795","2.61667609215","1910.19949794","3.38332390785","1913.63354611","1915.49556494","1915.53562117","1918.53856015","0","1918.55241013","1925.946064",""
"sujeto_0071765","1","2","24","56","1926.08760309","inverse","2","1","1","¿Cuál es la canción con 
mas covers? ","Yesterday","Stand by me","","0","0","0","individual","right","2.66482520103","1928.75247598","2.33517479897","1931.24326396","2.71314787865","1933.95647812","3.28685212135","1937.27965498","1938.67819715","1938.71383595","1941.71676397","0","1941.7319591","1945.90279794",""
"sujeto_0071765","1","2","25","57","1946.03309202","direct","1","1","4","¿Cuánto duró la guerra
 de los 100 años?","116","123","","0","0","0","competitive","left","1.69134902954","1947.72448707","3.30865097046","1951.18906403","2.35430383682","1953.54344416","3.64569616318","1957.23908806","1958.71993709","1958.79127002","1961.79421401","0","1961.80839396","1964.12818003",""
"sujeto_0071765","1","2","26","58","1964.29344511","inverse","4","1","4","¿Qué color tiene la  bandera de Brasil?","Amarillo","Naranja","left","0","0","1","competitive","right","1.28098201752","1965.57447314","3.71901798248","1969.46480393","3.62656712532","1973.09143901","2.37343287468","1975.49894094","1977.06546807","1977.15016913","1980.15315199","0","1980.16731596","1983.20011401",""
"sujeto_0071765","1","2","27","59","1983.33842611","direct","4","1","3","¿Qué carabela de 
Colon no volvió del viaje?","Santa María","La pinta","","0","0","1","competitive","left","1.55597305298","1984.89446712","3.44402694702","1988.49174714","3.33663916588","1991.8284471","2.66336083412","1994.54207802","1996.03318501","1996.10981512","1999.11281705","0","1999.12684608","2001.22627306",""
"sujeto_0071765","1","2","28","60","2001.36249113","inverse","4","1","4","¿Cuántos huesos tiene
 un adulto humano?","217","206","","0","0","1","competitive","right","1.14092898369","2002.50348997","3.85907101631","2006.50060415","2.02177810669","2008.52242208","3.97822189331","2012.55086112","2013.82189798","2013.90261912","2016.90346599","0","2016.92021894","2024.75548196",""
"sujeto_0071765","1","2","29","61","2024.88772511","direct","1","1","1","¿Qué país africano fue 
fundado por esclavos?","Liberia","Chad","","0","0","0","individual","left","1.18370008469","2026.07148314","3.81629991531","2030.04617405","2.25731182098","2032.30353093","3.74268817902","2036.09619212","2038.08784604","2038.13167","2041.13463211","0","2041.14882493","2049.13967514",""
"sujeto_0071765","1","2","30","62","2049.26725197","inverse","4","1","2","¿A cuánto asciende la cima
 del monte Everest?","7.990 mts","8.848 mts","","0","0","1","individual","right","1.59416890144","2050.86149716","3.40583109856","2054.42553401","2.54189491272","2056.96746993","3.45810508728","2060.475986","2061.66083598","2061.71069598","2064.7115221","0","2064.72776294","2071.9115181",""
"sujeto_0071765","1","2","31","63","2072.06318712","direct","4","1","1","¿Cuál es el país mas chico?","Sealand","Luxemburgo","","1","1","1","individual","right","1.92223310471","2073.98547006","3.07776689529","2077.22077513","2.12459611893","2079.34541297","3.87540388107","2083.27073812","2085.13423514","2085.1725471","2088.17549706","1","2088.18953705","2091.31149912",""
"sujeto_0071765","1","2","32","64","2091.45867801","inverse","2","1","4","¿Cuántas pirámides hay en Egipto?","10000","11000","","1","1","1","competitive","right","1.37975287437","2092.83847809","3.62024712563","2096.61135316","2.91801095009","2099.52941012","3.08198904991","2102.66221905","2103.69582009","2103.78085303","2106.78385305","1","2106.79809308","2111.90717196",""
"sujeto_0071765","1","3","1","65","2231.27854705","direct","2","1","2","¿Cuál es el quinto país con 
mas extensión?","Canadá","Brasil","","1","1","0","individual","right","1.57983183861","2232.85844517","3.42016816139","2236.41929793","1.92110610008","2238.34046507","4.07889389992","2242.46926999","2243.80252314","2243.83732295","2246.84023809","1","2246.85432696","2254.57600117","2111.92188311"
"sujeto_0071765","1","3","2","66","2254.72243714","inverse","1","1","2","¿Qué rasgo facial no tiene
 la Mona Lisa?","Cejas","Pómulos","","0","0","1","competitive","left","1.54400205612","2256.26648402","3.45599794388","2259.88160706","2.84584379196","2262.72751212","3.15415620804","2265.93167114","2267.68208194","2267.76720095","2270.77019405","0","2270.78450799","2277.05585408",""
"sujeto_0071765","1","3","3","67","2277.21939707","direct","4","1","3","¿Cuál es el país con 
mayor población?","Esados Unidos","China","right","0","0","1","individual","right","2.17407178879","2279.39351511","2.82592821121","2282.37628412","2.11710000038","2284.49344707","3.88289999962","2288.42631316","2290.07229209","2290.11201715","2293.11497498","1","2293.12915897","2296.49645114",""
"sujeto_0071765","1","3","4","68","2296.63094401","inverse","1","1","1","La palabra dinosaurio significa","Lagarto Terrible","Lagarto Dragón","","1","1","0","competitive","right","1.44846796989","2298.07948995","3.55153203011","2301.78625011","3.71319293976","2305.49951315","2.28680706024","2307.83680916","2309.00714898","2309.08762312","2312.09057713","1","2312.10355496","2314.96536803",""
"sujeto_0071765","1","3","5","69","2315.10520911","direct","2","1","3","¿Qué es el membrillero?","Arbol","Arbusto","","0","0","0","individual","right","0.979261159897","2316.08460712","4.0207388401","2320.25900102","2.78840780258","2323.04746604","3.21159219742","2326.31082201","2328.26495099","2328.3124001","2331.31535006","0","2331.33054399","2337.79457307",""
"sujeto_0071765","1","3","6","70","2337.94875503","inverse","3","1","3","¿Alrededor de qué planeta orbita 
el satélite Europa?","Jupiter","Saturno","","1","1","1","competitive","right","1.39266204834","2339.3414681","3.60733795166","2343.10690594","4.41850805283","2347.52547908","1.58149194717","2349.15826607","2350.70308495","2350.77632403","2353.77926016","1","2353.79355502","2355.99871516",""
"sujeto_0071765","1","3","7","71","2356.17971897","direct","3","1","1","¿Donde fue el mundial de 
fútbol de 1954?","Suiza","Suecia","","1","1","1","competitive","left","2.58571004868","2358.76549911","2.41428995132","2361.34879494","2.13064908981","2363.47950912","3.86935091019","2367.38413501","2368.63674903","2368.71905303","2371.72202611","1","2371.7359941","2375.64777112",""
"sujeto_0071765","1","3","8","72","2375.78898907","inverse","1","1","4","¿Cuál de los 7 enanitos
no tenía barba?","Bashful","Mudito","","1","1","0","competitive","right","1.32046484947","2377.10952616","3.67953515053","2380.94076705","3.9816429615","2384.92247415","2.0183570385","2386.99255109","2388.57269406","2388.64420414","2391.64720201","1","2391.66113615","2396.59018517",""
"sujeto_0071765","1","3","9","73","2396.73170304","direct","3","1","2","¿Cual red social es
mas utilizada mundialmente?","Instagram","Facebook","","1","1","0","individual","right","1.42877984047","2398.16055202","3.57122015953","2401.88771296","2.14674091339","2404.03451395","3.85325908661","2407.93761802","2409.85497093","2409.90594196","2412.908921","1","2412.92307496","2415.85757709",""
"sujeto_0071765","1","3","10","74","2416.00817204","inverse","4","1","1","¿Cuándo se inició la copa
 América de fútbol?","1916","1923","","1","1","1","individual","left","1.66130208969","2417.66951704","3.33869791031","2421.16378999","1.76162600517","2422.92548704","4.23837399483","2427.1969111","2429.09435296","2429.13232207","2432.13526607","1","2432.14928794","2434.80539298",""
"sujeto_0071765","1","3","11","75","2434.93404102","direct","3","1","4","¿Cuántos presidentes de EEUU
han muerto asesinados?","3","4","","0","0","1","competitive","right","1.55843400955","2436.49252009","3.44156599045","2440.09085298","2.77660393715","2442.86750317","3.22339606285","2446.12412596","2447.60749412","2447.69239402","2450.69536495","0","2450.71033406","2454.354424",""
"sujeto_0071765","1","3","12","76","2454.51188517","inverse","2","1","4","¿Cuántas veces participó EEUU
 en la copa América?","4","5","","0","0","1","competitive","left","1.08452892303","2455.59648895","3.91547107697","2459.66675401","3.58367085457","2463.25048804","2.41632914543","2465.71743202","2467.16153812","2467.23557615","2470.23855209","0","2470.25291514","2476.36750507",""
"sujeto_0071765","1","3","13","77","2476.50462198","direct","4","1","1","¿Cuál de estos países 
no formaba la URSS?","Azeribayán","Afganistán","","0","0","1","individual","left","1.6769080162","2478.18158102","3.3230919838","2481.662503","4.03694701195","2485.69949603","1.96305298805","2487.712919","2489.02599502","2489.06348395","2492.06644511","0","2492.08062696","2500.05950594",""
"sujeto_0071765","1","3","14","78","2500.19924402","inverse","1","1","1","¿En qué año se inauguró
 el teatro Solís?","1867","1856","","0","0","0","competitive","right","1.99423909187","2502.19352913","3.00576090813","2505.35807896","2.39738893509","2507.75553298","3.60261106491","2511.39097214","2512.44725609","2512.52633309","2515.52928305","0","2515.54331994","2522.19115114",""
"sujeto_0071765","1","3","15","79","2522.32839513","direct","1","1","4","¿A qué velocidad vuela 
el avión más rápido?","3529","3874","","0","0","0","competitive","right","1.6280400753","2523.95650816","3.3719599247","2527.46900606","2.88340091705","2530.35245109","3.11659908295","2533.51909494","2535.274611","2535.35376096","2538.35673308","0","2538.37180614","2540.48208213",""
"sujeto_0071765","1","3","16","80","2540.62371206","inverse","3","1","4","¿De qué año es la primer 
película cinematográfica?","1897","1888","","0","0","0","competitive","left","1.55173778534","2542.1754961","3.44826221466","2545.7780261","3.08241295815","2548.86050105","2.91758704185","2551.82905102","2552.96206903","2553.03006411","2556.03305602","0","2556.04728413","2561.45546603",""
"sujeto_0071765","1","3","17","81","2561.59914398","direct","2","1","3","¿Cuántos países 
tiene nuestro planeta?","191","194","","1","1","1","competitive","left","1.71432685852","2563.31353903","3.28567314148","2566.75592804","3.77851295471","2570.53448009","2.22148704529","2572.78954697","2574.14675117","2574.22444701","2577.22743702","1","2577.24167204","2580.4799881",""
"sujeto_0071765","1","3","18","82","2580.62785196","inverse","2","1","2","¿Cuántos habitantes
 tiene Buenos Aires?","2.9000.000","3650000","","0","0","0","individual","left","2.24464392662","2582.87254095","2.75535607338","2585.79971004","3.89574289322","2589.695503","2.10425710678","2591.83313513","2593.23034596","2593.26798105","2596.27094412","0","2596.28498006","2602.11150813",""
"sujeto_0071765","1","3","19","83","2602.25281596","direct","2","1","1","¿Cuántos kilos forman una tonelada?","1000","1500","left","1","1","1","competitive","left","2.29863190651","2604.55151606","2.70136809349","2607.42686296","2.66661691666","2610.09352612","3.33338308334","2613.47558808","2615.36291599","2615.44515014","2618.4474771","1","2618.46232009","2624.41971993",""
"sujeto_0071765","1","3","20","84","2624.54703307","inverse","4","1","4","¿Cuántos estados tiene la 
República del Perú? ","24","23","","0","0","1","competitive","right","1.27741384506","2625.82449293","3.72258615494","2629.70459795","2.58784508705","2632.29248595","3.41215491295","2635.75468707","2636.77687597","2636.85706615","2639.85947609","0","2639.8735311","2644.81547904",""
"sujeto_0071765","1","3","21","85","2644.95897794","direct","3","1","3","¿En qué año nació Cristóbal Colón? ","1451","1447","","0","0","1","competitive","left","1.48548698425","2646.44453406","3.51451301575","2650.09842706","2.34605383873","2652.44452214","3.65394616127","2656.13140917","2657.97727013","2658.05033898","2661.05147409","0","2661.067729","2665.29569316",""
"sujeto_0071765","1","3","22","86","2665.45371699","inverse","4","1","4","¿Cuánto mide la 
Montaña Aconcagua? ","6234","6962","","0","0","1","competitive","right","1.45179104805","2666.905581","3.54820895195","2670.59271598","2.56674695015","2673.15950513","3.43325304985","2676.64253402","2677.93189406","2678.01122308","2681.01423097","0","2681.02817202","2688.21153498",""
"sujeto_0071765","1","3","23","87","2688.34701109","direct","2","1","4","¿Cuánto mide el punto
 más profundo del océano? ","12508","11003","","0","0","1","competitive","left","1.82647895813","2690.17356014","3.17352104187","2693.5050931","2.21635818481","2695.72151995","3.78364181519","2699.552701","2700.80423713","2700.88829112","2703.89125299","0","2703.90619516","2708.11246014",""
"sujeto_0071765","1","3","24","88","2708.25990415","inverse","1","1","3","¿Cuántos álbumes ha publicado 
el cantante Jaime Roos? ","41","34","","0","0","1","competitive","right","1.23357105255","2709.49354696","3.76642894745","2713.41462302","3.23782086372","2716.65251303","2.76217913628","2719.46430516","2720.95416808","2721.03282595","2724.03551316","0","2724.04959297","2730.24352098",""
"sujeto_0071765","1","3","25","89","2730.38446307","direct","4","1","3","¿En qué año nació el 
ex-presidente Jorge Battle? ","1921","1927","","1","1","1","individual","left","3.32598280907","2733.71049213","1.67401719093","2735.55912113","2.64232897758","2738.20149493","3.35767102242","2741.60987496","2743.3394711","2743.37818003","2746.37947702","1","2746.39576411","2749.87947202",""
"sujeto_0071765","1","3","26","90","2750.01396298","inverse","1","1","3","¿Cuántas presidencias 
constitucionales  hubo en Uruguay? ","41","42","","0","0","1","competitive","right","1.18953299522","2751.20354199","3.81046700478","2755.16961098","3.01787209511","2758.18754506","2.98212790489","2761.2191","2762.42283416","2762.50440311","2765.50737309","0","2765.52121902","2771.30486894",""
"sujeto_0071765","1","3","27","91","2771.44006395","direct","1","1","2","¿Quién escribió mas sinfonías?","Mozart","Haydn","","1","1","0","competitive","left","1.97150206566","2773.41167402","3.02849793434","2776.61282015","2.39266395569","2779.00552702","3.60733604431","2782.66448903","2783.88198209","2783.96551108","2786.96849608","1","2786.98311996","2790.73453808",""
"sujeto_0071765","1","3","28","92","2790.88563895","inverse","4","1","2","¿En qué año nació Michael Jackson?","1958","1953","","1","1","1","individual","left","1.75282001495","2792.63852906","3.24717998505","2796.04086494","1.76165604591","2797.802562","4.23834395409","2802.07328415","2804.05150914","2804.09228802","2807.09524894","1","2807.10944796","2812.97177601",""
"sujeto_0071765","1","3","29","93","2813.11122608","direct","3","1","2","¿En qué año entró en vigencia 
la ley antitabaco en Uruguay?","2005","2006","","1","1","1","competitive","right","1.98434710503","2815.09566498","3.01565289497","2818.26557708","4.68788313866","2822.95350313","1.31211686134","2824.31998706","2825.91473603","2825.98745608","2828.99041414","1","2829.00451016","2834.33549595",""
"sujeto_0071765","1","3","30","94","2834.47298002","inverse","3","1","1","¿Cuándo se subió el 
primer video a youtube?","2004","2005","","0","0","1","individual","left","1.77248001099","2836.24552894","3.22751998901","2839.62967396","2.70177102089","2842.33151197","3.29822897911","2845.6798861","2846.98555207","2847.03182697","2850.03477907","0","2850.04896808","2857.80457902",""
"sujeto_0071765","1","3","31","95","2857.95027709","direct","2","1","1","¿Cuántos habitantes tiene India?","1200 millones","1300 millones","","0","0","0","individual","right","1.23325204849","2859.18357396","3.76674795151","2863.104954","2.66748785973","2865.77248716","3.33251214027","2869.15685511","2871.12648606","2871.17512703","2874.17810106","0","2874.19309115","2880.24060011",""
"sujeto_0071765","1","3","32","96","2880.3774941","inverse","4","1","2","¿A qué edad murió Bob Marley?","36","37","","0","0","1","individual","left","1.38599610329","2881.76353717","3.61400389671","2885.51981616","2.04166293144","2887.56152296","3.95833706856","2891.56960797","2893.46745396","2893.50479317","2896.50776315","0","2896.52301812","2899.62549615",""
"sujeto_0071765","1","4","1","97","3128.71854305","direct","2","1","1","¿Cuantos años dirigió la selección 
uruguaya Tabarez?","15 años","13 años","","0","0","0","individual","left","1.66794490814","3130.38653207","3.33205509186","3133.86462593","3.32085204124","3137.18554616","2.67914795876","3139.91439915","3141.10555601","3141.14971805","3144.15141702","0","3144.16609216","3151.23553205","2899.64090014"
"sujeto_0071765","1","4","2","98","3151.36810303","inverse","4","1","1","¿Cuantas teclas tiene un teclado 
de computadora generalmente? ","Entre 99 y 108","Entre 109 y 113","","1","1","1","individual","left","1.5954220295","3152.96357203","3.4045779705","3156.50913811","4.03941512108","3160.54861593","1.96058487892","3162.56033397","3163.56310511","3163.611027","3166.61400294","1","3166.62801194","3168.99943995",""
"sujeto_0071765","1","4","3","99","3169.13019204","direct","1","1","1","¿Cuál Departamento tiene
 mayor superficie?","Río Negro","Soriano","","0","0","0","competitive","left","1.18628883362","3170.31655812","3.81371116638","3174.28275013","2.92669916153","3177.20951104","3.07330083847","3180.31778812","3182.03127193","3182.10260296","3185.10557604","0","3185.12051201","3189.44659805",""
"sujeto_0071765","1","4","4","100","3189.58887506","inverse","3","1","2","¿Cuál es el apellido de las 
hermanastras  de  cenicienta?","Tremaine","Truman","","0","0","1","individual","right","1.19260787964","3190.78153515","3.80739212036","3194.74541616","3.21103596687","3197.95652008","2.78896403313","3200.79566312","3202.66521215","3202.71415114","3205.71712303","0","3205.73127913","3208.42724204",""
"sujeto_0071765","1","4","5","101","3208.56618905","direct","4","1","4","¿Cuál película ganó un
 Oscar a mejor película?","Alto Impacto","Cache","","0","0","1","individual","left","1.93637990952","3210.50262213","3.06362009048","3213.75503802","2.10942792892","3215.864537","3.89057207108","3219.80541396","3220.92480302","3220.97402501","3223.97699904","0","3223.99126101","3226.25588894",""
"sujeto_0071765","1","4","6","102","3226.39288211","inverse","1","1","3","¿A cuántos centímetros
equivale la medida pié?","25","30","","0","0","1","competitive","left","1.68561196327","3228.07856297","3.31438803673","3231.54797316","4.05250787735","3235.60052013","1.94749212265","3237.59745407","3238.63744712","3238.71523809","3241.71823311","0","3241.73243499","3247.13336706",""
"sujeto_0071765","1","4","7","103","3247.30085707","direct","2","1","2","¿Qué departamento es mas grande?","Cerro Largo","Paysandú","","0","0","0","competitive","left","1.45568799973","3248.75661302","3.54431200027","3252.44155312","3.04901409149","3255.49064112","2.95098590851","3258.49225402","3260.09150004","3260.17651415","3263.17949414","0","3263.19407606","3267.30353212",""
"sujeto_0071765","1","4","8","104","3267.46294808","inverse","2","1","3","¿Quién pintó la Mona Lisa?","Picasso","Da Vinci","right","0","0","1","competitive","right","1.5265982151","3268.98959613","3.4734017849","3272.61947894","1.87102198601","3274.49057317","4.12897801399","3278.66838813","3280.27422905","3280.35383415","3283.35681009","1","3283.37150598","3285.53384113",""
"sujeto_0071765","1","4","9","105","3285.6737051","direct","4","1","3","¿Cuántos litros hay en un galon?","3.54","3.78","","1","1","1","individual","left","2.52782607079","3288.20159912","2.47217392921","3290.86148405","3.23504018784","3294.09656906","2.76495981216","3296.91187906","3298.42975497","3298.48004413","3301.48301101","1","3301.4979651","3307.29031205",""
"sujeto_0071765","1","4","10","106","3307.44942999","inverse","4","1","1","¿Cuántas teclas tiene
 un piano moderno?","80","88","","0","0","1","competitive","left","1.02207493782","3308.47154999","3.97792506218","3312.60247016","3.29701709747","3315.89955497","2.70298290253","3318.63743901","3319.64590716","3319.72225213","3322.72524595","0","3322.73943615","3329.53720999",""
"sujeto_0071765","1","4","11","107","3329.67515016","direct","4","1","3","¿Cuántos países hay en África?","54","62","","0","0","1","individual","right","1.63735103607","3331.31255007","3.36264896393","3334.834692","2.13478589058","3336.96954608","3.86521410942","3340.88410211","3342.57466197","3342.61946797","3345.62240601","0","3345.6366291","3353.44137001",""
"sujeto_0071765","1","4","12","108","3353.57202911","inverse","1","1","3","¿En qué siglo se crearon
 las primeras pistolas?","XV","XIII","","1","1","1","competitive","right","1.14247083664","3354.71457911","3.85752916336","3358.7133801","3.29115509987","3362.00460815","2.70884490013","3364.76360607","3366.71151996","3366.78192902","3369.7849071","1","3369.7991271","3373.03224397",""
"sujeto_0071765","1","4","13","109","3373.16711712","direct","3","1","4","¿En qué año se estrenó 
la serie friends?","1994","1995","","0","0","1","competitive","left","1.46040987968","3374.62759495","3.53959012032","3378.32353115","2.62100696564","3380.94459915","3.37899303436","3384.37328005","3386.247473","3386.32576513","3389.32751203","0","3389.34341598","3394.34949803",""
"sujeto_0071765","1","4","14","110","3394.52684116","inverse","3","1","4","¿En qué año nació Hitler?","1889","1887","","0","0","1","competitive","right","1.43571901321","3395.96262598","3.56428098679","3399.66796303","2.20859384537","3401.87662101","3.79140615463","3405.71574712","3406.83012509","3406.90137601","3409.90434003","0","3409.91754007","3414.94453001",""
"sujeto_0071765","1","4","15","111","3415.08668613","direct","1","1","4","¿Cuánto pesa un elefante Africano?","6000 kilos","5400 kilos","","0","0","0","competitive","right","1.42281198502","3416.50954199","3.57718801498","3420.22824311","3.17234015465","3423.40064812","2.82765984535","3426.27843714","3427.63436294","3427.71322012","3430.71623611","0","3430.730901","3437.43796706",""
"sujeto_0071765","1","4","16","112","3437.59886694","inverse","1","1","2","¿Qué porcentaje de 
la población es zurda?","10%","7%","","1","1","0","competitive","right","1.42165589333","3439.02056694","3.57834410667","3442.73939514","2.53618597984","3445.27562594","3.46381402016","3448.78960609","3450.03267813","3450.1082921","3453.11130714","1","3453.12562203","3459.10532904",""
"sujeto_0071765","1","4","17","113","3459.24388504","direct","1","1","2","¿En qué año se estrenó
Volver al futuro?","1984","1985","","0","0","1","competitive","left","1.32964587212","3460.57360196","3.67035412788","3464.40140104","2.25314188004","3466.65458393","3.74685811996","3470.45028496","3472.01147604","3472.08604813","3475.08748007","0","3475.10349202","3482.19147396",""
"sujeto_0071765","1","4","18","114","3482.33876204","inverse","3","1","2","¿Cuántos jugadores hay en un 
equipo de baseball?","9","8","","1","1","0","individual","right","1.76977682114","3484.10860705","3.23022317886","3487.47941399","3.25510597229","3490.73458099","2.74489402771","3493.52877712","3495.14305401","3495.18119001","3498.18178201","1","3498.19796395","3503.17518997",""
"sujeto_0071765","1","4","19","115","3503.33234501","direct","2","1","1","¿Cuántos Oscar ganó
 la película titanic?","13","11","","1","1","1","individual","right","1.65218687057","3504.98457694","3.34781312943","3508.47413206","3.0383810997","3511.51255298","2.9616189003","3514.52405","3515.82604814","3515.87493205","3518.87790704","1","3518.89305615","3523.49548697",""
"sujeto_0071765","1","4","20","116","3523.64452815","inverse","4","1","4","¿En qué año comenzó
la segunda guerra mundial?","1939","1976","left","0","0","1","competitive","left","1.58500909805","3525.22960615","3.41499090195","3528.80076313","3.84479308128","3532.64562201","2.15520691872","3534.83463097","3536.63444996","3536.71908212","3539.72206497","1","3539.73647499","3543.72359204",""
"sujeto_0071765","1","4","21","117","3543.88852715","direct","2","1","4","¿Cuántos biomas hay en Uruguay?","5","4","","0","0","1","competitive","left","1.50701189041","3545.39560699","3.49298810959","3549.0283761","2.69412112236","3551.72253704","3.30587887764","3555.06149507","3556.85886097","3556.92958808","3559.93258095","0","3559.94757009","3566.19697809",""
"sujeto_0071765","1","4","22","118","3566.36576915","inverse","2","1","3","¿Cuándo murió Pablo Escobar?","1993","1997","","1","1","1","competitive","right","1.74281907082","3568.10863304","3.25718092918","3571.52276015","1.91280603409","3573.43560815","4.08719396591","3577.553231","3579.3355031","3579.42178106","3582.42348099","1","3582.4398911","3588.14356112",""
"sujeto_0071765","1","4","23","119","3588.29092407","direct","1","1","4","¿Qué serie ha ganado mas premios?","Friends","Murphy Brown","","1","1","0","individual","left","1.36366391182","3589.65465903","3.63633608818","3593.45105314","2.86254501343","3596.31366301","3.13745498657","3599.50089312","3600.85326505","3600.90262294","3603.90560007","1","3603.91995597","3609.48126316",""
"sujeto_0071765","1","4","24","120","3609.62129402","inverse","4","1","2","¿Cuántas fichas tiene el dominó?","26","28","","1","1","1","individual","right","1.60129499435","3611.22263503","3.39870500565","3614.76203203","2.3175008297","3617.07957411","3.6824991703","3620.81179309","3621.86710596","3621.91351199","3624.91549802","1","3624.93083405","3630.17393613",""
"sujeto_0071765","1","4","25","121","3630.31759906","direct","2","1","4","¿Cuántos son los dientes de leche?","20","25","","0","0","1","competitive","left","1.30296993256","3631.62061405","3.69703006744","3635.47180104","3.2277109623","3638.69955611","2.7722890377","3641.50622416","3643.21659994","3643.29045105","3646.2928021","0","3646.30777097","3648.45346808",""
"sujeto_0071765","1","4","26","122","3648.59326911","inverse","3","1","3","¿Cuántos gramos son una onza?","22","28","","0","0","1","competitive","left","1.45027208328","3650.0436101","3.54972791672","3653.74491811","3.38863897324","3657.13360095","2.61136102676","3659.79710007","3661.79196215","3661.8645401","3664.86749005","0","3664.88295197","3671.17322803",""
"sujeto_0071765","1","4","27","123","3671.33435297","direct","3","1","1","¿Cuándo salió el primer album
 de los Beatles?","1963","1962","","1","1","1","individual","left","1.69520282745","3673.02962399","3.30479717255","3676.47666407","1.97889780998","3678.45560408","4.02110219002","3682.51016402","3683.67378497","3683.712394","3686.71537614","1","3686.72951198","3690.5015471",""
"sujeto_0071765","1","4","28","124","3690.64758897","inverse","3","1","3","¿Quién fundó la empresa apple?","Carlos Slim","Steve Jobs","","1","1","1","competitive","right","1.46994996071","3692.11761808","3.53005003929","3695.80350304","3.86402201653","3699.667593","2.13597798347","3701.85383296","3702.96849012","3703.03811908","3706.04110694","1","3706.05502796","3712.34988308",""
"sujeto_0071765","1","4","29","125","3712.4909761","direct","4","1","2","¿Cuántos municipios hay
 en Montevideo?","8","7","","1","1","1","individual","left","1.84156918526","3714.33259106","3.15843081474","3717.64805508","2.54945707321","3720.19755197","3.45054292679","3723.69777513","3725.61248994","3725.65015507","3728.65314412","1","3728.66705298","3730.74822903",""
"sujeto_0071765","1","4","30","126","3730.88561916","inverse","1","1","1","¿Cuántos kilómetros hay
 de Montevideo a Artigas?","632","599","","0","0","0","individual","right","1.24296092987","3732.1286521","3.75703907013","3736.04084206","3.2797100544","3739.32061696","2.7202899456","3742.07410908","3743.55725002","3743.60946393","3746.61143613","0","3746.62608504","3752.675529",""
"sujeto_0071765","1","4","31","127","3752.8276751","direct","2","1","2","¿En qué año nació 
Leonardo Da Vinci?","1452","1511","","1","1","0","individual","left","1.61086606979","3754.43858814","3.38913393021","3757.98527312","1.87428808212","3759.85960317","4.12571191788","3764.035285","3765.88888407","3765.93745303","3768.94037104","1","3768.95453596","3772.10095",""
"sujeto_0071765","1","4","32","128","3772.23995304","inverse","3","1","1","¿A qué continente
 pertenece el país Gabón?","Africa","Oceanía","","0","0","1","individual","left","1.51362681389","3773.753649","3.48637318611","3777.39508605","3.46548295021","3780.86060905","2.53451704979","3783.44574499","3785.25739002","3785.29679704","3788.29948497","0","3788.31448698","3793.5523591",""
