"code","nro_aplicante","nro_bloque","nro_trial_bloque","nro_trial_global","show_game_type","choice_order","rival","pay_individual","pay_competitive","question","answer_left_text","answer_right_text","correct_answer","outcome_individual","outcome_competitive","outcome_rival","game_type","answer","social_time","rt_game_type","feedback_delay","show_question","answer_time","rt_answer_global","feedback_delay_2","show_jitter","jitter_time","show_outcome","outcome_time","outcome_participant_real","show_final_jitter","second_jitter_time","inicio_descanso"
"sujeto_5ce680d","1","1","1","1","124.841533899","direct","3","1","4","¿Cuántos centímetros corresponden
al talle 36 del calzado?","23","24","","0","0","1","competitive","","2.03059697151","126.872175932","2.96940302849","129.998558044","6","135.998697996","0","136.017145872","137.04539299","137.11815691","140.12113905","0","140.135185003","142.297703028",""
"sujeto_5ce680d","1","1","2","2","142.452048063","inverse","3","1","2","¿Cuántas metros mide la Intendencia
Municipal de Montevideo? ","84","78","","0","0","1","competitive","right","2.15188312531","144.60401392","2.84811687469","147.609299898","2.90185594559","150.511194944","3.09814405441","153.659700871","155.537716866","155.611222982","158.614198923","0","158.628496885","160.721256018",""
"sujeto_5ce680d","1","1","3","3","160.864458084","direct","1","1","3","¿Cuántas La Pasiva
 hay en uruguay?","15","11","","1","1","1","competitive","right","1.74421811104","162.608720064","3.25578188896","166.01925993","2.78765797615","168.806957006","3.21234202385","172.069417953","173.680502892","173.754493952","176.757467985","1","176.771637917","181.049942017",""
"sujeto_5ce680d","1","1","4","4","181.209750891","inverse","3","1","3","¿De que color es la camiseta de uruguay?","blanca","celeste","right","1","1","1","competitive","right","1.53677201271","182.746564865","3.46322798729","186.347033978","2.53179979324","188.878875017","3.46820020676","192.39683795","193.601594925","193.68241787","196.684534073","1","196.699524879","200.15344286",""
"sujeto_5ce680d","1","1","5","5","200.300021887","direct","2","1","1","¿Cuánto metros mide
la torre Eiffel?","333","324","","1","1","1","competitive","left","1.92736887932","202.227441072","3.07263112068","205.47095108","2.1196539402","207.59067297","3.8803460598","211.52431488","213.045681953","213.127100945","216.130084038","1","216.144442081","223.181108952",""
"sujeto_5ce680d","1","1","6","6","223.316717863","inverse","3","1","4","¿Cuantas ciudades existen
 en todo el uruguay?","63","72","","0","0","1","competitive","right","1.00764608383","224.324454069","3.99235391617","228.470151901","2.32743191719","230.79762888","3.67256808281","234.503637075","235.558423042","235.639221907","238.640539885","0","238.656885862","246.283479929",""
"sujeto_5ce680d","1","1","7","7","246.443983078","direct","1","1","1","¿Cuantos estados tiene África?","52","54","","1","1","0","competitive","right","2.28745102882","248.731474876","2.71254897118","251.583848","2.53576588631","254.119693995","3.46423411369","257.63397789","259.496545076","259.569449902","262.572437048","1","262.586704016","268.344511032",""
"sujeto_5ce680d","1","1","8","8","268.49138689","inverse","4","1","4","¿En qué año nació
 Stephen Hawking?","1952","1942","","0","0","1","competitive","right","1.11994504929","269.611397982","3.88005495071","273.645201921","3.64344000816","277.288686991","2.35655999184","279.679365873","281.123668909","281.198289871","284.201271057","0","284.214586973","290.313907862",""
"sujeto_5ce680d","1","1","9","9","290.48643899","direct","2","1","3","¿Cuánto años tenía Artigas
 cuando se fue a Paraguay?","56","57","","1","1","1","competitive","left","1.5229279995","292.009433031","3.4770720005","295.624142885","3.38233304024","299.006537914","2.61766695976","301.675203085","303.224719048","303.309460878","306.312443972","1","306.327375889","312.374168873",""
"sujeto_5ce680d","1","1","10","10","312.512508869","inverse","1","1","2","¿Cuantos milímetros 
mide una hoja A2?","420x592","420x594","","0","0","1","competitive","right","1.1077029705","313.620259047","3.8922970295","317.649535894","3.69050693512","321.34008193","2.30949306488","323.70189786","325.270340919","325.353095055","328.356067896","0","328.37025094","335.443866014",""
"sujeto_5ce680d","1","1","11","11","335.588563919","direct","3","1","3","¿Cuál es la menor temperatura 
registrada en Uruguay?","-5.4","-7.4","","0","0","1","competitive","right","1.57222390175","337.160826921","3.42777609825","340.730493069","2.80832099915","343.538851976","3.19167900085","346.780917883","348.462892056","348.532567978","351.53551507","0","351.549725056","355.280494928",""
"sujeto_5ce680d","1","1","12","12","355.417592049","inverse","2","1","2","¿Cuantos años hace que 
se fundó facebook?","18","17","","0","0","0","competitive","left","2.50508117676","357.92275095","2.49491882324","360.587971926","4.64853596687","365.23656702","1.35146403313","366.625420094","367.998133898","368.075860023","371.078830957","0","371.093160868","373.867800951",""
"sujeto_5ce680d","1","1","13","13","374.010210991","direct","1","1","4","¿Cuál animal es más
 pesado en promedio?","Rinoceronte","Hipopotamo","","0","0","0","competitive","left","1.52326488495","375.533523083","3.47673511505","379.199562073","3.19574809074","382.395375967","2.80425190926","385.249808073","386.32852602","386.402137995","389.405124903","0","389.419127941","393.260117054",""
"sujeto_5ce680d","1","1","14","14","393.386657","inverse","1","1","2","¿Qué personaje de dragon ball 
murió más veces?","Chaoz","Krillin","","1","1","0","competitive","right","1.68763589859","395.074357033","3.31236410141","398.52671504","3.78346204758","402.310217857","2.21653795242","404.577095985","406.034916878","406.111427069","409.114403963","1","409.128630877","416.901571989",""
"sujeto_5ce680d","1","1","15","15","417.051248074","direct","3","1","2","La universidad de oxford. 
existe desde:","1096","1249","","1","1","0","competitive","left","1.7779109478","418.829220057","3.2220890522","422.205466032","3.44062495232","425.646151066","2.55937504768","428.256248951","429.305051088","429.390476942","432.392519951","1","432.407711983","439.096528053",""
"sujeto_5ce680d","1","1","16","16","439.243221998","inverse","3","1","1","¿Qué escritor latino ganó antes
 el premio nobel?"," García Marquez","Neruda","","0","0","1","individual","left","2.1458158493","441.389107943","2.8541841507","444.413908958","3.34509181976","447.759065866","2.65490818024","450.450867891","452.190855026","452.235478878","455.236530066","0","455.252811909","458.713348866",""
"sujeto_5ce680d","1","1","17","17","458.854212999","direct","4","1","3","¿Cuántos dientes tiene un
 tiburón blanco?","6000","3000","","0","0","1","competitive","left","1.0457918644","459.900047064","3.9542081356","464.009968042","2.82999706268","466.840033054","3.17000293732","470.059913874","471.098893881","471.178747892","474.181727886","0","474.195358992","479.00503087",""
"sujeto_5ce680d","1","1","18","18","479.150285006","inverse","4","1","1","¿Cuánto mide el paralelo Ecuador?","40.000km","70.000km","","0","0","1","individual","right","1.62465786934","480.77501297","3.37534213066","484.303883076","3.34601402283","487.649940968","2.65398597717","490.353942871","492.310061932","492.355941057","495.358890057","0","495.373167038","498.975739956",""
"sujeto_5ce680d","1","1","19","19","499.110545874","direct","4","1","2","¿Cuál fue el primer libro 
de Stephen King?","Carrie","The Stand","","1","1","1","competitive","left","1.54743003845","500.658021927","3.45256996155","504.264543056","3.96943211555","508.234036922","2.03056788445","510.314563036","512.058687925","512.132149935","515.135137081","1","515.14941597","519.623831987",""
"sujeto_5ce680d","1","1","20","20","519.770068884","inverse","2","1","3","¿Qué civilización practicaba
 la momificación?","Grecia","Egipto","right","0","0","1","competitive","right","1.66994595528","521.440061092","3.33005404472","524.940986872","3.72904706001","528.670095921","2.27095293999","530.974966049","532.912488937","532.993028879","535.995965958","1","536.010961056","540.239753008",""
"sujeto_5ce680d","1","1","21","21","540.397706985","direct","4","1","4","¿Cuántos millones de visitas
 recibe google por minuto?","3.0","4.5","","0","0","1","competitive","right","3.00941896439","543.407190084","1.99058103561","545.568638086","3.51548695564","549.08416605","2.48451304436","551.619379997","553.134253025","553.220506907","556.223483086","0","556.238477945","563.36114502",""
"sujeto_5ce680d","1","1","22","22","563.49583292","inverse","1","1","3","La máquina de fax. se inventó en:","1843","1960","","0","0","1","competitive","left","1.66935896873","565.165257931","3.33064103127","568.646751881","4.41752195358","573.064341068","1.58247804642","574.698083878","575.940160036","576.015384912","579.018378019","0","579.032631874","582.268940926",""
"sujeto_5ce680d","1","1","23","23","582.402714968","direct","2","1","4","En la verdadera historia de los
 300 espartanos. habían:","300 soldados","4300 soldados","","1","1","1","competitive","left","2.65663194656","585.059409857","2.34336805344","587.572026014","4.39035916328","591.96243","1.60964083672","593.625648022","594.886878014","594.959289074","597.962249041","1","597.976615906","601.778357983",""
"sujeto_5ce680d","1","1","24","24","601.910940886","inverse","1","1","4","¿Cuántos milímetros crece
 el pelo por día?","0.4","0.04","","0","0","0","competitive","left","1.77455496788","603.685558081","3.22544503212","607.067499876","3.87705397606","610.94459486","2.12294602394","613.101302862","614.862030029","614.936264038","617.936472893","0","617.953518867","624.688468933",""
"sujeto_5ce680d","1","1","25","25","624.824579954","direct","4","1","1","¿Cuánto mide la baldosa gris 
clásica de Montevideo?","22x22 cm.","20x20 cm.","","1","1","1","competitive","left","1.67017197609","626.494817972","3.32982802391","629.979469061","4.10331392288","634.082841873","1.89668607712","636.027855873","638.023113966","638.095620871","641.098613024","1","641.113702059","646.656513929",""
"sujeto_5ce680d","1","1","26","26","646.785809994","inverse","2","1","2","¿Cuántas películas de rápidos
 y furiosos hay?","10","11","","1","1","0","competitive","right","1.73213791847","648.517989874","3.26786208153","651.92453289","3.19741106033","655.122001886","2.80258893967","657.974987984","659.332918882","659.409198999","662.412132025","1","662.426331997","664.460547924",""
"sujeto_5ce680d","1","1","27","27","664.629755974","direct","3","1","1","¿Cuántos masters 1000
 ganó Del Potro?","1","2","","1","1","1","individual","right","2.17537903786","666.805204868","2.82462096214","669.783761978","3.77244997025","673.556252956","2.22755002975","675.835260868","677.588491917","677.636329889","680.639296055","1","680.653372049","688.049726009",""
"sujeto_5ce680d","1","1","28","28","688.209853888","inverse","2","1","4","¿Cuántos meses dura el 
embarazo de una leona?","3 meses","4 meses","","0","0","1","competitive","right","1.68849110603","689.898406982","3.31150889397","693.363147974","3.32741594315","696.690605879","2.67258405685","699.413626909","700.52448988","700.598156929","703.600506067","0","703.615421057","710.337915897",""
"sujeto_5ce680d","1","1","29","29","710.485162973","direct","1","1","1","¿En qué año fue creado
 el sandwich?","1762","1653","","1","1","0","individual","right","1.38059306145","711.865799904","3.61940693855","715.641782999","4.24501419067","719.88683486","1.75498580933","721.69076705","723.289325953","723.342657089","726.344488859","1","726.359602928","729.830240965",""
"sujeto_5ce680d","1","1","30","30","729.962615013","inverse","4","1","2","El nombre de la moneda de Vietnam es:","Dinar","Dong","","0","0","1","competitive","right","1.55344009399","731.516124964","3.44655990601","735.101525068","3.53653907776","738.638123035","2.46346092224","741.152360916","742.584321022","742.669626951","745.672520876","0","745.687659025","751.856116056",""
"sujeto_5ce680d","1","1","31","31","752.005635977","direct","2","1","1","¿cuantos aleteos puede dar 
un colibrí por segundo?","120","50","","0","0","0","individual","left","1.77368378639","753.779362917","3.22631621361","757.163364887","2.75099205971","759.914392948","3.24900794029","763.213670015","764.946047068","764.981901884","767.984473944","0","767.999068975","772.208505869",""
"sujeto_5ce680d","1","1","32","32","772.370127916","inverse","4","1","3","¿Qué altura promedio tienen
 los hombres uruguayos?","1.73 m","1.72 m","","1","1","1","competitive","left","2.62955188751","774.999742985","2.37044811249","777.539083958","2.99868583679","780.537812948","3.00131416321","783.59096694","784.852508068","784.925823927","787.928492069","1","787.943542957","792.419513941",""
"sujeto_5ce680d","1","2","1","33","958.035842896","direct","1","1","1","¿En qué año nació 
el actor Bradd Pitt?","1967","1963","","1","1","1","individual","right","1.66063189507","959.696517944","3.33936810493","963.189889908","5.23280096054","968.422751904","0.767199039459","969.241473913","970.336579084","970.375307083","973.378249884","1","973.392337084","979.316531897","792.437834978"
"sujeto_5ce680d","1","2","2","34","979.463708878","inverse","2","1","1","¿Cual es el segundo 
monte más alto?","Kanchenjunga","K2","","1","1","1","competitive","left","1.41029191017","980.874062061","3.58970808983","984.617594004","4.96660614014","989.584260941","1.03339385986","990.669252872","992.121681929","992.202924013","995.20592308","1","995.22123909","998.651156902",""
"sujeto_5ce680d","1","2","3","35","998.789412022","direct","3","1","1","¿Cuándo finalizó la construcción
 del Palacio Legislativo?","1925","1917","","0","0","1","individual","left","1.16605401039","999.955508947","3.83394598961","1003.94442892","5.02723908424","1008.97171187","0.972760915756","1009.97943592","1011.62114406","1011.66395402","1014.66452408","0","1014.68151402","1020.37907505",""
"sujeto_5ce680d","1","2","4","36","1020.53290391","inverse","3","1","3","¿Cuántos integrantes tenía
 en su inicio  el cuarteto de nos?","3","4","","1","1","1","competitive","left","1.42412900925","1021.95709991","3.57587099075","1025.673985","3.78820705414","1029.46223187","2.21179294586","1031.72481298","1032.85792089","1032.94190407","1035.94451094","1","1035.95972204","1041.60851908",""
"sujeto_5ce680d","1","2","5","37","1041.74429798","direct","2","1","3","¿Qué valor tiene el número pi?","3.14","4.18","left","0","0","1","individual","left","2.55533695221","1044.29969501","2.44466304779","1046.898669","2.07203102112","1048.97074509","3.92796897888","1052.95184898","1054.40599704","1054.45422387","1057.45693588","1","1057.47114491","1064.38852692",""
"sujeto_5ce680d","1","2","6","38","1064.53908205","inverse","2","1","2","¿Cuál es la esperanza de vida
 en Uruguay?","75","77","","1","1","0","competitive","left","3.24111604691","1067.78026891","1.75888395309","1069.69714189","3.17309999466","1072.8702929","2.82690000534","1075.74856091","1077.4023149","1077.48316097","1080.48615408","1","1080.50060201","1086.96053195",""
"sujeto_5ce680d","1","2","7","39","1087.10232186","direct","1","1","2","¿Cuantos pisos tiene la torre 
de las comunicaciones?","26","32","","1","1","0","competitive","right","2.30745387077","1089.40984106","2.69254612923","1092.27641702","3.52749705315","1095.80397487","2.47250294685","1098.31095195","1100.13972306","1100.21198392","1103.21499395","1","1103.2299459","1105.37612605",""
"sujeto_5ce680d","1","2","8","40","1105.54847097","inverse","2","1","4","¿En qué país sudamericano 
no hay McDonalds?","Bolivia","Venezuela","","0","0","1","competitive","right","1.70888614655","1107.25739908","3.29111385345","1110.70261407","4.88487005234","1115.58754992","1.11512994766","1116.75472093","1118.06410003","1118.13835788","1121.14050603","0","1121.15598893","1127.51568794",""
"sujeto_5ce680d","1","2","9","41","1127.67698407","direct","3","1","1","¿En qué año empieza
 la Edad Media?","476","512","","1","1","1","individual","left","1.72994995117","1129.40700293","3.27005004883","1132.83179903","5.13924503326","1137.97110009","0.860754966736","1138.86654592","1140.27031994","1140.31726408","1143.32019186","1","1143.33451986","1146.3230679",""
"sujeto_5ce680d","1","2","10","42","1146.47147894","inverse","3","1","4","¿Hace cuántos años surgió
 el ser humano?","200mil","300mil","","0","0","0","competitive","left","1.62187194824","1148.09341097","3.37812805176","1151.62518191","4.03937697411","1155.66462207","1.96062302589","1157.67643905","1159.56248903","1159.64417386","1162.64452696","0","1162.661659","1165.97213292",""
"sujeto_5ce680d","1","2","11","43","1166.11532187","direct","3","1","4","¿Cuántas cuadras tiene
 actualmente 18 de julio? ","36","33","","0","0","1","competitive","right","2.56872797012","1168.68417406","2.43127202988","1171.28497505","3.79620814323","1175.08124089","2.20379185677","1177.32042408","1179.02269292","1179.10443902","1182.10741901","0","1182.12233806","1186.84850597",""
"sujeto_5ce680d","1","2","12","44","1186.99329209","inverse","1","1","4","¿Qué juego de equipo se 
considera mas rápido?","Lacrosse","Badminton","","0","0","0","competitive","","1.67435693741","1188.66771603","3.32564306259","1192.14694691","6","1198.14707994","0","1198.16286206","1199.40588689","1199.48203802","1202.48501301","0","1202.49920392","1210.49436808",""
"sujeto_5ce680d","1","2","13","45","1210.61736989","direct","1","1","3","¿Qué promedio de edad 
vive una jirafa? ","25","20","","0","0","1","competitive","right","1.94803190231","1212.56545305","3.05196809769","1215.77756","2.62993478775","1218.40753794","3.37006521225","1221.81047201","1223.57198405","1223.64517593","1226.64816594","0","1226.66349006","1232.61920309",""
"sujeto_5ce680d","1","2","14","46","1232.75184298","inverse","1","1","2","¿Cuántos grandes lagos hay?","7","5","","0","0","1","competitive","right","2.53716397285","1235.28906989","2.46283602715","1237.90515995","4.80103683472","1242.70623708","1.19896316528","1243.94107389","1245.23253107","1245.30798292","1248.30854106","0","1248.32474208","1256.14612007",""
"sujeto_5ce680d","1","2","15","47","1256.27590799","direct","3","1","2","¿Cuántos discos de estudio
 grabó Johhny Cash? ","54","43","","1","1","0","competitive","left","1.54977893829","1257.82573104","3.45022106171","1261.41883492","4.60201191902","1266.02088904","1.39798808098","1267.46976209","1268.74844098","1268.82040286","1271.82336807","1","1271.83731198","1278.48453093",""
"sujeto_5ce680d","1","2","16","48","1278.62194586","inverse","4","1","1","¿Cuántos barrios tiene
 Montevideo? ","71","62","","0","0","1","individual","right","1.5664191246","1280.18844604","3.4335808754","1283.76413989","2.38037800789","1286.14457798","3.61962199211","1289.81280708","1290.81985903","1290.86528087","1293.86824298","0","1293.882514","1299.34451795",""
"sujeto_5ce680d","1","2","17","49","1299.48405886","direct","3","1","3","¿Qué edad tiene Homero Simpson?","36","42","","0","0","1","competitive","right","1.51097297668","1300.99507594","3.48902702332","1304.64207602","3.58809304237","1308.23022795","2.41190695763","1310.6925509","1312.06856489","1312.14371109","1315.14453697","0","1315.160815","1319.54955196",""
"sujeto_5ce680d","1","2","18","50","1319.69799209","inverse","4","1","2","¿Cuántos países con monarquía 
hay en europa actualmente? ","6","10","","1","1","1","individual","left","2.18870902061","1321.88674593","2.81129097939","1324.86788607","4.0459549427","1328.91390204","1.9540450573","1330.90398788","1332.34223986","1332.38822508","1335.39115787","1","1335.40624905","1341.56309795",""
"sujeto_5ce680d","1","2","19","51","1341.70732188","direct","2","1","3","¿Cuántos capítulos de
 Friends existen? ","236","228","","1","1","1","competitive","right","1.62500905991","1343.33237386","3.37499094009","1346.84840488","3.90313792229","1350.75160289","2.09686207771","1352.89876509","1354.20443296","1354.28339601","1357.28637791","1","1357.30140591","1359.67705297",""
"sujeto_5ce680d","1","2","20","52","1359.83663607","inverse","1","1","3","¿Cuántas óperas compuso Mozart? ","27","22","","1","1","1","competitive","left","1.83124995232","1361.66795897","3.16875004768","1365.00862408","3.1874461174","1368.19611096","2.8125538826","1371.05928802","1372.35140896","1372.42695808","1375.42849088","1","1375.44467092","1382.75615096",""
"sujeto_5ce680d","1","2","21","53","1382.89951587","direct","4","1","3","¿Cuántos mundiales de fútbol 
femenino ha realizado FIFA? ","9","7","","1","1","1","competitive","left","1.852175951","1384.75175786","3.147824049","1388.08725786","4.87358403206","1392.96089602","1.12641596794","1394.12201095","1395.36573601","1395.439852","1398.44052386","1","1398.45684409","1404.55650592",""
"sujeto_5ce680d","1","2","22","54","1404.69200206","inverse","3","1","2","¿Cuál es la temperatura 
media anual en Montevideo? ","17.5","16.3","","0","0","1","individual","right","1.80840492249","1406.50045395","3.19159507751","1409.84924006","3.62934589386","1413.47864795","2.37065410614","1415.89998388","1417.83856702","1417.88383007","1420.88678193","0","1420.90219307","1427.47172594",""
"sujeto_5ce680d","1","2","23","55","1427.60915208","direct","2","1","2","¿En qué año se estrenó el
 videojuego The Sims? ","2000","2002","","0","0","0","individual","left","1.4369571209","1429.04615307","3.5630428791","1432.762326","3.4509780407","1436.21336198","2.5490219593","1438.81229305","1440.67427301","1440.71340895","1443.716398","0","1443.73152089","1451.125175",""
"sujeto_5ce680d","1","2","24","56","1451.30068803","inverse","2","1","1","¿Cuál es la canción con 
mas covers? ","Yesterday","Stand by me","","0","0","0","competitive","left","2.6962120533","1453.99694395","2.3037879467","1456.47095609","3.31017708778","1459.78119397","2.68982291222","1462.52560186","1463.9240849","1463.99357891","1466.99653006","0","1467.01060295","1471.18048787",""
"sujeto_5ce680d","1","2","25","57","1471.31636405","direct","1","1","4","¿Cuánto duró la guerra
 de los 100 años?","116","123","","0","0","0","competitive","right","1.41725707054","1472.73368788","3.58274292946","1476.46945405","3.77739715576","1480.24692106","2.22260284424","1482.50317907","1483.98399496","1484.05455804","1487.0575459","0","1487.07169008","1489.39146996",""
"sujeto_5ce680d","1","2","26","58","1489.54109192","inverse","4","1","4","¿Qué color tiene la  bandera de Brasil?","Amarillo","Naranja","left","0","0","1","competitive","left","2.63913607597","1492.18029404","2.36086392403","1494.695961","4.06449007988","1498.76048994","1.93550992012","1500.74663186","1502.3131659","1502.39858389","1505.40050602","1","1505.41580486","1508.44859195",""
"sujeto_5ce680d","1","2","27","59","1508.58396387","direct","4","1","3","¿Qué carabela de 
Colon no volvió del viaje?","Santa María","La pinta","","0","0","1","individual","left","3.22994303703","1511.81397104","1.77005696297","1513.7554369","4.86265587807","1518.61813188","1.13734412193","1519.79121304","1521.2822659","1521.32484293","1524.32780099","0","1524.34280992","1526.44224501",""
"sujeto_5ce680d","1","2","28","60","1526.58011889","inverse","4","1","4","¿Cuántos huesos tiene
 un adulto humano?","217","206","","0","0","1","competitive","right","2.39436793327","1528.97452998","2.60563206673","1531.72775888","1.7268140316","1533.45461392","4.2731859684","1537.78254509","1539.05359697","1539.13461494","1542.13759708","0","1542.15178204","1549.98852992",""
"sujeto_5ce680d","1","2","29","61","1550.120363","direct","1","1","1","¿Qué país africano fue 
fundado por esclavos?","Liberia","Chad","","0","0","0","competitive","right","3.08089280128","1553.20133305","1.91910719872","1555.27743292","4.91311097145","1560.19060802","1.08688902855","1561.31412005","1563.30578303","1563.38068986","1566.38363695","0","1566.39840698","1574.389256",""
"sujeto_5ce680d","1","2","30","62","1574.53568792","inverse","4","1","2","¿A cuánto asciende la cima
 del monte Everest?","7.990 mts","8.848 mts","","0","0","1","individual","right","3.1094660759","1577.6452179","1.8905339241","1579.69235492","3.45694684982","1583.14935994","2.54305315018","1585.74391103","1586.92877698","1586.97759104","1589.98050499","0","1589.99482298","1597.17888188",""
"sujeto_5ce680d","1","2","31","63","1597.36707401","direct","4","1","1","¿Cuál es el país mas chico?","Sealand","Luxemburgo","","1","1","1","individual","left","2.9868080616","1600.35393405","2.0131919384","1602.55340695","3.57970404625","1606.13317299","2.42029595375","1608.58947802","1610.45250201","1610.490731","1613.49249101","1","1613.50859094","1616.63088107",""
"sujeto_5ce680d","1","2","32","64","1616.75924206","inverse","2","1","4","¿Cuántas pirámides hay en Egipto?","10000","11000","","1","1","1","competitive","right","2.62933206558","1619.38861799","2.37066793442","1621.92834592","4.01239991188","1625.94078493","1.98760008812","1627.96707201","1629.00052786","1629.08506298","1632.08805895","1","1632.10196805","1637.21102905",""
"sujeto_5ce680d","1","3","1","65","1761.64077806","direct","2","1","2","¿Cuál es el quinto país con 
mas extensión?","Canadá","Brasil","","1","1","0","individual","left","2.71294307709","1764.35376501","2.28705692291","1766.81202197","4.32391214371","1771.13597393","1.67608785629","1772.86351609","1774.19653296","1774.247895","1777.24854994","1","1777.264503","1784.98852205","1637.22595906"
"sujeto_5ce680d","1","3","2","66","1785.13435292","inverse","1","1","2","¿Qué rasgo facial no tiene
 la Mona Lisa?","Cejas","Pómulos","","0","0","1","competitive","left","2.75323796272","1787.88765788","2.24676203728","1790.32220888","2.75055909157","1793.07280707","3.24944090843","1796.35823202","1798.10867691","1798.19393206","1801.19689608","0","1801.21083307","1807.48214388",""
"sujeto_5ce680d","1","3","3","67","1807.66693807","direct","4","1","3","¿Cuál es el país con 
mayor población?","Esados Unidos","China","right","0","0","1","competitive","right","4.62751913071","1812.29452109","0.372480869293","1812.81924391","2.97235703468","1815.79166698","3.02764296532","1818.87086487","1820.51653504","1820.58934188","1823.59233594","1","1823.60754108","1826.974828",""
"sujeto_5ce680d","1","3","4","68","1827.10841799","inverse","1","1","1","La palabra dinosaurio significa","Lagarto Terrible","Lagarto Dragón","","1","1","0","individual","right","2.1986181736","1829.30710101","2.8013818264","1832.26224804","4.75401496887","1837.0163269","1.24598503113","1838.31608605","1839.48638606","1839.53370595","1842.53651786","1","1842.55063009","1845.41246104",""
"sujeto_5ce680d","1","3","5","69","1845.55364609","direct","2","1","3","¿Qué es el membrillero?","Arbol","Arbusto","","0","0","0","competitive","left","1.50606894493","1847.05975795","3.49393105507","1850.69149303","4.49249696732","1855.18405294","1.50750303268","1856.72556901","1858.67969203","1858.759969","1861.76054692","0","1861.77679801","1868.24021888",""
"sujeto_5ce680d","1","3","6","70","1868.37930107","inverse","3","1","3","¿Alrededor de qué planeta orbita 
el satélite Europa?","Jupiter","Saturno","","1","1","1","competitive","right","1.52327013016","1869.90264201","3.47672986984","1873.53804994","5.68680500984","1879.22491288","0.313194990158","1879.58908987","1881.13389087","1881.22318006","1884.22617102","1","1884.24036694","1886.44555593",""
"sujeto_5ce680d","1","3","7","71","1886.57548594","direct","3","1","1","¿Donde fue el mundial de 
fútbol de 1954?","Suiza","Suecia","","1","1","1","individual","left","1.22270703316","1887.79826498","3.77729296684","1891.73062706","4.7148771286","1896.44554901","1.2851228714","1897.78133202","1899.03395391","1899.08232403","1902.08528495","1","1902.099576","1906.01135993",""
"sujeto_5ce680d","1","3","8","72","1906.18660307","inverse","1","1","4","¿Cuál de los 7 enanitos
no tenía barba?","Bashful","Mudito","","1","1","0","competitive","left","1.37931489944","1907.56595898","3.62068510056","1911.34108996","4.5661239624","1915.90725398","1.4338760376","1917.39244103","1918.97252107","1919.04307508","1922.04605293","1","1922.06111407","1926.9896419",""
"sujeto_5ce680d","1","3","9","73","1927.13014603","direct","3","1","2","¿Cual red social es
mas utilizada mundialmente?","Instagram","Facebook","","1","1","0","individual","left","2.16773104668","1929.29794788","2.83226895332","1932.28565502","2.85826015472","1935.14395404","3.14173984528","1938.33640599","1940.25382495","1940.30432487","1943.30730891","1","1943.32149196","1946.25599003",""
"sujeto_5ce680d","1","3","10","74","1946.44148803","inverse","4","1","1","¿Cuándo se inició la copa
 América de fútbol?","1916","1923","","1","1","1","individual","left","1.91097807884","1948.35254407","3.08902192116","1951.61394787","3.8447239399","1955.45871305","2.1552760601","1957.6484499","1959.54452896","1959.58317494","1962.58452487","1","1962.60041904","1965.25655508",""
"sujeto_5ce680d","1","3","11","75","1965.41866803","direct","3","1","4","¿Cuántos presidentes de EEUU
han muerto asesinados?","3","4","","0","0","1","competitive","left","1.42343115807","1966.84216094","3.57656884193","1970.55703807","4.19831395149","1974.75541902","1.80168604851","1976.60883594","1978.09252787","1978.17557597","1981.17853093","0","1981.1939249","1984.83656001",""
"sujeto_5ce680d","1","3","12","76","1984.97903109","inverse","2","1","4","¿Cuántas veces participó EEUU
 en la copa América?","4","5","","0","0","1","competitive","right","1.51869297028","1986.49776196","3.48130702972","1990.15170097","3.94731521606","1994.09907103","2.05268478394","1996.20237589","1997.64649105","1997.71992707","2000.72053194","0","2000.73783803","2006.8550179",""
"sujeto_5ce680d","1","3","13","77","2006.98940897","direct","4","1","1","¿Cuál de estos países 
no formaba la URSS?","Azeribayán","Afganistán","","0","0","1","individual","right","0.984289884567","2007.973804","4.01571011543","2012.16401196","5.03792595863","2017.20197988","0.962074041367","2018.21577692","2019.52853894","2019.56640887","2022.56937695","0","2022.58258605","2030.56473589",""
"sujeto_5ce680d","1","3","14","78","2030.70151496","inverse","1","1","1","¿En qué año se inauguró
 el teatro Solís?","1867","1856","","0","0","0","individual","right","1.56000089645","2032.26156592","3.43999910355","2035.85993409","3.0798470974","2038.93984294","2.9201529026","2041.91089296","2042.96723199","2043.01269388","2046.01564288","0","2046.02890396","2052.676723",""
"sujeto_5ce680d","1","3","15","79","2052.81451392","direct","1","1","4","¿A qué velocidad vuela 
el avión más rápido?","3529","3874","","0","0","0","competitive","right","1.44080305099","2054.25536108","3.55919694901","2057.9722209","4.93648409843","2062.90876508","1.06351590157","2064.023283","2065.77879786","2065.858073","2068.8610599","0","2068.87514186","2070.98452806",""
"sujeto_5ce680d","1","3","16","80","2071.12727499","inverse","3","1","4","¿De qué año es la primer 
película cinematográfica?","1897","1888","","0","0","0","competitive","left","2.05777192116","2073.18511295","2.94222807884","2076.30089903","3.46637105942","2079.76733303","2.53362894058","2082.35027003","2083.48322105","2083.56781888","2086.56849694","0","2086.58568597","2091.99547601",""
"sujeto_5ce680d","1","3","17","81","2092.13737297","direct","2","1","3","¿Cuántos países 
tiene nuestro planeta?","191","194","","1","1","1","competitive","right","1.72247385979","2093.85989404","3.27752614021","2097.29471898","4.16337990761","2101.45815992","1.83662009239","2103.34490705","2104.70209193","2104.77960587","2107.78054094","1","2107.79701686","2111.03530788",""
"sujeto_5ce680d","1","3","18","82","2111.1823349","inverse","2","1","2","¿Cuántos habitantes
 tiene Buenos Aires?","2.9000.000","3650000","","0","0","0","individual","left","1.31421208382","2112.49660897","3.68578791618","2116.354738","5.51210093498","2121.86689806","0.487899065018","2122.40664506","2123.8039","2123.85666108","2126.85962892","0","2126.87387395","2132.70325494",""
"sujeto_5ce680d","1","3","19","83","2132.84247708","direct","2","1","1","¿Cuántos kilos forman una tonelada?","1000","1500","left","1","1","1","individual","left","1.4218070507","2134.26434493","3.5781929493","2137.99993896","2.96065783501","2140.96064186","3.03934216499","2144.03389788","2145.92125297","2145.96823287","2148.96852899","1","2148.98599505","2154.94340992",""
"sujeto_5ce680d","1","3","20","84","2155.09158301","inverse","4","1","4","¿Cuántos estados tiene la 
República del Perú? ","24","23","","0","0","1","competitive","right","1.75053620338","2156.84218407","3.24946379662","2160.26192307","2.92150211334","2163.18348503","3.07849788666","2166.30984497","2167.33200788","2167.41174603","2170.41473007","0","2170.42896986","2175.37428188",""
"sujeto_5ce680d","1","3","21","85","2175.51420093","direct","3","1","3","¿En qué año nació Cristóbal Colón? ","1451","1447","","0","0","1","competitive","right","1.46378207207","2176.97803187","3.53621792793","2180.67364693","3.80158305168","2184.47527099","2.19841694832","2186.72407794","2188.56993389","2188.64244986","2191.64541101","0","2191.65960002","2195.88756609",""
"sujeto_5ce680d","1","3","22","86","2196.02781796","inverse","4","1","4","¿Cuánto mide la 
Montaña Aconcagua? ","6234","6962","","0","0","1","individual","left","2.64295482635","2198.67082","2.35704517365","2201.19837999","4.1956307888","2205.39407206","1.8043692112","2207.23572493","2208.5245049","2208.57115293","2211.57410598","0","2211.58732486","2218.77096605",""
"sujeto_5ce680d","1","3","23","87","2218.90609002","direct","2","1","4","¿Cuánto mide el punto
 más profundo del océano? ","12508","11003","","0","0","1","competitive","left","0.874469995499","2219.78060293","4.1255300045","2224.06319404","4.05868315697","2228.12193489","1.94131684303","2230.09788489","2231.34939599","2231.43233299","2234.43256688","0","2234.44955301","2238.65582609",""
"sujeto_5ce680d","1","3","24","88","2238.80175209","inverse","1","1","3","¿Cuántos álbumes ha publicado 
el cantante Jaime Roos? ","41","34","","0","0","1","competitive","right","2.10363912582","2240.90549493","2.89636087418","2243.97526097","3.47732806206","2247.45265007","2.52267193794","2250.0082829","2251.49811888","2251.57612395","2254.57911897","0","2254.59337997","2260.78954196",""
"sujeto_5ce680d","1","3","25","89","2260.92858195","direct","4","1","3","¿En qué año nació el 
ex-presidente Jorge Battle? ","1921","1927","","1","1","1","competitive","left","1.63758397102","2262.56622887","3.36241602898","2266.07059693","4.87888789177","2270.94954801","1.12111210823","2272.10560799","2273.83634186","2273.922894","2276.925843","1","2276.94001889","2280.42602587",""
"sujeto_5ce680d","1","3","26","90","2280.55828786","inverse","1","1","3","¿Cuántas presidencias 
constitucionales  hubo en Uruguay? ","41","42","","0","0","1","competitive","right","1.63265991211","2282.19101191","3.36734008789","2285.71475291","4.81948590279","2290.53428292","1.18051409721","2291.76644897","2292.97017503","2293.05018187","2296.05319691","0","2296.06720495","2301.85081792",""
"sujeto_5ce680d","1","3","27","91","2301.98640394","direct","1","1","2","¿Quién escribió mas sinfonías?","Mozart","Haydn","","1","1","0","competitive","left","2.15556788445","2304.14201593","2.84443211555","2307.15950108","3.27152013779","2310.43107986","2.72847986221","2313.21081209","2314.42824697","2314.51258397","2317.515558","1","2317.52961588","2321.28053093",""
"sujeto_5ce680d","1","3","28","92","2321.43137503","inverse","4","1","2","¿En qué año nació Michael Jackson?","1958","1953","","1","1","1","individual","right","1.42409420013","2322.85553288","3.57590579987","2326.5833869","2.47222590446","2329.05566788","3.52777409554","2332.63556504","2334.61248207","2334.65381002","2337.65653801","1","2337.67171597","2343.53407502",""
"sujeto_5ce680d","1","3","29","93","2343.67339897","direct","3","1","2","¿En qué año entró en vigencia 
la ley antitabaco en Uruguay?","2005","2006","","1","1","1","individual","left","1.3879339695","2345.06139588","3.6120660305","2348.83174205","3.80469298363","2352.63649702","2.19530701637","2354.88289309","2356.47648907","2356.51695395","2359.51992202","1","2359.53420401","2364.86453509",""
"sujeto_5ce680d","1","3","30","94","2365.00170088","inverse","3","1","1","¿Cuándo se subió el 
primer video a youtube?","2004","2005","","0","0","1","individual","left","1.38631296158","2366.3880589","3.61368703842","2370.15735602","3.89973402023","2374.05712509","2.10026597977","2376.20835209","2377.514009","2377.55899191","2380.56195498","0","2380.57596087","2388.32854891",""
"sujeto_5ce680d","1","3","31","95","2388.46038008","direct","2","1","1","¿Cuántos habitantes tiene India?","1200 millones","1300 millones","","0","0","0","individual","right","1.06619715691","2389.52663898","3.93380284309","2393.61735201","3.42543411255","2397.04282904","2.57456588745","2399.66752791","2401.63713288","2401.68504596","2404.68798709","0","2404.70293498","2410.75040603",""
"sujeto_5ce680d","1","3","32","96","2410.90387893","inverse","4","1","2","¿A qué edad murió Bob Marley?","36","37","","0","0","1","individual","right","1.08455610275","2411.988482","3.91544389725","2416.05689597","2.50387310982","2418.56083393","3.49612689018","2422.10835409","2424.00554609","2424.04314399","2427.04610801","0","2427.06071901","2430.16318798",""
"sujeto_5ce680d","1","4","1","97","2645.00920391","direct","2","1","1","¿Cuantos años dirigió la selección 
uruguaya Tabarez?","15 años","13 años","","0","0","0","individual","right","1.38096499443","2646.39021206","3.61903500557","2650.16313505","3.1566631794","2653.31984186","2.8433368206","2656.21393609","2657.40508294","2657.44863605","2660.45159888","0","2660.46565199","2667.53767896","2430.17817497"
"sujeto_5ce680d","1","4","2","98","2667.71710587","inverse","4","1","1","¿Cuantas teclas tiene un teclado 
de computadora generalmente? ","Entre 99 y 108","Entre 109 y 113","","1","1","1","individual","right","1.35390496254","2669.07105899","3.64609503746","2672.8887639","5.1536898613","2678.04249406","0.846310138702","2678.94120288","2679.94396591","2679.99118495","2682.99412489","1","2683.00909805","2685.38050699",""
"sujeto_5ce680d","1","4","3","99","2685.50963187","direct","1","1","1","¿Cuál Departamento tiene
 mayor superficie?","Río Negro","Soriano","","0","0","0","individual","left","1.32549500465","2686.83519292","3.67450499535","2690.64910698","4.42650079727","2695.07566786","1.57349920273","2696.68284106","2698.39633894","2698.433321","2701.43627191","0","2701.45061588","2705.77669907",""
"sujeto_5ce680d","1","4","4","100","2705.91911387","inverse","3","1","2","¿Cuál es el apellido de las 
hermanastras  de  cenicienta?","Tremaine","Truman","","0","0","1","individual","right","1.32405304909","2707.24323606","3.67594695091","2711.07516098","5.12657284737","2716.20179796","0.873427152634","2717.10939002","2718.9788909","2719.02719092","2722.03020287","0","2722.04428887","2724.74021506",""
"sujeto_5ce680d","1","4","5","101","2724.89597487","direct","4","1","4","¿Cuál película ganó un
 Oscar a mejor película?","Alto Impacto","Cache","","0","0","1","competitive","left","1.70431399345","2726.60036206","3.29568600655","2730.05094504","2.88300895691","2732.93399096","3.11699104309","2736.09996486","2737.21935797","2737.30114388","2740.30412197","0","2740.31816292","2742.58278704",""
"sujeto_5ce680d","1","4","6","102","2742.71978498","inverse","1","1","3","¿A cuántos centímetros
equivale la medida pié?","25","30","","0","0","1","competitive","left","2.855686903","2745.57553792","2.144313097","2747.87438893","5.06971502304","2752.944175","0.930284976959","2753.92747808","2754.9674859","2755.04375792","2758.04573607","0","2758.06112099","2763.46052504",""
"sujeto_5ce680d","1","4","7","103","2763.62928891","direct","2","1","2","¿Qué departamento es mas grande?","Cerro Largo","Paysandú","","0","0","0","individual","right","2.74022889137","2766.36956501","2.25977110863","2768.78605986","2.39329409599","2771.17941809","3.60670590401","2774.83659506","2776.43629694","2776.48767591","2779.48855305","0","2779.50462198","2783.61461592",""
"sujeto_5ce680d","1","4","8","104","2783.75593686","inverse","2","1","3","¿Quién pintó la Mona Lisa?","Picasso","Da Vinci","right","0","0","1","competitive","right","1.53486990929","2785.29084897","3.46513009071","2788.89525795","2.30136799812","2791.19666791","3.69863200188","2794.94540501","2796.55118895","2796.63013291","2799.63248396","1","2799.64754391","2801.80986905",""
"sujeto_5ce680d","1","4","9","105","2801.94917989","direct","4","1","3","¿Cuántos litros hay en un galon?","3.54","3.78","","1","1","1","competitive","right","1.60995793343","2803.55918193","3.39004206657","2807.12072802","3.1991109848","2810.31989694","2.8008890152","2813.17109609","2814.68898201","2814.7725029","2817.77543402","1","2817.78971291","2823.58207703",""
"sujeto_5ce680d","1","4","10","106","2823.72384787","inverse","4","1","1","¿Cuántas teclas tiene
 un piano moderno?","80","88","","0","0","1","individual","right","1.14443993568","2824.86832595","3.85556006432","2828.88131404","2.49983000755","2831.38118792","3.50016999245","2834.93134308","2835.93981695","2835.98218989","2838.98515797","0","2838.99896693","2845.79652405",""
"sujeto_5ce680d","1","4","11","107","2845.95063186","direct","4","1","3","¿Cuántos países hay en África?","54","62","","0","0","1","competitive","left","1.20603299141","2847.15673089","3.79396700859","2851.10801196","2.51643586159","2853.624511","3.48356413841","2857.15827489","2858.84879994","2858.92638493","2861.92935801","0","2861.94465995","2869.74942398",""
"sujeto_5ce680d","1","4","12","108","2869.89550304","inverse","1","1","3","¿En qué siglo se crearon
 las primeras pistolas?","XV","XIII","","1","1","1","competitive","right","1.69236397743","2871.58791089","3.30763602257","2875.0536449","3.28304409981","2878.33672786","2.71695590019","2881.10401607","2883.05190206","2883.12164593","2886.12463808","1","2886.1396389","2889.37273788",""
"sujeto_5ce680d","1","4","13","109","2889.50781107","direct","3","1","4","¿En qué año se estrenó 
la serie friends?","1994","1995","","0","0","1","competitive","right","1.65251898766","2891.16037893","3.34748101234","2894.66311193","3.06400203705","2897.72717404","2.93599796295","2900.713485","2902.58883095","2902.66472793","2905.66772199","0","2905.68189001","2910.68796301",""
"sujeto_5ce680d","1","4","14","110","2910.83397007","inverse","3","1","4","¿En qué año nació Hitler?","1889","1887","","0","0","1","competitive","right","1.79374814034","2912.62775493","3.20625185966","2915.98980808","2.59780502319","2918.587672","3.40219497681","2922.02325702","2923.13764286","2923.22500086","2926.22797203","0","2926.24230409","2931.26928902",""
"sujeto_5ce680d","1","4","15","111","2931.44381189","direct","1","1","4","¿Cuánto pesa un elefante Africano?","6000 kilos","5400 kilos","","0","0","0","competitive","left","1.44640493393","2932.89025807","3.55359506607","2936.59987807","3.41311407089","2940.01305604","2.58688592911","2942.65000892","2944.00590801","2944.08473587","2947.08771086","0","2947.10167694","2953.80872989",""
"sujeto_5ce680d","1","4","16","112","2953.95406389","inverse","1","1","2","¿Qué porcentaje de 
la población es zurda?","10%","7%","","1","1","0","individual","right","1.09661006927","2955.05072403","3.90338993073","2959.11039805","2.58513712883","2961.69560194","3.41486287117","2965.16090107","2966.40395808","2966.44566607","2969.44851708","1","2969.46354795","2975.44053793",""
"sujeto_5ce680d","1","4","17","113","2975.58082604","direct","1","1","2","¿En qué año se estrenó
Volver al futuro?","1984","1985","","0","0","1","individual","left","1.96843910217","2977.54934406","3.03156089783","2980.73904586","5.73199295998","2986.47110796","0.268007040024","2986.79005599","2988.35185504","2988.38992786","2991.39254904","0","2991.40780902","2998.499259",""
"sujeto_5ce680d","1","4","18","114","2998.64182806","inverse","3","1","2","¿Cuántos jugadores hay en un 
equipo de baseball?","9","8","","1","1","0","individual","right","2.45189809799","3001.09379005","2.54810190201","3003.79786086","2.85580706596","3006.65373802","3.14419293404","3009.850003","3011.46423507","3011.50227904","3014.50335598","1","3014.51923895","3019.49254394",""
"sujeto_5ce680d","1","4","19","115","3019.62086987","direct","2","1","1","¿Cuántos Oscar ganó
 la película titanic?","13","11","","1","1","1","individual","left","2.13146805763","3021.75244403","2.86853194237","3024.77591586","3.15324902534","3027.92920399","2.84675097466","3030.82739687","3032.12849689","3032.17857099","3035.18153501","1","3035.19558001","3039.79825497",""
"sujeto_5ce680d","1","4","20","116","3039.94777799","inverse","4","1","4","¿En qué año comenzó
la segunda guerra mundial?","1939","1976","left","0","0","1","competitive","right","1.52122688293","3041.46904898","3.47877311707","3045.10339999","4.1804959774","3049.28393888","1.8195040226","3051.15468192","3052.95451403","3053.03824091","3056.04053307","0","3056.05654001","3060.04054499",""
"sujeto_5ce680d","1","4","21","117","3060.17444086","direct","2","1","4","¿Cuántos biomas hay en Uruguay?","5","4","","0","0","1","competitive","left","2.3232319355","3062.49772406","2.6767680645","3065.32999396","3.00753998756","3068.33759308","2.99246001244","3071.37907386","3073.17640805","3073.24658608","3076.24954009","0","3076.26479292","3082.51417994",""
"sujeto_5ce680d","1","4","22","118","3082.66559887","inverse","2","1","3","¿Cuándo murió Pablo Escobar?","1993","1997","","1","1","1","competitive","left","1.49279403687","3084.15846205","3.50720596313","3087.80822992","2.6459748745","3090.45426607","3.3540251255","3093.84144592","3095.62423086","3095.71004987","3098.71299386","1","3098.72721887","3104.42853904",""
"sujeto_5ce680d","1","4","23","119","3104.57919693","direct","1","1","4","¿Qué serie ha ganado mas premios?","Friends","Murphy Brown","","1","1","0","competitive","left","4.78182697296","3109.3610909","0.218173027039","3109.73459888","4.35434889793","3114.08901095","1.64565110207","3115.78722286","3117.13964987","3117.22420096","3120.2271719","1","3120.238446","3125.80007005",""
"sujeto_5ce680d","1","4","24","120","3125.93978786","inverse","4","1","2","¿Cuántas fichas tiene el dominó?","26","28","","1","1","1","individual","right","1.56194615364","3127.50177789","3.43805384636","3131.09611988","3.60959506035","3134.70577502","2.39040493965","3137.13004303","3138.18538499","3138.23208308","3141.23504186","1","3141.24864793","3146.49173093",""
"sujeto_5ce680d","1","4","25","121","3146.63398409","direct","2","1","4","¿Cuántos son los dientes de leche?","20","25","","0","0","1","competitive","left","1.69657301903","3148.33062005","3.30342698097","3151.78997588","5.48047804832","3157.27051902","0.519521951675","3157.83958793","3159.54993796","3159.62334704","3162.62631893","0","3162.64124703","3164.78694987",""
"sujeto_5ce680d","1","4","26","122","3164.94323397","inverse","3","1","3","¿Cuántos gramos son una onza?","22","28","","0","0","1","competitive","left","1.58012795448","3166.52340603","3.41987204552","3170.09998703","4.00030899048","3174.10034299","1.99969100952","3176.15032792","3178.14517498","3178.21827888","3181.22052789","0","3181.23582506","3187.52453399",""
"sujeto_5ce680d","1","4","27","123","3187.654248","direct","3","1","1","¿Cuándo salió el primer album
 de los Beatles?","1963","1962","","1","1","1","competitive","right","0.828903913498","3188.48319697","4.1710960865","3192.81058908","4.03245806694","3196.8431139","1.96754193306","3198.86137986","3200.024997","3200.09609389","3203.09905005","1","3203.11319709","3206.885252",""
"sujeto_5ce680d","1","4","28","124","3207.031106","inverse","3","1","3","¿Quién fundó la empresa apple?","Carlos Slim","Steve Jobs","","1","1","1","competitive","right","2.35791087151","3209.38908005","2.64208912849","3212.184582","5.3962187767","3217.58084106","0.603781223297","3218.22066808","3219.33535194","3219.40451908","3222.4075129","1","3222.42079997","3228.71656203",""
"sujeto_5ce680d","1","4","29","125","3228.85618401","direct","4","1","2","¿Cuántos municipios hay
 en Montevideo?","8","7","","1","1","1","individual","left","2.07460212708","3230.93085194","2.92539787292","3234.01495409","3.26982808113","3237.28482604","2.73017191887","3240.06502604","3241.9798069","3242.01673794","3245.01968789","1","3245.033957","3247.11510897",""
"sujeto_5ce680d","1","4","30","126","3247.25191808","inverse","1","1","1","¿Cuántos kilómetros hay
 de Montevideo a Artigas?","632","599","","0","0","0","individual","left","1.36480808258","3248.61676908","3.63519191742","3252.40813494","5.42043709755","3257.82863808","0.579562902451","3258.46015406","3259.94329691","3259.99256396","3262.99550796","0","3263.01081991","3269.06293607",""
"sujeto_5ce680d","1","4","31","127","3269.1948359","direct","2","1","2","¿En qué año nació 
Leonardo Da Vinci?","1452","1511","","1","1","0","individual","left","1.05275702477","3270.24766898","3.94724297523","3274.352072","4.71547293663","3279.06758499","1.28452706337","3280.40378404","3282.25737906","3282.30396891","3285.30692506","1","3285.321908","3288.46829605",""
"sujeto_5ce680d","1","4","32","128","3288.60649109","inverse","3","1","1","¿A qué continente
 pertenece el país Gabón?","Africa","Oceanía","","0","0","1","individual","right","1.1000521183","3289.70658708","3.8999478817","3293.76065087","4.76881790161","3298.52953792","1.23118209839","3299.81321692","3301.62488198","3301.66468501","3304.66763902","0","3304.6815989","3309.91949892",""
