"code","nro_aplicante","nro_bloque","nro_trial_bloque","nro_trial_global","show_game_type","choice_order","rival","pay_individual","pay_competitive","question","answer_left_text","answer_right_text","correct_answer","outcome_individual","outcome_competitive","outcome_rival","game_type","answer","social_time","rt_game_type","feedback_delay","show_question","answer_time","rt_answer_global","feedback_delay_2","show_jitter","jitter_time","show_outcome","outcome_time","outcome_participant_real","show_final_jitter","second_jitter_time","inicio_descanso"
"sujeto_07280530","1","1","1","1","16.0052740574","direct","3","1","4","¿Cuántos centímetros corresponden
al talle 36 del calzado?","23","24",,"0","0","1","competitive","right","1.20621180534","17.2115271091","3.79378819466","21.1742141247","2.18119812012","23.3554530144","3.81880187988","27.2248339653","28.2531239986","28.3260960579","31.3269889355","0","31.3435230255","33.5060529709",
"sujeto_07280530","1","1","2","2","33.6452519894","inverse","3","1","2","¿Cuántas metros mide la Intendencia
Municipal de Montevideo? ","84","78",,"0","0","1","competitive","right","1.6634478569","35.3087470531","3.3365521431","38.7995150089","2.65317487717","41.4527590275","3.34682512283","44.8518130779","46.7297930717","46.802793026","49.8029530048","0","49.8210771084","51.9137949944",
"sujeto_07280530","1","1","3","3","52.0559530258","direct","1","1","3","¿Cuántas La Pasiva
 hay en uruguay?","15","11",,"1","1","1","competitive","right","0.784960031509","52.8409781456","4.21503996849","57.2082209587","4.14062595367","61.3489029408","1.85937404633","63.2601010799","64.8717410564","64.9439921379","67.9469721317","1","67.9611561298","72.2395119667",
"sujeto_07280530","1","1","4","4","72.3958251476","inverse","3","1","3","¿De que color es la camiseta de uruguay?","blanca","celeste","right","1","1","1","competitive","left","0.863212108612","73.2590789795","4.13678789139","77.5541660786","5.04785609245","82.6020810604","0.952143907547","83.6061301231","84.8108429909","84.8891749382","87.8909549713","0","87.906058073","91.3589830399",
"sujeto_07280530","1","1","5","5","91.4915511608","direct","2","1","1","¿Cuánto metros mide
la torre Eiffel?","333","324",,"1","1","1","competitive","right","1.6546459198","93.1462640762","3.3453540802","96.6314640045","3.54376101494","100.17526412","2.45623898506","102.665032148","104.186377048","104.266227961","107.267030001","1","107.284101009","114.318989038",
"sujeto_07280530","1","1","6","6","114.485084057","inverse","3","1","4","¿Cuantas ciudades existen
 en todo el uruguay?","63","72",,"0","0","1","competitive","left","1.00932502747","115.494460106","3.99067497253","119.637503147","4.08686709404","123.724425077","1.91313290596","125.690670013","126.745481968","126.824353933","129.826995134","0","129.841274023","137.467823982",
"sujeto_07280530","1","1","7","7","137.60989213","direct","1","1","1","¿Cuantos estados tiene África?","52","54",,"1","1","0","competitive","left","0.815689086914","138.425682068","4.18431091309","142.771882057","3.87171792984","146.643636942","2.12828207016","148.821954012","150.685981035","150.757203102","153.760174036","1","153.77435708","159.535375118",
"sujeto_07280530","1","1","8","8","159.675826073","inverse","4","1","4","¿En qué año nació
 Stephen Hawking?","1952","1942",,"0","0","1","competitive","right","0.593996047974","160.26986599","4.40600395203","164.832736015","4.0410618782","168.873836994","1.9589381218","170.867516994","172.310976982","172.385087967","175.388072014","0","175.401479006","181.500816107",
"sujeto_07280530","1","1","9","9","181.634917974","direct","2","1","3","¿Cuánto años tenía Artigas
 cuando se fue a Paraguay?","56","57",,"1","1","1","competitive","left","0.857137918472","182.492123127","4.14286208153","186.794800997","5.80928993225","192.604135036","0.190710067749","192.829832077","194.378925085","194.463546991","197.466525078","1","197.480586052","203.527895927",
"sujeto_07280530","1","1","10","10","203.666059017","inverse","1","1","2","¿Cuantos milímetros 
mide una hoja A2?","420x592","420x594",,"0","0","1","competitive",,"0.937157869339","204.603266001","4.06284213066","208.820939064","6","214.821094036","0","214.837865114","216.406269073","216.49130106","219.494265079","0","219.508654118","226.582248926",
"sujeto_07280530","1","1","11","11","226.743452072","direct","3","1","3","¿Cuál es la menor temperatura 
registrada en Uruguay?","-5.4","-7.4",,"0","0","1","competitive","left","0.638980150223","227.382497072","4.36101984978","231.896319151","4.093075037","235.989449024","1.906924963","237.93204093","239.614087105","239.682675123","242.685634136","0","242.699939966","246.430968046",
"sujeto_07280530","1","1","12","12","246.585546017","inverse","2","1","2","¿Cuantos años hace que 
se fundó facebook?","18","17",,"0","0","0","competitive","right","0.773034095764","247.358624935","4.22696590424","251.745124102","3.73555207253","255.480733156","2.26444792747","257.796358109","259.169098139","259.247277021","262.250250101","0","262.264465094","265.03907609",
"sujeto_07280530","1","1","13","13","265.200338125","direct","1","1","4","¿Cuál animal es más
 pesado en promedio?","Rinoceronte","Hipopotamo",,"0","0","0","competitive",,"0.650413036346","265.850806952","4.34958696365","270.35343194","6","276.353575945","0","276.370075941","277.449305058","277.523121119","280.526117086","0","280.540323019","284.378976107",
"sujeto_07280530","1","1","14","14","284.575171947","inverse","1","1","2","¿Qué personaje de dragon ball 
murió más veces?","Chaoz","Krillin",,"1","1","0","competitive","right","0.711811065674","285.287049055","4.28818893433","289.743168116","3.41484904289","293.158054113","2.58515095711","295.779464006","297.237277985","297.313137054","300.316117048","1","300.331265926","308.102986097",
"sujeto_07280530","1","1","15","15","308.249380112","direct","3","1","2","La universidad de oxford. 
existe desde:","1096","1249",,"1","1","0","competitive","right","0.956716060638","309.206158161","4.04328393936","313.410478115","3.87970709801","317.290225029","2.12029290199","319.444976091","320.493798971","320.579668045","323.582648039","1","323.596936941","330.286925077",
"sujeto_07280530","1","1","16","16","330.448491096","inverse","3","1","1","¿Qué escritor latino ganó antes
 el premio nobel?"," García Marquez","Neruda",,"0","0","1","competitive","left","0.964866161346","331.413430929","4.03513383865","335.605594158","3.83975505829","339.445387125","2.16024494171","341.656608105","343.396582127","343.474832058","346.475003958","0","346.492319107","349.950997114",
"sujeto_07280530","1","1","17","17","350.09416604","direct","4","1","3","¿Cuántos dientes tiene un
 tiburón blanco?","6000","3000",,"0","0","1","competitive","right","0.856325149536","350.950531006","4.14367485046","355.248897076","3.87566614151","359.124621153","2.12433385849","361.283175945","362.322158098","362.401962042","365.402971983","0","365.418097019","370.226957083",
"sujeto_07280530","1","1","18","18","370.370392084","inverse","4","1","1","¿Cuánto mide el paralelo Ecuador?","40.000km","70.000km",,"0","0","1","competitive","right","0.78925204277","371.159714937","4.21074795723","375.541101933","3.00456500053","378.545704126","2.99543499947","381.592263937","383.546952009","383.627809048","386.630712986","0","386.644809961","390.247375965",
"sujeto_07280530","1","1","19","19","390.430529118","direct","4","1","2","¿Cuál fue el primer libro 
de Stephen King?","Carrie","The Stand",,"1","1","1","competitive","right","0.737337112427","391.167927027","4.26266288757","395.587185144","3.5206849575","399.107928991","2.4793150425","401.637449026","403.381536961","403.455251932","406.458184004","1","406.472474098","410.942939043",
"sujeto_07280530","1","1","20","20","411.091555119","inverse","2","1","3","¿Qué civilización practicaba
 la momificación?","Grecia","Egipto","right","0","0","1","competitive","right","0.732529163361","411.824133158","4.26747083664","416.245754957","3.77434706688","420.02015996","2.22565293312","422.298249006","424.237556934","424.31574893","427.318721056","1","427.333903074","431.562718153",
"sujeto_07280530","1","1","21","21","431.71904397","direct","4","1","4","¿Cuántos millones de visitas
 recibe google por minuto?","3.0","4.5",,"0","0","1","competitive","right","0.709181070328","432.428293943","4.29081892967","436.873811007","4.84348201752","441.717330933","1.15651798248","442.909995079","444.424843073","444.51028204","447.513232946","0","447.528254032","454.650938034",
"sujeto_07280530","1","1","22","22","454.778926134","inverse","1","1","3","La máquina de fax. se inventó en:","1843","1960",,"0","0","1","competitive","left","0.707499980927","455.486474991","4.29250001907","459.93295002","3.52346491814","463.456448078","2.47653508186","465.985161066","467.227247953","467.303296089","470.306286097","0","470.320570946","473.55686903",
"sujeto_07280530","1","1","23","23","473.688585043","direct","2","1","4","En la verdadera historia de los
 300 espartanos. habían:","300 soldados","4300 soldados",,"1","1","1","competitive","right","0.635060787201","474.323744059","4.3649392128","478.863914967","5.46970796585","484.333660126","0.530292034149","484.915836096","486.177062988","486.249808073","489.252779007","1","489.266224146","493.066987038",
"sujeto_07280530","1","1","24","24","493.201714039","inverse","1","1","4","¿Cuántos milímetros crece
 el pelo por día?","0.4","0.04",,"0","0","0","competitive","right","0.625990152359","493.827746153","4.37400984764","498.357228041","4.37662291527","502.733889103","1.62337708473","504.392482996","506.153207064","506.226495981","509.229470968","0","509.244585037","515.979696989",
"sujeto_07280530","1","1","25","25","516.128648996","direct","4","1","1","¿Cuánto mide la baldosa gris 
clásica de Montevideo?","22x22 cm.","20x20 cm.",,"1","1","1","competitive","left","1.34931993484","517.478044987","3.65068006516","521.286476135","4.85247802734","526.139018059","1.14752197266","527.338354111","529.333601952","529.405380964","532.408354998","1","532.42230916","537.965089083",
"sujeto_07280530","1","1","26","26","538.108963013","inverse","2","1","2","¿Cuántas películas de rápidos
 y furiosos hay?","10","11",,"1","1","0","competitive","right","0.814141988754","538.923146009","4.18585801125","543.279147148","3.66307210922","546.942281008","2.33692789078","549.313848019","550.67098403","550.749544144","553.752484083","1","553.766701937","555.801370144",
"sujeto_07280530","1","1","27","27","555.952131033","direct","3","1","1","¿Cuántos masters 1000
 ganó Del Potro?","1","2",,"1","1","1","competitive","right","0.630155801773","556.582360029","4.36984419823","561.107248068","4.59610486031","565.703391075","1.40389513969","567.14204812","568.896636963","568.97548008","571.978466034","1","571.993742943","579.390109062",
"sujeto_07280530","1","1","28","28","579.528020144","inverse","2","1","4","¿Cuántos meses dura el 
embarazo de una leona?","3 meses","4 meses",,"0","0","1","competitive","left","0.926550149918","580.454636097","4.07344985008","584.685019016","5.15352797508","589.838606119","0.846472024918","590.737859964","591.848945141","591.920990944","594.922979116","0","594.940117121","601.662575006",
"sujeto_07280530","1","1","29","29","601.806779146","direct","1","1","1","¿En qué año fue creado
 el sandwich?","1762","1653",,"1","1","0","competitive","right","0.672961950302","602.479794025","4.3270380497","606.963269949","3.65853905678","610.621850967","2.34146094322","613.015763998","614.614341974","614.683092117","617.686023951","1","617.701018095","621.171671152",
"sujeto_07280530","1","1","30","30","621.335566044","inverse","4","1","2","El nombre de la moneda de Vietnam es:","Dinar","Dong",,"0","0","1","competitive","left","0.816335201263","622.151966095","4.18366479874","626.490419149","3.97151613235","630.461992979","2.02848386765","632.541383982","633.973355055","634.060554028","637.063554049","0","637.077368975","643.242296934",
"sujeto_07280530","1","1","31","31","643.378571987","direct","2","1","1","¿cuantos aleteos puede dar 
un colibrí por segundo?","120","50",,"0","0","0","competitive","left","0.696110963821","644.074743032","4.30388903618","648.535172939","4.28698801994","652.822217941","1.71301198006","654.586876154","656.318971157","656.402127028","659.405055046","0","659.419336081","663.631622076",
"sujeto_07280530","1","1","32","32","663.788260937","inverse","4","1","3","¿Qué altura promedio tienen
 los hombres uruguayos?","1.73 m","1.72 m",,"1","1","1","competitive","right","0.947993040085","664.736297131","4.05200695992","668.946398973","4.78986310959","673.736318111","1.21013689041","674.981725931","676.244130135","676.315338135","679.318305969","1","679.332330942","683.8069911",
"sujeto_07280530","1","2","1","33","892.295315027","direct","1","1","1","¿En qué año nació 
el actor Bradd Pitt?","1967","1963",,"1","1","1","competitive","left","1.02390193939","893.319261074","3.97609806061","897.433282137","3.7319419384","901.165262938","2.2680580616","903.48409915","904.579982042","904.651726961","907.654714108","1","907.668888092","913.596470118","683.821666002"
"sujeto_07280530","1","2","2","34","913.75407815","inverse","2","1","1","¿Cual es el segundo 
monte más alto?","Kanchenjunga","K2",,"1","1","1","competitive","left","0.808269023895","914.562391996","4.1917309761","918.91030407","4.58907818794","923.499423981","1.41092181206","924.9624331","926.414821148","926.496098995","929.499086142","1","929.513754129","932.943645",
"sujeto_07280530","1","2","3","35","933.081941128","direct","3","1","1","¿Cuándo finalizó la construcción
 del Palacio Legislativo?","1925","1917",,"0","0","1","competitive","left","0.669573068619","933.75158","4.33042693138","938.253031969","5.37052798271","943.623620987","0.629472017288","944.30420208","945.945907116","946.021914959","949.024891138","0","949.039135933","954.736696005",
"sujeto_07280530","1","2","4","36","954.877010107","inverse","3","1","3","¿Cuántos integrantes tenía
 en su inicio  el cuarteto de nos?","3","4",,"1","1","1","competitive","right","1.25769615173","956.134778023","3.74230384827","960.032017946","3.42672801018","963.458784103","2.57327198982","966.066600084","967.19966507","967.28460598","970.286992073","1","970.301268101","975.950994015",
"sujeto_07280530","1","2","5","37","976.086071968","direct","2","1","3","¿Qué valor tiene el número pi?","3.14","4.18","left","0","0","1","competitive","left","1.00016689301","977.086395025","3.99983310699","981.24289608","4.55900621414","985.801960945","1.44099378586","987.278571129","988.732771158","988.811808109","991.814780951","1","991.829885006","998.750843048",
"sujeto_07280530","1","2","6","38","998.91458106","inverse","2","1","2","¿Cuál es la esperanza de vida
 en Uruguay?","75","77",,"1","1","0","competitive","left","0.845451831818","999.760074139","4.15454816818","1004.07086706","3.69321012497","1007.7641151","2.30678987503","1010.10649014","1011.76030803","1011.84052014","1014.84295201","1","1014.85984015","1021.31900096",
"sujeto_07280530","1","2","7","39","1021.47583294","direct","1","1","2","¿Cuantos pisos tiene la torre 
de las comunicaciones?","26","32",,"1","1","0","competitive","right","1.42836904526","1022.90424609","3.57163095474","1026.6327951","4.68749499321","1031.32035398","1.31250500679","1032.68399715","1034.51276994","1034.58465409","1037.58764911","1","1037.60174608","1039.74796009",
"sujeto_07280530","1","2","8","40","1039.88681602","inverse","2","1","4","¿En qué país sudamericano 
no hay McDonalds?","Bolivia","Venezuela",,"0","0","1","competitive",,"0.625586986542","1040.51244712","4.37441301346","1045.041821","6","1051.04194593","0","1051.05734015","1052.36669302","1052.44430614","1055.44730401","0","1055.46170497","1061.82141209",
"sujeto_07280530","1","2","9","41","1061.96333814","direct","3","1","1","¿En qué año empieza
 la Edad Media?","476","512",,"1","1","1","competitive","left","0.820270061493","1062.78367805","4.17972993851","1067.12213707","2.67138910294","1069.79357815","3.32861089706","1073.17235708","1074.57612801","1074.65258408","1077.65499496","1","1077.66914296","1080.65768909",
"sujeto_07280530","1","2","10","42","1080.82046199","inverse","3","1","4","¿Hace cuántos años surgió
 el ser humano?","200mil","300mil",,"0","0","0","competitive","right","0.608649969101","1081.42920995","4.3913500309","1085.97974706","3.77795100212","1089.75773597","2.22204899788","1092.01573396","1093.9017601","1093.98398709","1096.98695111","0","1097.00106812","1100.31155705",
"sujeto_07280530","1","2","11","43","1100.46925998","direct","3","1","4","¿Cuántas cuadras tiene
 actualmente 18 de julio? ","36","33",,"0","0","1","competitive","right","0.870687007904","1101.34002614","4.1293129921","1105.65812993","4.12075400352","1109.77892208","1.87924599648","1111.70932698","1113.41157103","1113.49371505","1116.496701","0","1116.51091194","1121.23720598",
"sujeto_07280530","1","2","12","44","1121.3795681","inverse","1","1","4","¿Qué juego de equipo se 
considera mas rápido?","Lacrosse","Badminton",,"0","0","0","competitive","left","0.8525390625","1122.23220706","4.1474609375","1126.552073","5.02210092545","1131.57423401","0.977899074554","1132.60393715","1133.84703112","1133.92066693","1136.92365193","0","1136.93772006","1144.93287301",
"sujeto_07280530","1","2","13","45","1145.07120204","direct","1","1","3","¿Qué promedio de edad 
vive una jirafa? ","25","20",,"0","0","1","competitive","right","0.646075963974","1145.71734405","4.35392403603","1150.23173809","3.95958614349","1154.19136214","2.04041385651","1156.26591301","1158.02744293","1158.1006701","1161.10364914","0","1161.11867404","1167.07421803",
"sujeto_07280530","1","2","14","46","1167.25262713","inverse","1","1","2","¿Cuántos grandes lagos hay?","7","5",,"0","0","1","competitive","left","0.665852069855","1167.91852999","4.33414793015","1172.40799904","3.81653285027","1176.22459102","2.18346714973","1178.46058512","1179.75273204","1179.82849193","1182.83145404","0","1182.84548712","1190.66685414",
"sujeto_07280530","1","2","15","47","1190.79760098","direct","3","1","2","¿Cuántos discos de estudio
 grabó Johhny Cash? ","54","43",,"1","1","0","competitive","right","0.776071071625","1191.57372308","4.22392892838","1195.95131493","4.70138001442","1200.65275693","1.29861998558","1202.00357008","1203.28217006","1203.35455012","1206.35494995","1","1206.37216806","1213.02296114",
"sujeto_07280530","1","2","16","48","1213.15683103","inverse","4","1","1","¿Cuántos barrios tiene
 Montevideo? ","71","62",,"0","0","1","competitive","right","0.665016889572","1213.82189608","4.33498311043","1218.31698704","4.1348259449","1222.45187306","1.8651740551","1224.36872602","1225.37575507","1225.45254993","1228.45499802","0","1228.4691081","1233.93114901",
"sujeto_07280530","1","2","17","49","1234.10427809","direct","3","1","3","¿Qué edad tiene Homero Simpson?","36","42",,"0","0","1","competitive","left","1.02076220512","1235.12509799","3.97923779488","1239.24464011","3.06932902336","1242.314008","2.93067097664","1245.29542494","1246.67096114","1246.74713206","1249.75012398","0","1249.76445103","1254.15320802",
"sujeto_07280530","1","2","18","50","1254.2994051","inverse","4","1","2","¿Cuántos países con monarquía 
hay en europa actualmente? ","6","10",,"1","1","1","competitive","left","0.864795207977","1255.16424394","4.13520479202","1259.45532513","5.23084712029","1264.68622398","0.769152879715","1265.50718498","1266.94549298","1267.02416801","1270.02712798","1","1270.04215312","1276.19897699",
"sujeto_07280530","1","2","19","51","1276.32663393","direct","2","1","3","¿Cuántos capítulos de
 Friends existen? ","236","228",,"1","1","1","competitive","left","0.965744018555","1277.29244304","4.03425598145","1281.47937012","4.04403400421","1285.52346706","1.95596599579","1287.51456809","1288.8189671","1288.89905715","1291.9020381","1","1291.91629696","1294.29193306",
"sujeto_07280530","1","2","20","52","1294.43473315","inverse","1","1","3","¿Cuántas óperas compuso Mozart? ","27","22",,"1","1","1","competitive","right","0.831758975983","1295.2665391","4.16824102402","1299.57670093","3.61586093903","1303.19262099","2.38413906097","1305.61013103","1306.90229416","1306.97841406","1309.98139715","1","1309.99579215","1317.30695605",
"sujeto_07280530","1","2","21","53","1317.44762897","direct","4","1","3","¿Cuántos mundiales de fútbol 
femenino ha realizado FIFA? ","9","7",,"1","1","1","competitive","right","0.985110998154","1318.43279195","4.01488900185","1322.60510898","4.24471092224","1326.84987998","1.75528907776","1328.64021993","1329.88390303","1329.95692515","1332.95989799","1","1332.97506499","1339.07415915",
"sujeto_07280530","1","2","22","54","1339.20977402","inverse","3","1","2","¿Cuál es la temperatura 
media anual en Montevideo? ","17.5","16.3",,"0","0","1","competitive","left","0.659099817276","1339.86893606","4.34090018272","1344.3660481","3.93489599228","1348.300982","2.06510400772","1350.41793704","1352.356457","1352.43471313","1355.43769598","0","1355.45265794","1362.02220416",
"sujeto_07280530","1","2","23","55","1362.18750501","direct","2","1","2","¿En qué año se estrenó el
 videojuego The Sims? ","2000","2002",,"0","0","0","competitive","left","1.13453984261","1363.32208896","3.86546015739","1367.36018515","3.90298914909","1371.26324105","2.09701085091","1373.41245008","1375.27448416","1375.34706402","1378.35003114","0","1378.36401606","1385.75767612",
"sujeto_07280530","1","2","24","56","1385.89874816","inverse","2","1","1","¿Cuál es la canción con 
mas covers? ","Yesterday","Stand by me",,"0","0","0","competitive","right","0.641571998596","1386.54036212","4.3584280014","1391.04121614","4.47710609436","1395.51837897","1.52289390564","1397.07604599","1398.4745791","1398.55948901","1401.56246495","0","1401.57679796","1405.74764013",
"sujeto_07280530","1","2","25","57","1405.87853003","direct","1","1","4","¿Cuánto duró la guerra
 de los 100 años?","116","123",,"0","0","0","competitive","left","1.14189696312","1407.02049303","3.85810303688","1411.03488898","3.34462094307","1414.37956905","2.65537905693","1417.06943202","1418.55029607","1418.61979604","1421.62276316","0","1421.63711309","1423.95689893",
"sujeto_07280530","1","2","26","58","1424.10558605","inverse","4","1","4","¿Qué color tiene la  bandera de Brasil?","Amarillo","Naranja","left","0","0","1","competitive","left","0.740943908691","1424.84659195","4.25905609131","1429.26029897","3.18525099754","1432.44558907","2.81474900246","1435.31219912","1436.878685","1436.96339297","1439.96638703","1","1439.98047495","1443.01099801",
"sujeto_07280530","1","2","27","59","1443.18223596","direct","4","1","3","¿Qué carabela de 
Colon no volvió del viaje?","Santa María","La pinta",,"0","0","1","competitive","right","0.824553966522","1444.00683999","4.17544603348","1448.33550906","5.20527696609","1453.54082513","0.794723033905","1454.371207","1455.86227298","1455.93775916","1458.94069695","0","1458.95498395","1461.05445194",
"sujeto_07280530","1","2","28","60","1461.20694113","inverse","4","1","4","¿Cuántos huesos tiene
 un adulto humano?","217","206",,"0","0","1","competitive","right","0.782993078232","1461.99000406","4.21700692177","1466.37995815","3.94493103027","1470.32492614","2.05506896973","1472.4146831","1473.68573713","1473.76543999","1476.76843405","0","1476.78268194","1484.6149621",
"sujeto_07280530","1","2","29","61","1484.75163198","direct","1","1","1","¿Qué país africano fue 
fundado por esclavos?","Liberia","Chad",,"0","0","0","competitive","left","0.788475036621","1485.54017401","4.21152496338","1489.90886211","4.66026711464","1494.56918907","1.33973288536","1495.94413614","1497.93498993","1498.01109099","1501.01403499","0","1501.02958107","1509.02044296",
"sujeto_07280530","1","2","30","62","1509.163903","inverse","4","1","2","¿A cuánto asciende la cima
 del monte Everest?","7.990 mts","8.848 mts",,"0","0","1","competitive",,"0.667343854904","1509.83130908","4.3326561451","1514.33805895","6","1520.33819509","0","1520.35455203","1521.53896809","1521.62414598","1524.62715507","0","1524.64111304","1531.82299805",
"sujeto_07280530","1","2","31","63","1531.95965505","direct","4","1","1","¿Cuál es el país mas chico?","Sealand","Luxemburgo",,"1","1","1","competitive","left","0.608880996704","1532.56863403","4.3911190033","1537.12876701","4.19375801086","1541.32258415","1.80624198914","1543.164886","1545.02838111","1545.09967494","1548.10263395","1","1548.11685205","1551.23914099",
"sujeto_07280530","1","2","32","64","1551.38556099","inverse","2","1","4","¿Cuántas pirámides hay en Egipto?","10000","11000",,"1","1","1","competitive","right","0.927062034607","1552.31266499","4.07293796539","1556.54422212","3.42047691345","1559.96475697","2.57952308655","1562.59435606","1563.62795496","1563.69569993","1566.69865608","1","1566.71296597","1571.82203698",
"sujeto_07280530","1","3","1","65","1685.99252605","direct","2","1","2","¿Cuál es el quinto país con 
mas extensión?","Canadá","Brasil",,"1","1","0","competitive","right","0.735212802887","1686.72783995","4.26478719711","1691.16461611","4.70914101601","1695.87381101","1.29085898399","1697.19924593","1698.5325551","1698.61688495","1701.619874","1","1701.63405895","1709.36045194","1571.83660197"
"sujeto_07280530","1","3","2","66","1709.50167298","inverse","1","1","2","¿Qué rasgo facial no tiene
 la Mona Lisa?","Cejas","Pómulos",,"0","0","1","competitive","left","0.613306999207","1710.11504793","4.38669300079","1714.67652607","4.05144619942","1718.72800803","1.94855380058","1720.72841311","1722.478827","1722.5623641","1725.56535101","0","1725.57948494","1731.84858799",
"sujeto_07280530","1","3","3","67","1732.00172114","direct","4","1","3","¿Cuál es el país con 
mayor población?","Esados Unidos","China","right","0","0","1","competitive","right","0.816426038742","1732.81819201","4.18357396126","1737.16926408","4.77689003944","1741.94619203","1.22310996056","1743.20553994","1744.85152411","1744.93924713","1747.94221807","1","1747.95712495","1751.32446194",
"sujeto_07280530","1","3","4","68","1751.47506094","inverse","1","1","1","La palabra dinosaurio significa","Lagarto Terrible","Lagarto Dragón",,"1","1","0","competitive","right","2.04122400284","1753.5163331","2.95877599716","1756.63227296","4.77503609657","1761.40734696","1.22496390343","1762.66712213","1763.83748698","1763.91761398","1766.92059898","1","1766.93491912","1769.79675698",
"sujeto_07280530","1","3","5","69","1769.95389414","direct","2","1","3","¿Qué es el membrillero?","Arbol","Arbusto",,"0","0","0","competitive","right","0.57458615303","1770.52854514","4.42541384697","1775.10820699","3.67223787308","1778.78050113","2.32776212692","1781.15899611","1783.11312413","1783.19347906","1786.19639897","0","1786.21155","1792.67495799",
"sujeto_07280530","1","3","6","70","1792.81326294","inverse","3","1","3","¿Alrededor de qué planeta orbita 
el satélite Europa?","Jupiter","Saturno",,"1","1","1","competitive","left","0.567353963852","1793.38067794","4.43264603615","1797.97034216","4.59832811356","1802.56871009","1.40167188644","1804.0217731","1805.56653404","1805.63910103","1808.64206815","1","1808.65567493","1810.85895109",
"sujeto_07280530","1","3","7","71","1811.02487206","direct","3","1","1","¿Donde fue el mundial de 
fútbol de 1954?","Suiza","Suecia",,"1","1","1","competitive","left","0.632946968079","1811.65786099","4.36705303192","1816.19526815","3.50955104828","1819.70487714","2.49044895172","1822.22916913","1823.48174405","1823.56394911","1826.56694102","1","1826.58099198","1830.49275804",
"sujeto_07280530","1","3","8","72","1830.63351202","inverse","1","1","4","¿Cuál de los 7 enanitos
no tenía barba?","Bashful","Mudito",,"1","1","0","competitive","right","0.645417928696","1831.27899194","4.3545820713","1835.78992605","5.01106381416","1840.80104113","0.988936185837","1841.82505202","1843.40517306","1843.47467303","1846.47765493","1","1846.49292207","1851.42199302",
"sujeto_07280530","1","3","9","73","1851.56062102","direct","3","1","2","¿Cual red social es
mas utilizada mundialmente?","Instagram","Facebook",,"1","1","0","competitive","right","0.714481830597","1852.27516699","4.2855181694","1856.71731305","5.11082196236","1861.82819295","0.889178037643","1862.75258899","1864.66998315","1864.753196","1867.75496793","1","1867.77101994","1870.70552516",
"sujeto_07280530","1","3","10","74","1870.87260604","inverse","4","1","1","¿Cuándo se inició la copa
 América de fútbol?","1916","1923",,"1","1","1","competitive","left","0.883665084839","1871.75634003","4.11633491516","1876.04301","3.64127206802","1879.68433809","2.35872793198","1882.09397602","1883.99141693","1884.06185699","1887.06297994","1","1887.07933807","1889.73543501",
"sujeto_07280530","1","3","11","75","1889.88145304","direct","3","1","4","¿Cuántos presidentes de EEUU
han muerto asesinados?","3","4",,"0","0","1","competitive","left","0.63596200943","1890.51748013","4.36403799057","1895.05476713","4.05864500999","1899.11345005","1.94135499001","1901.08845305","1902.57235193","1902.65598202","1905.65896797","0","1905.673244","1909.31499815",
"sujeto_07280530","1","3","12","76","1909.45910501","inverse","2","1","4","¿Cuántas veces participó EEUU
 en la copa América?","4","5",,"0","0","1","competitive","right","0.653507947922","1910.11269212","4.34649205208","1914.61499405","3.34567379951","1917.96071005","2.65432620049","1920.64879203","1922.09286404","1922.16648412","1925.16947699","0","1925.18440795","1931.29898214",
"sujeto_07280530","1","3","13","77","1931.43561316","direct","4","1","1","¿Cuál de estos países 
no formaba la URSS?","Azeribayán","Afganistán",,"0","0","1","competitive","right","0.628127098083","1932.06380606","4.37187290192","1936.59171414","4.49800014496","1941.08975005","1.50199985504","1942.64394593","1943.95702004","1944.02800608","1947.03098011","0","1947.04547811","1955.02762794",
"sujeto_07280530","1","3","14","78","1955.16404414","inverse","1","1","1","¿En qué año se inauguró
 el teatro Solís?","1867","1856",,"0","0","0","competitive","left","2.88888216019","1958.05298305","2.11111783981","1960.32017803","3.14066791534","1963.460886","2.85933208466","1966.36986804","1967.42615914","1967.50489402","1970.50785494","0","1970.52165794","1977.16946411",
"sujeto_07280530","1","3","15","79","1977.30893612","direct","1","1","4","¿A qué velocidad vuela 
el avión más rápido?","3529","3874",,"0","0","0","competitive","right","0.6821641922","1977.99117494","4.3178358078","1982.46641707","5.27273201942","1987.73921895","0.727267980576","1988.50194812","1990.25747013","1990.33527708","1993.33827496","0","1993.35263395","1995.46291494",
"sujeto_07280530","1","3","16","80","1995.60426211","inverse","3","1","4","¿De qué año es la primer 
película cinematográfica?","1897","1888",,"0","0","0","competitive","left","0.980894088745","1996.58519793","4.01910591125","2000.75983715","4.67140698433","2005.4312861","1.32859301567","2006.81078696","2007.94379401","2008.02841616","2011.03097296","0","2011.04586101","2016.45178604",
"sujeto_07280530","1","3","17","81","2016.59759903","direct","2","1","3","¿Cuántos países 
tiene nuestro planeta?","191","194",,"1","1","1","competitive","left","0.862742900848","2017.46038604","4.13725709915","2021.75105715","4.5133099556","2026.26442409","1.4866900444","2027.78692698","2029.14299893","2029.22105193","2032.22402501","1","2032.23798299","2035.47627997",
"sujeto_07280530","1","3","18","82","2035.65727401","inverse","2","1","2","¿Cuántos habitantes
 tiene Buenos Aires?","2.9000.000","3650000",,"0","0","0","competitive","left","0.692929983139","2036.35027099","4.30707001686","2040.81322002","4.41931295395","2045.23259306","1.58068704605","2046.86469603","2048.26194596","2048.33212495","2051.33505702","0","2051.34935808","2057.17874813",
"sujeto_07280530","1","3","19","83","2057.31831503","direct","2","1","1","¿Cuántos kilos forman una tonelada?","1000","1500","left","1","1","1","competitive","right","0.894341945648","2058.21270108","4.10565805435","2062.47496009","4.15669298172","2066.63169503","1.84330701828","2068.52666712","2070.41401505","2070.49348593","2073.49646902","0","2073.51177907","2079.46919394",
"sujeto_07280530","1","3","20","84","2079.6123271","inverse","4","1","4","¿Cuántos estados tiene la 
República del Perú? ","24","23",,"0","0","1","competitive","right","0.895487070084","2080.50788212","4.10451292992","2084.77001095","5.25581693649","2090.02589393","0.744183063507","2090.82183194","2091.84402514","2091.92223811","2094.92522216","0","2094.94018698","2099.88548493",
"sujeto_07280530","1","3","21","85","2100.04058695","direct","3","1","3","¿En qué año nació Cristóbal Colón? ","1451","1447",,"0","0","1","competitive","left","0.75840306282","2100.79906797","4.24159693718","2105.19470406","4.46327590942","2109.65802193","1.53672409058","2111.23037004","2113.07501101","2113.14795113","2116.15091205","0","2116.16600513","2120.39396501",
"sujeto_07280530","1","3","22","86","2120.55296206","inverse","4","1","4","¿Cuánto mide la 
Montaña Aconcagua? ","6234","6962",,"0","0","1","competitive","right","0.746104955673","2121.29917002","4.25389504433","2125.74089003","2.80017900467","2128.54110408","3.19982099533","2131.79167104","2133.08099508","2133.16010094","2136.162992","0","2136.17716599","2143.3589921",
"sujeto_07280530","1","3","23","87","2143.51149416","direct","2","1","4","¿Cuánto mide el punto
 más profundo del océano? ","12508","11003",,"0","0","1","competitive","left","1.51278495789","2145.02434611","3.48721504211","2148.66994214","4.52136802673","2153.19135308","1.47863197327","2154.71897101","2155.97049499","2156.05207109","2159.0550251","0","2159.06909204","2163.27534699",
"sujeto_07280530","1","3","24","88","2163.42119503","inverse","1","1","3","¿Cuántos álbumes ha publicado 
el cantante Jaime Roos? ","41","34",,"0","0","1","competitive","right","0.685199022293","2164.10643911","4.31480097771","2168.58011413","4.90624499321","2173.48642015","1.09375500679","2174.63199115","2176.12184811","2176.19842696","2179.20138502","0","2179.21640801","2185.4125731",
"sujeto_07280530","1","3","25","89","2185.58401394","direct","4","1","3","¿En qué año nació el 
ex-presidente Jorge Battle? ","1921","1927",,"1","1","1","competitive","right","0.997542858124","2186.58161998","4.00245714188","2190.75570107","5.60988783836","2196.365628","0.390112161636","2196.79281211","2198.52348495","2198.60987806","2201.612854","1","2201.62683606","2205.11291409",
"sujeto_07280530","1","3","26","90","2205.26195002","inverse","1","1","3","¿Cuántas presidencias 
constitucionales  hubo en Uruguay? ","41","42",,"0","0","1","competitive","left","1.61476492882","2206.87678504","3.38523507118","2210.40334702","4.48239088058","2214.88580012","1.51760911942","2216.45127296","2217.65504813","2217.7354641","2220.73845005","0","2220.75272107","2226.53496313",
"sujeto_07280530","1","3","27","91","2226.67113805","direct","1","1","2","¿Quién escribió mas sinfonías?","Mozart","Haydn",,"1","1","0","competitive","left","0.717259883881","2227.38844609","4.28274011612","2231.82967305","4.67719197273","2236.50693107","1.32280802727","2237.86528111","2239.08275294","2239.16540694","2242.16838193","1","2242.18290401","2245.93432093",
"sujeto_07280530","1","3","28","92","2246.06754613","inverse","4","1","2","¿En qué año nació Michael Jackson?","1958","1953",,"1","1","1","competitive","left","0.975486040115","2247.04310012","4.02451395988","2251.22372413","3.84338903427","2255.06716895","2.15661096573","2257.25789499","2259.23614407","2259.30953002","2262.31251311","1","2262.32659101","2268.18892503",
"sujeto_07280530","1","3","29","93","2268.32859397","direct","3","1","2","¿En qué año entró en vigencia 
la ley antitabaco en Uruguay?","2005","2006",,"1","1","1","competitive","left","0.796586036682","2269.12524199","4.20341396332","2273.49993396","4.76729893684","2278.26729798","1.23270106316","2279.55006409","2281.14482403","2281.21697593","2284.21996999","1","2284.23540401","2289.56941605",
"sujeto_07280530","1","3","30","94","2289.73702002","inverse","3","1","1","¿Cuándo se subió el 
primer video a youtube?","2004","2005",,"0","0","1","competitive","left","0.649358987808","2290.38642693","4.35064101219","2294.89686203","3.51243686676","2298.40935302","2.48756313324","2300.93043113","2302.23612905","2302.31528115","2305.31825805","0","2305.33253193","2313.08811498",
"sujeto_07280530","1","3","31","95","2313.23786998","direct","2","1","1","¿Cuántos habitantes tiene India?","1200 millones","1300 millones",,"0","0","0","competitive","left","0.595661878586","2313.83359814","4.40433812141","2318.4251461","4.27840709686","2322.70359302","1.72159290314","2324.47659492","2326.44623113","2326.52694511","2329.52992797","0","2329.54516912","2335.59268808",
"sujeto_07280530","1","3","32","96","2335.73014307","inverse","4","1","2","¿A qué edad murió Bob Marley?","36","37",,"0","0","1","competitive","left","1.13394021988","2336.86413002","3.86605978012","2340.902987","3.52174687386","2344.42480016","2.47825312614","2346.95351195","2348.85135102","2348.93844914","2351.94142604","0","2351.95640898","2355.05889511",
"sujeto_07280530","1","4","1","97","2485.03494215","direct","2","1","1","¿Cuantos años dirigió la selección 
uruguaya Tabarez?","15 años","13 años",,"0","0","0","competitive","left","1.53186011314","2486.56685495","3.46813988686","2490.19879794","4.73797106743","2494.93682194","1.26202893257","2496.24986506","2497.44102502","2497.51674509","2500.5197351","0","2500.53401494","2507.60604715","2355.07343006"
"sujeto_07280530","1","4","2","98","2507.73548007","inverse","4","1","1","¿Cuantas teclas tiene un teclado 
de computadora generalmente? ","Entre 99 y 108","Entre 109 y 113",,"1","1","1","competitive","left","0.868640184402","2508.60417795","4.1313598156","2512.910326","5.54371595383","2518.45408797","0.456284046173","2518.96192694","2519.96469712","2520.04581809","2523.04698014","1","2523.06216598","2525.43359208",
"sujeto_07280530","1","4","3","99","2525.58066797","direct","1","1","1","¿Cuál Departamento tiene
 mayor superficie?","Río Negro","Soriano",,"0","0","0","competitive","left","0.813505887985","2526.39422011","4.18649411201","2530.73272109","4.61344718933","2535.34622598","1.38655281067","2536.76925492","2538.48271704","2538.55380607","2541.55678201","0","2541.57082605","2545.89693093",
"sujeto_07280530","1","4","4","100","2546.03941607","inverse","3","1","2","¿Cuál es el apellido de las 
hermanastras  de  cenicienta?","Tremaine","Truman",,"0","0","1","competitive","left","0.850932121277","2546.89039111","4.14906787872","2551.23026705","4.91209578514","2556.14240408","1.08790421486","2557.28211594","2559.15165997","2559.23204613","2562.23503804","0","2562.24932909","2564.94527316",
"sujeto_07280530","1","4","5","101","2565.08503413","direct","4","1","4","¿Cuál película ganó un
 Oscar a mejor película?","Alto Impacto","Cache",,"0","0","1","competitive","left","2.79542016983","2567.8805151","2.20457983017","2570.23945904","5.53104996681","2575.77054596","0.468950033188","2576.27548909","2577.39482594","2577.47590303","2580.47889996","0","2580.49320102","2582.75780702",
"sujeto_07280530","1","4","6","102","2582.91121912","inverse","1","1","3","¿A cuántos centímetros
equivale la medida pié?","25","30",,"0","0","1","competitive","right","0.617402076721","2583.52868795","4.38259792328","2588.07991195","4.83069801331","2592.91066909","1.16930198669","2594.11618495","2595.15619206","2595.233392","2598.23640013","0","2598.2504251","2603.65095115",
"sujeto_07280530","1","4","7","103","2603.78581309","direct","2","1","2","¿Qué departamento es mas grande?","Cerro Largo","Paysandú",,"0","0","0","competitive","left","1.89601421356","2605.68189406","3.10398578644","2608.95940804","4.84036493301","2613.79981613","1.15963506699","2614.99567103","2616.5954411","2616.67931795","2619.68230605","0","2619.69655609","2623.80654216",
"sujeto_07280530","1","4","8","104","2623.96499014","inverse","2","1","3","¿Quién pintó la Mona Lisa?","Picasso","Da Vinci","right","0","0","1","competitive","right","0.664976119995","2624.63001704","4.33502388","2629.12002397","2.46395802498","2631.58402014","3.53604197502","2635.15289903","2636.75879502","2636.83609104","2639.83902502","1","2639.85365295","2642.01493096",
"sujeto_07280530","1","4","9","105","2642.15544796","direct","4","1","3","¿Cuántos litros hay en un galon?","3.54","3.78",,"1","1","1","competitive","left","0.576585054398","2642.732095","4.4234149456","2647.31177115","5.38728499413","2652.69909215","0.612715005875","2653.36523008","2654.88294101","2654.96529913","2657.96824002","1","2657.98225904","2663.77462006",
"sujeto_07280530","1","4","10","106","2663.91770911","inverse","4","1","1","¿Cuántas teclas tiene
 un piano moderno?","80","88",,"0","0","1","competitive","left","1.04115414619","2664.95893097","3.95884585381","2669.07351995","4.13871693611","2673.21227503","1.86128306389","2675.12496209","2676.13344312","2676.20902705","2679.21202493","0","2679.22630405","2686.02407908",
"sujeto_07280530","1","4","11","107","2686.17740107","direct","4","1","3","¿Cuántos países hay en África?","54","62",,"0","0","1","competitive","left","0.65504193306","2686.83248615","4.34495806694","2691.33685493","3.77552390099","2695.11241698","2.22447609901","2697.38504314","2699.07495499","2699.15259194","2702.15557194","0","2702.17083502","2709.9756341",
"sujeto_07280530","1","4","12","108","2710.12220407","inverse","1","1","3","¿En qué siglo se crearon
 las primeras pistolas?","XV","XIII",,"1","1","1","competitive","right","1.63642477989","2711.75867105","3.36357522011","2715.28180099","5.87881302834","2721.16065407","0.121186971664","2721.31772399","2723.26559305","2723.33528304","2726.33824396","1","2726.35274315","2729.58295798",
"sujeto_07280530","1","4","13","109","2729.72090101","direct","3","1","4","¿En qué año se estrenó 
la serie friends?","1994","1995",,"0","0","1","competitive","right","0.706806898117","2730.42775106","4.29319310188","2734.89211392","3.46865010262","2738.36080408","2.53134989738","2740.94351506","2742.81882715","2742.89523196","2745.89822912","0","2745.91221213","2750.91827798",
"sujeto_07280530","1","4","14","110","2751.09719396","inverse","3","1","4","¿En qué año nació Hitler?","1889","1887",,"0","0","1","competitive","right","1.35962891579","2752.45687699","3.64037108421","2756.23459697","3.51037502289","2759.74501514","2.48962497711","2762.26922011","2763.38293695","2763.45429301","2766.45725799","0","2766.47153115","2771.49852109",
"sujeto_07280530","1","4","15","111","2771.63975716","direct","1","1","4","¿Cuánto pesa un elefante Africano?","6000 kilos","5400 kilos",,"0","0","0","individual","right","0.59132194519","2772.23114014","4.40867805481","2776.81418514","4.47094511986","2781.28518915","1.52905488014","2782.86612201","2784.22203207","2784.26713514","2787.27009511","0","2787.283952","2793.99102712",
"sujeto_07280530","1","4","16","112","2794.13533616","inverse","1","1","2","¿Qué porcentaje de 
la población es zurda?","10%","7%",,"1","1","0","competitive","left","0.986891031265","2795.12228799","4.01310896873","2799.29329395","4.34095406532","2803.63428998","1.65904593468","2805.32743096","2806.57054806","2806.64465714","2809.64762807","1","2809.66249299","2815.64221215",
"sujeto_07280530","1","4","17","113","2815.78045011","direct","1","1","2","¿En qué año se estrenó
Volver al futuro?","1984","1985",,"0","0","1","competitive","right","0.73095202446","2816.51144505","4.26904797554","2820.93752694","4.17586493492","2825.11342907","1.82413506508","2826.97190809","2828.53369904","2828.60577607","2831.60875511","0","2831.6237731","2838.71522713",
"sujeto_07280530","1","4","18","114","2838.85787201","inverse","3","1","2","¿Cuántos jugadores hay en un 
equipo de baseball?","9","8",,"1","1","0","competitive","left","0.907837867737","2839.76576209","4.09216213226","2844.01510596","4.62657189369","2848.64173794","1.37342810631","2850.05051804","2851.66480708","2851.73519993","2854.73818994","1","2854.75216198","2859.72939801",
"sujeto_07280530","1","4","19","115","2859.870646","direct","2","1","1","¿Cuántos Oscar ganó
 la película titanic?","13","11",,"1","1","1","competitive","right","0.747107028961","2860.61779594","4.25289297104","2865.04370713","3.00005197525","2868.04379702","2.99994802475","2871.09463906","2872.39662814","2872.47941494","2875.48240304","1","2875.49560809","2880.09825301",
"sujeto_07280530","1","4","20","116","2880.24649501","inverse","4","1","4","¿En qué año comenzó
la segunda guerra mundial?","1939","1976","left","0","0","1","competitive","right","0.895478010178","2881.14201713","4.10452198982","2885.40441799","5.07656288147","2890.48101997","0.92343711853","2891.43917799","2893.23905396","2893.32351208","2896.32649398","0","2896.34121609","2900.3283751",
"sujeto_07280530","1","4","21","117","2900.47651196","direct","2","1","4","¿Cuántos biomas hay en Uruguay?","5","4",,"0","0","1","competitive","left","0.667594909668","2901.14418602","4.33240509033","2905.63151503","3.22663092613","2908.85821414","2.77336907387","2911.665344","2913.46268511","2913.550313","2916.55100203","0","2916.56793213","2922.81733894",
"sujeto_07280530","1","4","22","118","2922.986516","inverse","2","1","3","¿Cuándo murió Pablo Escobar?","1993","1997",,"1","1","1","competitive","right","0.958781957626","2923.94536901","4.04121804237","2928.14222312","4.10912895203","2932.25141716","1.89087104797","2934.17764807","2935.96049595","2936.04557896","2939.04701996","1","2939.06314206","2944.7668221",
"sujeto_07280530","1","4","23","119","2944.93169594","direct","1","1","4","¿Qué serie ha ganado mas premios?","Friends","Murphy Brown",,"1","1","0","competitive","left","1.02978301048","2945.96156907","3.97021698952","2950.11670208","5.13974618912","2955.25650501","0.860253810883","2956.15369511","2957.50611305","2957.58752704","2960.59049606","1","2960.60481215","2966.16642404",
"sujeto_07280530","1","4","24","120","2966.30588698","inverse","4","1","2","¿Cuántas fichas tiene el dominó?","26","28",,"1","1","1","competitive","right","0.853760957718","2967.15971613","4.14623904228","2971.49952698","3.50202608109","2975.00160694","2.49797391891","2977.55009007","2978.60542011","2978.68533301","2981.68833804","1","2981.70163608","2986.94473696",
"sujeto_07280530","1","4","25","121","2987.08664513","direct","2","1","4","¿Cuántos son los dientes de leche?","20","25",,"0","0","1","competitive","left","0.709074020386","2987.79578209","4.29092597961","2992.24370098","4.32206892967","2996.56583595","1.67793107033","2998.29481697","3000.00521111","3000.07873011","3003.07901907","0","3003.097157","3005.24284601",
"sujeto_07280530","1","4","26","122","3005.38139606","inverse","3","1","3","¿Cuántos gramos son una onza?","22","28",,"0","0","1","competitive","right","1.11654877663","3006.49801302","3.88345122337","3010.5651021","3.51184797287","3014.07699203","2.48815202713","3016.60096407","3018.59577894","3018.66913199","3021.67212915","0","3021.68649316","3027.97674799",
"sujeto_07280530","1","4","27","123","3028.12143493","direct","3","1","1","¿Cuándo salió el primer album
 de los Beatles?","1963","1962",,"1","1","1","competitive","right","0.64871096611","3028.77022505","4.35128903389","3033.28137612","5.87674117088","3039.15815997","0.123258829117","3039.31716704","3040.48076606","3040.55055213","3043.55353308","1","3043.56785393","3047.33990002",
"sujeto_07280530","1","4","28","124","3047.46962214","inverse","3","1","3","¿Quién fundó la empresa apple?","Carlos Slim","Steve Jobs",,"1","1","1","competitive","right","0.677555084229","3048.14724207","4.32244491577","3052.62502193","4.20126008987","3056.82631993","1.79873991013","3058.67576098","3059.79043913","3059.86089802","3062.86388206","1","3062.877033","3069.17489505",
"sujeto_07280530","1","4","29","125","3069.31278205","direct","4","1","2","¿Cuántos municipios hay
 en Montevideo?","8","7",,"1","1","1","competitive","right","0.773090839386","3070.08594108","4.22690916061","3074.47034812","4.81111812592","3079.2815311","1.18888187408","3080.5053401","3082.42013311","3082.50556493","3085.508564","1","3085.52261114","3087.60376406",
"sujeto_07280530","1","4","30","126","3087.74188304","inverse","1","1","1","¿Cuántos kilómetros hay
 de Montevideo a Artigas?","632","599",,"0","0","0","competitive","right","1.07249903679","3088.81449699","3.92750096321","3092.89465404","4.80888700485","3097.70357895","1.19111299515","3098.92978501","3100.41290498","3100.49720216","3103.49899697","0","3103.5143311","3109.56645393",
"sujeto_07280530","1","4","31","127","3109.71613312","direct","2","1","2","¿En qué año nació 
Leonardo Da Vinci?","1452","1511",,"1","1","0","competitive","right","1.12262296677","3110.83884406","3.87737703323","3114.88407111","5.21570205688","3120.09983206","0.784297943115","3120.92009401","3122.77369809","3122.85370111","3125.85667205","1","3125.87195396","3129.01836205",
"sujeto_07280530","1","4","32","128","3129.15640402","inverse","3","1","1","¿A qué continente
 pertenece el país Gabón?","Africa","Oceanía",,"0","0","1","competitive",,"1.23247385025","3130.388942","3.76752614975","3134.3180511","6","3140.31819201","0","3140.33352113","3142.14519596","3142.22025514","3145.22323704","0","3145.23718905","3150.47509503",
