"code","nro_aplicante","nro_bloque","nro_trial_bloque","nro_trial_global","show_game_type","choice_order","rival","pay_individual","pay_competitive","question","answer_left_text","answer_right_text","correct_answer","outcome_individual","outcome_competitive","outcome_rival","game_type","answer","social_time","rt_game_type","feedback_delay","show_question","answer_time","rt_answer_global","feedback_delay_2","show_jitter","jitter_time","show_outcome","outcome_time","outcome_participant_real","show_final_jitter","second_jitter_time","inicio_descanso"
"sujeto_e97cf70e","1","1","1","1","626.248507977","direct","3","1","4","¿Cuántos centímetros corresponden
al talle 36 del calzado?","23","24","","0","0","1","competitive","left","2.44875812531","628.697308779","2.55124187469","631.423286915","5.4532160759","636.876553774","0.546783924103","637.476103783","638.504378796","638.576433897","641.579418898","0","641.592754841","643.755283833",""
"sujeto_e97cf70e","1","1","2","2","643.894319773","inverse","3","1","2","¿Cuántas metros mide la Intendencia
Municipal de Montevideo? ","84","78","","0","0","1","competitive","right","1.90051198006","645.794883966","3.09948801994","649.064419985","4.19151711464","653.255996943","1.80848288536","655.101616859","656.979678869","657.052573919","660.055548906","0","660.070537806","662.163300991",""
"sujeto_e97cf70e","1","1","3","3","662.304739952","direct","1","1","3","¿Cuántas La Pasiva
 hay en uruguay?","15","11","","1","1","1","competitive","left","2.59454011917","664.899349928","2.40545988083","667.456404924","3.5880510807","671.044514894","2.4119489193","673.510560989","675.122233868","675.19596386","678.198937893","1","678.213389874","682.491736889",""
"sujeto_e97cf70e","1","1","4","4","682.631035805","inverse","3","1","3","¿De que color es la camiseta de uruguay?","blanca","celeste","right","1","1","1","competitive","left","1.6657269001","684.296830893","3.3342730999","687.787332773","4.29462790489","692.082026958","1.70537209511","693.821868896","695.026604891","695.106223822","698.10916996","0","698.123184919","701.577073812",""
"sujeto_e97cf70e","1","1","5","5","701.724657774","direct","2","1","1","¿Cuánto metros mide
la torre Eiffel?","333","324","","1","1","1","competitive","right","2.24367213249","703.968393803","2.75632786751","706.898182869","4.5222299099","711.420478821","1.4777700901","712.949481964","714.470842838","714.549743891","717.552728891","1","717.567727804","724.604435921",""
"sujeto_e97cf70e","1","1","6","6","724.768878937","inverse","3","1","4","¿Cuantas ciudades existen
 en todo el uruguay?","63","72","","0","0","1","competitive","left","1.75595116615","726.524901867","3.24404883385","729.926256895","4.27774596214","734.204067945","1.72225403786","735.960181952","737.014981985","737.094355822","740.097344875","0","740.112536907","747.739126921",""
"sujeto_e97cf70e","1","1","7","7","747.897510767","direct","1","1","1","¿Cuantos estados tiene África?","52","54","","1","1","0","competitive","right","2.10993599892","750.007491827","2.89006400108","753.054835796","3.73771810532","756.792616844","2.26228189468","759.107008934","760.971012831","761.042136908","764.04368782","1","764.059808969","769.820790768",""
"sujeto_e97cf70e","1","1","8","8","769.994852781","inverse","4","1","4","¿En qué año nació
 Stephen Hawking?","1952","1942","","0","0","1","competitive","right","2.21716499329","772.212066889","2.78283500671","775.149530888","3.3466091156","778.496207952","2.6533908844","781.185527802","782.629840851","782.704003811","785.707005978","0","785.721132994","791.819672823",""
"sujeto_e97cf70e","1","1","9","9","791.955870867","direct","2","1","3","¿Cuánto años tenía Artigas
 cuando se fue a Paraguay?","56","57","","1","1","1","competitive","left","1.52860403061","793.484549999","3.47139596939","797.112274885","4.2602930069","801.372607946","1.7397069931","803.146675825","804.696199894","804.781737804","807.783686876","1","807.798655987","813.845957994",""
"sujeto_e97cf70e","1","1","10","10","813.983337879","inverse","1","1","2","¿Cuantos milímetros 
mide una hoja A2?","420x592","420x594","","0","0","1","competitive","right","1.66969799995","815.653110981","3.33030200005","819.141819","4.67824697495","823.820106983","1.32175302505","825.190335989","826.75878191","826.841230869","829.844185829","0","829.860353947","836.93398881",""
"sujeto_e97cf70e","1","1","11","11","837.076875925","direct","3","1","3","¿Cuál es la menor temperatura 
registrada en Uruguay?","-5.4","-7.4","","0","0","1","competitive","right","1.36165213585","838.438596964","3.63834786415","842.237380981","3.59630513191","845.833727837","2.40369486809","848.288174868","849.970170975","850.056081772","853.059059858","0","853.073294878","856.803700924",""
"sujeto_e97cf70e","1","1","12","12","856.941147804","inverse","2","1","2","¿Cuantos años hace que 
se fundó facebook?","18","17","","0","0","0","competitive","left","1.57385396957","858.515046835","3.42614603043","862.097766876","3.36027002335","865.458099842","2.63972997665","868.131763935","869.504502773","869.583525896","872.586522818","0","872.600857973","875.375496864",""
"sujeto_e97cf70e","1","1","13","13","875.535564899","direct","1","1","4","¿Cuál animal es más
 pesado en promedio?","Rinoceronte","Hipopotamo","","0","0","0","competitive","right","2.20780611038","877.743434906","2.79219388962","880.690909863","4.06753277779","884.75850296","1.93246722221","886.775961876","887.855173826","887.926920891","890.929898977","0","890.944049835","894.785024881",""
"sujeto_e97cf70e","1","1","14","14","894.911783934","inverse","1","1","2","¿Qué personaje de dragon ball 
murió más veces?","Chaoz","Krillin","","1","1","0","competitive","right","1.01694202423","895.928769827","3.98305797577","900.101286888","4.59554600716","904.69687295","1.40445399284","906.153188944","907.610978842","907.686553955","910.689540863","1","910.703844786","918.475694895",""
"sujeto_e97cf70e","1","1","15","15","918.622381926","direct","3","1","2","La universidad de oxford. 
existe desde:","1096","1249","","1","1","0","competitive","left","1.24680519104","919.869235992","3.75319480896","923.780751944","3.66962385178","927.450416803","2.33037614822","929.831262827","930.880056858","930.949512959","933.952487946","1","933.966889858","940.655709982",""
"sujeto_e97cf70e","1","1","16","16","940.784739971","inverse","3","1","1","¿Qué escritor latino ganó antes
 el premio nobel?"," García Marquez","Neruda","","0","0","1","competitive","right","0.975898981094","941.760704994","4.02410101891","945.941934824","2.7147769928","948.656750917","3.2852230072","951.992875814","953.732879877","953.810753822","956.813736916","0","956.828931808","960.289454937",""
"sujeto_e97cf70e","1","1","17","17","960.42992878","direct","4","1","3","¿Cuántos dientes tiene un
 tiburón blanco?","6000","3000","","0","0","1","competitive","right","1.40310907364","961.833112001","3.59689092636","965.602568865","3.02052688599","968.623129845","2.97947311401","971.653755903","972.692746878","972.771508932","975.771719933","0","975.788716793","980.598374844",""
"sujeto_e97cf70e","1","1","18","18","980.723715782","inverse","4","1","1","¿Cuánto mide el paralelo Ecuador?","40.000km","70.000km","","0","0","1","competitive","left","0.955718040466","981.679478884","4.04428195953","985.879043818","3.04045605659","988.919562817","2.95954394341","991.929991961","993.886100769","993.966201782","996.969201803","0","996.983522892","1000.58608794",""
"sujeto_e97cf70e","1","1","19","19","1000.71867681","direct","4","1","2","¿Cuál fue el primer libro 
de Stephen King?","Carrie","The Stand","","1","1","1","competitive","right","1.01212692261","1001.73085999","3.98787307739","1005.90824699","3.48170113564","1009.38999391","2.51829886436","1011.95845699","1013.70255494","1013.77698278","1016.77972198","1","1016.79406381","1021.2685008",""
"sujeto_e97cf70e","1","1","20","20","1021.41263986","inverse","2","1","3","¿Qué civilización practicaba
 la momificación?","Grecia","Egipto","right","0","0","1","competitive","right","1.17498397827","1022.58770394","3.82501602173","1026.60240078","3.90792512894","1030.51036787","2.09207487106","1032.65290499","1034.5916729","1034.67109895","1037.67170382","1","1037.68863678","1041.91740799",""
"sujeto_e97cf70e","1","1","21","21","1042.07304287","direct","4","1","4","¿Cuántos millones de visitas
 recibe google por minuto?","3.0","4.5","","0","0","1","competitive","right","1.10058999062","1043.17368197","3.89941000938","1047.22506881","4.04056286812","1051.26567292","1.95943713188","1053.26062584","1054.77551079","1054.84514189","1057.84812188","0","1057.86244893","1064.98512888",""
"sujeto_e97cf70e","1","1","22","22","1065.11439896","inverse","1","1","3","La máquina de fax. se inventó en:","1843","1960","","0","0","1","competitive","left","1.04358911514","1066.15803194","3.95641088486","1070.27416587","3.62187480927","1073.89610577","2.37812519073","1076.3250668","1077.56714296","1077.65950894","1080.65969491","0","1080.67699885","1083.91327882",""
"sujeto_e97cf70e","1","1","23","23","1084.04581189","direct","2","1","4","En la verdadera historia de los
 300 espartanos. habían:","300 soldados","4300 soldados","","1","1","1","competitive","left","1.31950998306","1085.36537194","3.68049001694","1089.2024889","4.30996489525","1093.51251578","1.69003510475","1095.25362992","1096.51485991","1096.58797097","1099.59094095","1","1099.604177","1103.40594482",""
"sujeto_e97cf70e","1","1","24","24","1103.53952289","inverse","1","1","4","¿Cuántos milímetros crece
 el pelo por día?","0.4","0.04","","0","0","0","competitive","right","1.25517201424","1104.79477","3.74482798576","1108.69563198","3.94017410278","1112.63587093","2.05982589722","1114.7470839","1116.50779891","1116.58154988","1119.58452296","0","1119.59850597","1126.3335948",""
"sujeto_e97cf70e","1","1","25","25","1126.46755195","direct","4","1","1","¿Cuánto mide la baldosa gris 
clásica de Montevideo?","22x22 cm.","20x20 cm.","","1","1","1","competitive","right","1.06353712082","1127.53115678","3.93646287918","1131.6199708","4.8051700592","1136.42521095","1.1948299408","1137.67202187","1139.66726685","1139.7393539","1142.73969793","1","1142.75690079","1148.29972482",""
"sujeto_e97cf70e","1","1","26","26","1148.42550182","inverse","2","1","2","¿Cuántas películas de rápidos
 y furiosos hay?","10","11","","1","1","0","competitive","right","1.25190186501","1149.67746997","3.74809813499","1153.5863409","3.91214108467","1157.4985249","2.08785891533","1159.62061477","1160.9786458","1161.05509877","1164.05808091","1","1164.07254481","1166.10725284",""
"sujeto_e97cf70e","1","1","27","27","1166.24087286","direct","3","1","1","¿Cuántos masters 1000
 ganó Del Potro?","1","2","","1","1","1","competitive","right","1.21183300018","1167.45275092","3.78816699982","1171.4294908","4.17434096336","1175.60387182","1.82565903664","1177.4638629","1179.2184689","1179.2981298","1182.3011229","1","1182.31528783","1189.71164989",""
"sujeto_e97cf70e","1","1","28","28","1189.85167885","inverse","2","1","4","¿Cuántos meses dura el 
embarazo de una leona?","3 meses","4 meses","","0","0","1","competitive","left","0.998456954956","1190.85020399","4.00154304504","1195.00819182","5.57103800774","1200.57929182","0.428961992264","1201.0602138","1202.17129683","1202.24422693","1205.24718285","0","1205.26120877","1211.98369384",""
"sujeto_e97cf70e","1","1","29","29","1212.11262894","direct","1","1","1","¿En qué año fue creado
 el sandwich?","1762","1653","","1","1","0","competitive","left","0.864823102951","1212.97750092","4.13517689705","1217.26586485","2.9196999073","1220.18560386","3.0803000927","1223.31778193","1224.91632485","1224.98633695","1227.98769689","1","1228.00296879","1231.47358084",""
"sujeto_e97cf70e","1","1","30","30","1231.60515594","inverse","4","1","2","El nombre de la moneda de Vietnam es:","Dinar","Dong","","0","0","1","competitive","left","2.05951619148","1233.66473079","2.94048380852","1236.76385188","4.05401682854","1240.81793189","1.94598317146","1242.81544781","1244.24741077","1244.33357286","1247.33655691","0","1247.35073781","1253.51917577",""
"sujeto_e97cf70e","1","1","31","31","1253.65080595","direct","2","1","1","¿cuantos aleteos puede dar 
un colibrí por segundo?","120","50","","0","0","0","competitive","left","1.91835904121","1255.56921482","3.08164095879","1258.82607293","4.72214007378","1263.54825592","1.27785992622","1264.87712598","1266.60950279","1266.69512391","1269.69812179","0","1269.71137595","1273.92364883",""
"sujeto_e97cf70e","1","1","32","32","1274.0634079","inverse","4","1","3","¿Qué altura promedio tienen
 los hombres uruguayos?","1.73 m","1.72 m","","1","1","1","competitive","right","2.19896388054","1276.26241279","2.80103611946","1279.21932197","3.57319307327","1282.79255486","2.42680692673","1285.27112079","1286.53354096","1286.62220788","1289.62519383","1","1289.63919091","1294.11512589",""
"sujeto_e97cf70e","1","2","1","33","1452.6452148","direct","1","1","1","¿En qué año nació 
el actor Bradd Pitt?","1967","1963","","1","1","1","competitive","right","1.32375192642","1453.96903777","3.67624807358","1457.8144958","3.75656700134","1461.5711019","2.24343299866","1463.86559677","1464.96146894","1465.03322291","1468.03614092","1","1468.04935098","1473.97693777","1294.12676883"
"sujeto_e97cf70e","1","2","2","34","1474.10175991","inverse","2","1","1","¿Cual es el segundo 
monte más alto?","Kanchenjunga","K2","","1","1","1","competitive","right","1.07550382614","1475.17732978","3.92449617386","1479.25843382","3.40388298035","1482.66238093","2.59611701965","1485.3088448","1486.76125097","1486.84420586","1489.84720397","1","1489.86224079","1493.29213285",""
"sujeto_e97cf70e","1","2","3","35","1493.42888594","direct","3","1","1","¿Cuándo finalizó la construcción
 del Palacio Legislativo?","1925","1917","","0","0","1","competitive","left","1.05071115494","1494.47968388","3.94928884506","1498.61417294","3.69448804855","1502.30872989","2.30551195145","1504.64945579","1506.29113293","1506.3673768","1509.37034392","0","1509.38485289","1515.082407",""
"sujeto_e97cf70e","1","2","4","36","1515.22023797","inverse","3","1","3","¿Cuántos integrantes tenía
 en su inicio  el cuarteto de nos?","3","4","","1","1","1","competitive","right","0.841637134552","1516.06195498","4.15836286545","1520.38039494","3.29451179504","1523.67494678","2.70548820496","1526.41484189","1527.54793692","1527.63235378","1530.63533688","1","1530.64962482","1536.2994318",""
"sujeto_e97cf70e","1","2","5","37","1536.4341948","direct","2","1","3","¿Qué valor tiene el número pi?","3.14","4.18","left","0","0","1","competitive","left","0.996942996979","1537.43118382","4.00305700302","1541.59134388","2.38787102699","1543.97927785","3.61212897301","1547.64204383","1549.09625697","1549.1773839","1552.18037987","1","1552.18944788","1559.11043",""
"sujeto_e97cf70e","1","2","6","38","1559.24090695","inverse","2","1","2","¿Cuál es la esperanza de vida
 en Uruguay?","75","77","","1","1","0","competitive","left","0.822479963303","1560.06343293","4.1775200367","1564.38593483","4.00354099274","1568.3895359","1.99645900726","1570.43730593","1572.09112692","1572.17198181","1575.17495179","1","1575.1890049","1581.65202689",""
"sujeto_e97cf70e","1","2","7","39","1581.79162598","direct","1","1","2","¿Cuantos pisos tiene la torre 
de las comunicaciones?","26","32","","1","1","0","competitive","left","1.21205115318","1583.003721","3.78794884682","1586.94706798","3.69568490982","1590.64281297","2.30431509018","1592.98287296","1594.81160784","1594.88448477","1597.88746381","1","1597.901613","1600.04777193",""
"sujeto_e97cf70e","1","2","8","40","1600.18628478","inverse","2","1","4","¿En qué país sudamericano 
no hay McDonalds?","Bolivia","Venezuela","","0","0","1","competitive","right","1.01365089417","1601.20001388","3.98634910583","1605.3421669","3.31083393097","1608.65304184","2.68916606903","1611.37475681","1612.68374991","1612.75896978","1615.75972199","0","1615.77607799","1622.13580585",""
"sujeto_e97cf70e","1","2","9","41","1622.26065779","direct","3","1","1","¿En qué año empieza
 la Edad Media?","476","512","","1","1","1","competitive","right","0.934536933899","1623.195261","4.0654630661","1627.4366219","4.33964776993","1631.77633882","1.66035223007","1633.48803377","1634.89170289","1634.97196579","1637.97495294","1","1637.98927999","1640.97783685",""
"sujeto_e97cf70e","1","2","10","42","1641.12508297","inverse","3","1","4","¿Hace cuántos años surgió
 el ser humano?","200mil","300mil","","0","0","0","competitive","right","1.16137504578","1642.28652692","3.83862495422","1646.27937889","3.55016899109","1649.82960796","2.44983100891","1652.33090186","1654.2169559","1654.29853797","1657.30149579","0","1657.31653881","1660.62701988",""
"sujeto_e97cf70e","1","2","11","43","1660.7680099","direct","3","1","4","¿Cuántas cuadras tiene
 actualmente 18 de julio? ","36","33","","0","0","1","competitive","right","1.95071077347","1662.71882677","3.04928922653","1665.94082379","3.66293501854","1669.6038208","2.33706498146","1671.97363591","1673.67590785","1673.75858688","1676.76158094","0","1676.77592397","1681.50218987",""
"sujeto_e97cf70e","1","2","12","44","1681.64422989","inverse","1","1","4","¿Qué juego de equipo se 
considera mas rápido?","Lacrosse","Badminton","","0","0","0","competitive","right","0.784700870514","1682.42899895","4.21529912949","1686.83450389","3.66749596596","1690.5020628","2.33250403404","1692.88606882","1694.12916684","1694.20370483","1697.20669484","0","1697.22093797","1705.21606183",""
"sujeto_e97cf70e","1","2","13","45","1705.37184095","direct","1","1","3","¿Qué promedio de edad 
vive una jirafa? ","25","20","","0","0","1","competitive","left","1.7633960247","1707.13530493","3.2366039753","1710.53122377","2.95307898521","1713.48434377","3.04692101479","1716.58176684","1718.34322286","1718.41610479","1721.41911387","0","1721.43328691","1727.38900399",""
"sujeto_e97cf70e","1","2","14","46","1727.53618288","inverse","1","1","2","¿Cuántos grandes lagos hay?","7","5","","0","0","1","competitive","left","0.783316850662","1728.31958294","4.21668314934","1732.69089985","3.3496799469","1736.04063892","2.6503200531","1738.72627878","1740.0184319","1740.0942688","1743.09726191","0","1743.11137795","1750.93171096",""
"sujeto_e97cf70e","1","2","15","47","1751.06331277","direct","3","1","2","¿Cuántos discos de estudio
 grabó Johhny Cash? ","54","43","","1","1","0","competitive","right","1.06150197983","1752.12488198","3.93849802017","1756.25333095","3.22048807144","1759.47386289","2.77951192856","1762.30444884","1763.5831008","1763.67332196","1766.67630386","1","1766.69034886","1773.341259",""
"sujeto_e97cf70e","1","2","16","48","1773.47463679","inverse","4","1","1","¿Cuántos barrios tiene
 Montevideo? ","71","62","","0","0","1","competitive","right","2.54743289948","1776.02211499","2.45256710052","1778.62828684","3.17485499382","1781.80318379","2.82514500618","1784.68389583","1785.69098878","1785.76798296","1788.77099299","0","1788.78534579","1794.2473259",""
"sujeto_e97cf70e","1","2","17","49","1794.3713038","direct","3","1","3","¿Qué edad tiene Homero Simpson?","36","42","","0","0","1","competitive","right","1.034979105","1795.40632796","3.965020895","1799.52816296","2.47918915749","1802.00741577","3.52081084251","1805.56068277","1806.93567491","1807.01350784","1810.01645184","0","1810.02970886","1814.41567683",""
"sujeto_e97cf70e","1","2","18","50","1814.56516385","inverse","4","1","2","¿Cuántos países con monarquía 
hay en europa actualmente? ","6","10","","1","1","1","competitive","left","1.08638191223","1815.6516428","3.91361808777","1819.73828793","3.64630198479","1823.38465381","2.35369801521","1825.78894877","1827.22722983","1827.30693388","1830.30988097","1","1830.32399392","1836.48077393",""
"sujeto_e97cf70e","1","2","19","51","1836.60967779","direct","2","1","3","¿Cuántos capítulos de
 Friends existen? ","236","228","","1","1","1","competitive","right","1.78612995148","1838.39587188","3.21387004852","1841.75089693","3.61189007759","1845.36284781","2.38810992241","1847.79891992","1849.10445786","1849.1837678","1852.18676281","1","1852.20108795","1854.57672977",""
"sujeto_e97cf70e","1","2","20","52","1854.73571181","inverse","1","1","3","¿Cuántas óperas compuso Mozart? ","27","22","","1","1","1","competitive","right","1.14476299286","1855.88052487","3.85523700714","1859.89321589","2.63979101181","1862.53306484","3.36020898819","1865.94240379","1867.23456097","1867.31147194","1870.31441998","1","1870.32889295","1877.64032578",""
"sujeto_e97cf70e","1","2","21","53","1877.79729199","direct","4","1","3","¿Cuántos mundiales de fútbol 
femenino ha realizado FIFA? ","9","7","","1","1","1","competitive","left","1.20301103592","1879.00034785","3.79698896408","1882.97217488","4.15518593788","1887.12740278","1.84481406212","1889.02333379","1890.26704884","1890.34052896","1893.34353089","1","1893.35777998","1899.46016479",""
"sujeto_e97cf70e","1","2","22","54","1899.60839796","inverse","3","1","2","¿Cuál es la temperatura 
media anual en Montevideo? ","17.5","16.3","","0","0","1","competitive","left","1.4601149559","1901.06857777","3.5398850441","1904.76662588","4.24995493889","1909.01661992","1.75004506111","1910.81712198","1912.75569296","1912.8347199","1915.8377099","0","1915.85188079","1922.42142582",""
"sujeto_e97cf70e","1","2","23","55","1922.55441499","direct","2","1","2","¿En qué año se estrenó el
 videojuego The Sims? ","2000","2002","","0","0","0","competitive","right","1.68237400055","1924.23685098","3.31762599945","1927.71227598","3.33960103989","1931.05193996","2.66039896011","1933.76222777","1935.62425184","1935.69776988","1938.70076895","0","1938.71486592","1946.10852385",""
"sujeto_e97cf70e","1","2","24","56","1946.24993277","inverse","2","1","1","¿Cuál es la canción con 
mas covers? ","Yesterday","Stand by me","","0","0","0","competitive","right","1.00220298767","1947.25217986","3.99779701233","1951.4057858","3.55739402771","1954.96322179","2.44260597229","1957.45669889","1958.855232","1958.92503786","1961.92803383","0","1961.94230199","1966.11310577",""
"sujeto_e97cf70e","1","2","25","57","1966.26070881","direct","1","1","4","¿Cuánto duró la guerra
 de los 100 años?","116","123","","0","0","0","competitive","left","0.993637084961","1967.25439286","4.00636291504","1971.41771579","2.81368398666","1974.23143888","3.18631601334","1977.45126581","1978.93166995","1979.00337386","1982.00632596","0","1982.02076697","1984.34055877",""
"sujeto_e97cf70e","1","2","26","58","1984.4722929","inverse","4","1","4","¿Qué color tiene la  bandera de Brasil?","Amarillo","Naranja","left","0","0","1","competitive","left","1.2492210865","1985.72156286","3.7507789135","1989.62713599","3.11838412285","1992.74558687","2.88161587715","1995.67816591","1997.24469185","1997.33028793","2000.33327699","1","2000.34738493","2003.38018298",""
"sujeto_e97cf70e","1","2","27","59","2003.54889894","direct","4","1","3","¿Qué carabela de 
Colon no volvió del viaje?","Santa María","La pinta","","0","0","1","competitive","right","2.07982611656","2005.62878895","2.92017388344","2008.71959496","4.09614801407","2012.81577992","1.90385198593","2014.76963496","2016.26066089","2016.33761096","2019.34059691","0","2019.35484886","2021.45431685",""
"sujeto_e97cf70e","1","2","28","60","2021.589715","inverse","4","1","4","¿Cuántos huesos tiene
 un adulto humano?","217","206","","0","0","1","competitive","right","0.931230068207","2022.52098799","4.06876993179","2026.74663997","2.69836306572","2029.4450438","3.30163693428","2032.78030777","2034.05133891","2034.13308883","2037.13607693","0","2037.14942288","2044.98371577",""
"sujeto_e97cf70e","1","2","29","61","2045.11856198","direct","1","1","1","¿Qué país africano fue 
fundado por esclavos?","Liberia","Chad","","0","0","0","competitive","left","1.05061411858","2046.16922784","3.94938588142","2050.27532482","3.55594801903","2053.83131289","2.44405198097","2056.32679796","2058.31840587","2058.39447188","2061.39745092","0","2061.4122169","2069.40308499",""
"sujeto_e97cf70e","1","2","30","62","2069.54744577","inverse","4","1","2","¿A cuánto asciende la cima
 del monte Everest?","7.990 mts","8.848 mts","","0","0","1","competitive","right","1.07504701614","2070.622612","3.92495298386","2074.73910999","3.8464140892","2078.58558679","2.1535859108","2080.7894249","2081.97424698","2082.05739498","2085.06035995","0","2085.07448983","2092.2585299",""
"sujeto_e97cf70e","1","2","31","63","2092.39528894","direct","4","1","1","¿Cuál es el país mas chico?","Sealand","Luxemburgo","","1","1","1","competitive","left","1.85844802856","2094.25380087","3.14155197144","2097.56792688","2.96678185463","2100.53477478","3.03321814537","2103.61743784","2105.48093987","2105.56893396","2108.57192397","1","2108.58697486","2111.70926285",""
"sujeto_e97cf70e","1","2","32","64","2111.83841491","inverse","2","1","4","¿Cuántas pirámides hay en Egipto?","10000","11000","","1","1","1","competitive","left","0.811529874802","2112.65001488","4.1884701252","2117.02684498","2.76017999649","2119.78706694","3.23982000351","2123.06139684","2124.09497285","2124.17942691","2127.18242097","1","2127.19670296","2132.30578494",""
"sujeto_e97cf70e","1","3","1","65","2280.80705285","direct","2","1","2","¿Cuál es el quinto país con 
mas extensión?","Canadá","Brasil","","1","1","0","competitive","left","1.31971597672","2282.12684178","3.68028402328","2285.94965792","3.11314916611","2289.06287193","2.88685083389","2292.00070596","2293.33400583","2293.41863084","2296.42164683","1","2296.43592596","2304.15972781","2132.31736088"
"sujeto_e97cf70e","1","3","2","66","2304.28785992","inverse","1","1","2","¿Qué rasgo facial no tiene
 la Mona Lisa?","Cejas","Pómulos","","0","0","1","competitive","left","1.34770822525","2305.63565087","3.65229177475","2309.44643688","3.20766615868","2312.654145","2.79233384132","2315.49656677","2317.24697495","2317.33129191","2320.33427286","0","2320.34865379","2326.62000895",""
"sujeto_e97cf70e","1","3","3","67","2326.76707888","direct","4","1","3","¿Cuál es el país con 
mayor población?","Esados Unidos","China","right","0","0","1","competitive","right","1.82317113876","2328.59031391","3.17682886124","2331.94071078","2.55358791351","2334.49436688","3.44641208649","2337.99108195","2339.63710594","2339.72638988","2342.72936296","1","2342.74455094","2346.11170888",""
"sujeto_e97cf70e","1","3","4","68","2346.24543095","inverse","1","1","1","La palabra dinosaurio significa","Lagarto Terrible","Lagarto Dragón","","1","1","0","competitive","right","1.12609505653","2347.37161589","3.87390494347","2351.41411495","5.40638399124","2356.82056689","0.593616008759","2357.45040584","2358.62073779","2358.70021081","2361.7031908","1","2361.7184999","2364.58034897",""
"sujeto_e97cf70e","1","3","5","69","2364.73604393","direct","2","1","3","¿Qué es el membrillero?","Arbol","Arbusto","","0","0","0","competitive","right","1.36658596992","2366.10271692","3.63341403008","2369.89466786","3.11308693886","2373.00782394","2.88691306114","2375.92736793","2377.88150787","2377.96305394","2380.96369696","0","2380.98000693","2387.44403386",""
"sujeto_e97cf70e","1","3","6","70","2387.58143592","inverse","3","1","3","¿Alrededor de qué planeta orbita 
el satélite Europa?","Jupiter","Saturno","","1","1","1","competitive","left","0.897508144379","2388.47902083","4.10249185562","2392.73900199","3.7679541111","2396.50699496","2.2320458889","2398.79032993","2400.33511496","2400.4077878","2403.410743","1","2403.42532897","2405.6305089",""
"sujeto_e97cf70e","1","3","7","71","2405.7604208","direct","3","1","1","¿Donde fue el mundial de 
fútbol de 1954?","Suiza","Suecia","","1","1","1","competitive","left","1.02065205574","2406.78114891","3.97934794426","2410.93237591","3.2548019886","2414.1872468","2.7451980114","2416.98245692","2418.23505187","2418.31728697","2421.32026982","1","2421.33524585","2425.24702692",""
"sujeto_e97cf70e","1","3","8","72","2425.38686895","inverse","1","1","4","¿Cuál de los 7 enanitos
no tenía barba?","Bashful","Mudito","","1","1","0","competitive","left","2.45348596573","2427.84039998","2.54651403427","2430.55847383","3.99691605568","2434.55543494","2.00308394432","2436.59400177","2438.1741569","2438.24507189","2441.24805498","1","2441.26220679","2446.19131398",""
"sujeto_e97cf70e","1","3","9","73","2446.33044195","direct","3","1","2","¿Cual red social es
mas utilizada mundialmente?","Instagram","Facebook","","1","1","0","competitive","right","1.26344919205","2447.5939908","3.73655080795","2451.5028708","2.76475000381","2454.26766181","3.23524999619","2457.55311179","2459.47047877","2459.5554049","2462.55840898","1","2462.57265592","2465.5071609",""
"sujeto_e97cf70e","1","3","10","74","2465.64131284","inverse","4","1","1","¿Cuándo se inició la copa
 América de fútbol?","1916","1923","","1","1","1","competitive","right","1.07446599007","2466.71582389","3.92553400993","2470.79675984","3.69704580307","2474.49387693","2.30295419693","2476.84795499","2478.74541688","2478.81607795","2481.81906199","1","2481.833184","2484.48773384",""
"sujeto_e97cf70e","1","3","11","75","2484.6350019","direct","3","1","4","¿Cuántos presidentes de EEUU
han muerto asesinados?","3","4","","0","0","1","competitive","left","2.05189013481","2486.68695998","2.94810986519","2489.82254887","3.18143200874","2493.00404382","2.81856799126","2495.87321877","2497.35709882","2497.44171","2500.44470096","0","2500.45908093","2504.10318995",""
"sujeto_e97cf70e","1","3","12","76","2504.26074886","inverse","2","1","4","¿Cuántas veces participó EEUU
 en la copa América?","4","5","","0","0","1","competitive","right","1.01288604736","2505.27371597","3.98711395264","2509.41682577","3.39036202431","2512.80725384","2.60963797569","2515.46819377","2516.91227579","2516.98636198","2519.9893508","0","2520.00370598","2526.12088084",""
"sujeto_e97cf70e","1","3","13","77","2526.25437999","direct","4","1","1","¿Cuál de estos países 
no formaba la URSS?","Azeribayán","Afganistán","","0","0","1","competitive","right","1.47698807716","2527.73143888","3.52301192284","2531.4123919","3.27503418922","2534.68746686","2.72496581078","2537.46242094","2538.77549291","2538.84696889","2541.84995484","0","2541.86448693","2549.84663391",""
"sujeto_e97cf70e","1","3","14","78","2549.98250198","inverse","1","1","1","¿En qué año se inauguró
 el teatro Solís?","1867","1856","","0","0","0","competitive","left","1.07123494148","2551.05381489","3.92876505852","2555.14174294","2.66895413399","2557.81075692","3.33104586601","2561.19187284","2562.24765587","2562.32637787","2565.32765889","0","2565.34414983","2571.99192095",""
"sujeto_e97cf70e","1","3","15","79","2572.12989378","direct","1","1","4","¿A qué velocidad vuela 
el avión más rápido?","3529","3874","","0","0","0","competitive","left","0.8650598526","2572.99506783","4.1349401474","2577.29839897","3.32455611229","2580.62299681","2.67544388771","2583.35065198","2585.10616779","2585.18569398","2588.18868279","0","2588.20312881","2590.31171393",""
"sujeto_e97cf70e","1","3","16","80","2590.43793082","inverse","3","1","4","¿De qué año es la primer 
película cinematográfica?","1897","1888","","0","0","0","competitive","left","1.35411596298","2591.79208994","3.64588403702","2595.62894487","3.00514411926","2598.63413191","2.99485588074","2601.6789999","2602.81170988","2602.88159895","2605.88457584","0","2605.89795089","2611.30773091",""
"sujeto_e97cf70e","1","3","17","81","2611.4500289","direct","2","1","3","¿Cuántos países 
tiene nuestro planeta?","191","194","","1","1","1","competitive","left","0.961251974106","2612.41133094","4.03874802589","2616.60601282","2.93629097939","2619.54236698","3.06370902061","2622.656914","2624.01415896","2624.09236288","2627.09530687","1","2627.10943198","2630.34771991",""
"sujeto_e97cf70e","1","3","18","82","2630.49285388","inverse","2","1","2","¿Cuántos habitantes
 tiene Buenos Aires?","2.9000.000","3650000","","0","0","0","competitive","right","0.985597848892","2631.47852492","4.01440215111","2635.64731884","4.29221987724","2639.93963194","1.70778012276","2641.68327498","2643.08051586","2643.15072083","2646.15369081","0","2646.16897488","2651.995713",""
"sujeto_e97cf70e","1","3","19","83","2652.13642883","direct","2","1","1","¿Cuántos kilos forman una tonelada?","1000","1500","left","1","1","1","competitive","left","2.8502869606","2654.9867878","2.1497130394","2657.29347277","2.53329801559","2659.82683277","3.46670198441","2663.34580684","2665.23315978","2665.31448197","2668.31746578","1","2668.3315928","2674.28901386",""
"sujeto_e97cf70e","1","3","20","84","2674.41680884","inverse","4","1","4","¿Cuántos estados tiene la 
República del Perú? ","24","23","","0","0","1","competitive","right","1.39530587196","2675.81218696","3.60469412804","2679.57330489","3.3155939579","2682.88894391","2.6844060421","2685.62343693","2686.64561486","2686.72486877","2689.72782993","0","2689.74119592","2694.68650484",""
"sujeto_e97cf70e","1","3","21","85","2694.82490683","direct","3","1","3","¿En qué año nació Cristóbal Colón? ","1451","1447","","0","0","1","competitive","left","1.69406700134","2696.51901793","3.30593299866","2699.98435378","2.60366511345","2702.58806086","3.39633488655","2706.03318477","2707.87909698","2707.95191884","2710.9548769","0","2710.97004795","2715.19571996",""
"sujeto_e97cf70e","1","3","22","86","2715.33823299","inverse","4","1","4","¿Cuánto mide la 
Montaña Aconcagua? ","6234","6962","","0","0","1","competitive","left","1.0058350563","2716.3441999","3.9941649437","2720.52330899","3.30173611641","2723.82510591","2.69826388359","2726.57565093","2727.86496592","2727.94415379","2730.9471488","0","2730.9604888","2738.14412284",""
"sujeto_e97cf70e","1","3","23","87","2738.27921796","direct","2","1","4","¿Cuánto mide el punto
 más profundo del océano? ","12508","11003","","0","0","1","competitive","left","1.92500710487","2740.20430183","3.07499289513","2743.49068379","3.29944205284","2746.79018879","2.70055794716","2749.5390408","2750.78951979","2750.87248898","2753.87546897","0","2753.8897059","2758.09598398",""
"sujeto_e97cf70e","1","3","24","88","2758.22503996","inverse","1","1","3","¿Cuántos álbumes ha publicado 
el cantante Jaime Roos? ","41","34","","0","0","1","competitive","right","1.70120501518","2759.92629695","3.29879498482","2763.39907598","3.07814311981","2766.47725987","2.92185688019","2769.43376088","2770.92362094","2771.00247383","2774.00545192","0","2774.01967597","2780.21584678",""
"sujeto_e97cf70e","1","3","25","89","2780.37125182","direct","4","1","3","¿En qué año nació el 
ex-presidente Jorge Battle? ","1921","1927","","1","1","1","competitive","left","0.991084098816","2781.36237979","4.00891590118","2785.52768993","3.31965994835","2788.84738779","2.68034005165","2791.57942581","2793.31009483","2793.39648581","2796.39946985","1","2796.41455078","2799.90060687",""
"sujeto_e97cf70e","1","3","26","90","2800.03203797","inverse","1","1","3","¿Cuántas presidencias 
constitucionales  hubo en Uruguay? ","41","42","","0","0","1","competitive","left","1.74136304855","2801.77347493","3.25863695145","2805.18912578","3.71333003044","2808.90249491","2.28666996956","2811.2212739","2812.42503881","2812.50572491","2815.50870299","0","2815.52292585","2821.30658484",""
"sujeto_e97cf70e","1","3","27","91","2821.44138479","direct","1","1","2","¿Quién escribió mas sinfonías?","Mozart","Haydn","","1","1","0","competitive","left","1.91418194771","2823.35567284","3.08581805229","2826.64895678","2.67460393906","2829.32363296","3.32539606094","2832.68397093","2833.90142584","2833.98578","2836.98876786","1","2837.00295997","2840.7543788",""
"sujeto_e97cf70e","1","3","28","92","2840.90396881","inverse","4","1","2","¿En qué año nació Michael Jackson?","1958","1953","","1","1","1","competitive","left","1.00978207588","2841.91380286","3.99021792412","2846.0599618","3.34573411942","2849.40575886","2.65426588058","2852.0933969","2854.07163","2854.14554882","2857.14853382","1","2857.16285181","2863.02517486",""
"sujeto_e97cf70e","1","3","29","93","2863.16388392","direct","3","1","2","¿En qué año entró en vigencia 
la ley antitabaco en Uruguay?","2005","2006","","1","1","1","competitive","left","1.98490810394","2865.14883995","3.01509189606","2868.33783388","3.27595901489","2871.61386085","2.72404098511","2874.37249088","2875.96721792","2876.04045987","2879.04345393","1","2879.05753684","2884.391536",""
"sujeto_e97cf70e","1","3","30","94","2884.52554393","inverse","3","1","1","¿Cuándo se subió el 
primer video a youtube?","2004","2005","","0","0","1","competitive","left","1.07536101341","2885.60097384","3.92463898659","2889.69675493","3.02316808701","2892.71999097","2.97683191299","2895.74894381","2897.0546279","2897.13289285","2900.13585377","0","2900.15015078","2907.90577388",""
"sujeto_e97cf70e","1","3","31","95","2908.0360539","direct","2","1","1","¿Cuántos habitantes tiene India?","1200 millones","1300 millones","","0","0","0","competitive","left","1.28199291229","2909.3181138","3.71800708771","2913.19285583","3.15619087219","2916.34908485","2.84380912781","2919.24311399","2921.21274281","2921.29521489","2924.29816985","0","2924.31283689","2930.36034584",""
"sujeto_e97cf70e","1","3","32","96","2930.49784398","inverse","4","1","2","¿A qué edad murió Bob Marley?","36","37","","0","0","1","competitive","left","1.74532198906","2932.24321198","3.25467801094","2935.6534369","2.85275197029","2938.5062499","3.14724802971","2941.70605397","2943.60391593","2943.69048691","2946.69347095","0","2946.70783782","2949.81032085",""
"sujeto_e97cf70e","1","4","1","97","3069.23117185","direct","2","1","1","¿Cuantos años dirigió la selección 
uruguaya Tabarez?","15 años","13 años","","0","0","0","competitive","right","1.07086706161","3070.30208182","3.92913293839","3074.39565587","3.01841497421","3077.41413498","2.98158502579","3080.44540882","3081.63656688","3081.71343279","3084.71574497","0","3084.73108888","3091.80309391","2949.821666"
"sujeto_e97cf70e","1","4","2","98","3091.94945478","inverse","4","1","1","¿Cuantas teclas tiene un teclado 
de computadora generalmente? ","Entre 99 y 108","Entre 109 y 113","","1","1","1","competitive","left","1.10477089882","3093.05430794","3.89522910118","3097.12287188","4.57333803177","3101.69627285","1.42666196823","3103.15800786","3104.1607759","3104.24151897","3107.24373293","1","3107.25884485","3109.6302309",""
"sujeto_e97cf70e","1","4","3","99","3109.78864193","direct","1","1","1","¿Cuál Departamento tiene
 mayor superficie?","Río Negro","Soriano","","0","0","0","competitive","right","1.50971007347","3111.29843187","3.49028992653","3114.96502995","3.66437005997","3118.62943983","2.33562994003","3121.01548791","3122.72897887","3122.80029798","3125.80322099","0","3125.81737781","3130.14341879",""
"sujeto_e97cf70e","1","4","4","100","3130.28656077","inverse","3","1","2","¿Cuál es el apellido de las 
hermanastras  de  cenicienta?","Tremaine","Truman","","0","0","1","competitive","left","1.06402087212","3131.35069084","3.93597912788","3135.49350381","3.94898295403","3139.44252896","2.05101704597","3141.54497099","3143.4144609","3143.49582887","3146.49881291","0","3146.51310396","3149.20771885",""
"sujeto_e97cf70e","1","4","5","101","3149.3483789","direct","4","1","4","¿Cuál película ganó un
 Oscar a mejor película?","Alto Impacto","Cache","","0","0","1","competitive","left","1.16127991676","3150.50973082","3.83872008324","3154.52051187","3.26911282539","3157.78969288","2.73088717461","3160.57087088","3161.69026589","3161.77241778","3164.77542186","0","3164.78947997","3167.054111",""
"sujeto_e97cf70e","1","4","6","102","3167.19055581","inverse","1","1","3","¿A cuántos centímetros
equivale la medida pié?","25","30","","0","0","1","competitive","left","0.979178905487","3168.16980481","4.02082109451","3172.34168696","3.3160879612","3175.65781593","2.6839120388","3178.393502","3179.43353581","3179.51211286","3182.5150938","0","3182.52834392","3187.92930889",""
"sujeto_e97cf70e","1","4","7","103","3188.06412792","direct","2","1","2","¿Qué departamento es mas grande?","Cerro Largo","Paysandú","","0","0","0","competitive","right","1.52350711823","3189.58773589","3.47649288177","3193.24046183","3.29948401451","3196.54000688","2.70051598549","3199.29131389","3200.89104891","3200.97618389","3203.97916698","0","3203.99354482","3208.10352397",""
"sujeto_e97cf70e","1","4","8","104","3208.24462891","inverse","2","1","3","¿Quién pintó la Mona Lisa?","Picasso","Da Vinci","right","0","0","1","competitive","right","2.13142180443","3210.3761189","2.86857819557","3213.39949584","2.34061002731","3215.74014688","3.65938997269","3219.45125484","3221.0557189","3221.136796","3224.13973784","1","3224.15394592","3226.31626678",""
"sujeto_e97cf70e","1","4","9","105","3226.45556283","direct","4","1","3","¿Cuántos litros hay en un galon?","3.54","3.78","","1","1","1","competitive","left","1.49558401108","3227.95119095","3.50441598892","3231.62753177","3.28368592262","3234.91127896","2.71631407738","3237.6778779","3239.19571495","3239.2795639","3242.2825768","1","3242.29665685","3248.08901596",""
"sujeto_e97cf70e","1","4","10","106","3248.23155785","inverse","4","1","1","¿Cuántas teclas tiene
 un piano moderno?","80","88","","0","0","1","individual","left","1.91696691513","3250.14858794","3.08303308487","3253.40380383","3.5234940052","3256.92733598","2.4765059948","3259.45515585","3260.46364379","3260.5066669","3263.50964189","0","3263.52434587","3270.32210279",""
"sujeto_e97cf70e","1","4","11","107","3270.47503877","direct","4","1","3","¿Cuántos países hay en África?","54","62","","0","0","1","competitive","left","1.446434021","3271.92154884","3.553565979","3275.65069699","2.35685014725","3278.00761199","3.64314985275","3281.70005488","3283.39061689","3283.46928382","3286.47226","0","3286.48603582","3294.28771877",""
"sujeto_e97cf70e","1","4","12","108","3294.43874884","inverse","1","1","3","¿En qué siglo se crearon
 las primeras pistolas?","XV","XIII","","1","1","1","competitive","left","1.45999193192","3295.89878583","3.54000806808","3299.5962708","3.97344183922","3303.56975389","2.02655816078","3305.64727378","3307.59518886","3307.68212986","3310.68511295","1","3310.69836688","3313.9314599",""
"sujeto_e97cf70e","1","4","13","109","3314.0673058","direct","3","1","4","¿En qué año se estrenó 
la serie friends?","1994","1995","","0","0","1","competitive","left","1.79750108719","3315.86487079","3.20249891281","3319.22122884","3.42762088776","3322.64888883","2.57237911224","3325.25751495","3327.13282681","3327.2085228","3330.21144295","0","3330.22650886","3335.23257899",""
"sujeto_e97cf70e","1","4","14","110","3335.39462686","inverse","3","1","4","¿En qué año nació Hitler?","1889","1887","","0","0","1","competitive","left","1.45638799667","3336.85109186","3.54361200333","3340.54886699","2.82917904854","3343.37808585","3.17082095146","3346.5832088","3347.69758892","3347.76750398","3350.77048397","0","3350.785954","3355.81294489",""
"sujeto_e97cf70e","1","4","15","111","3355.95282292","direct","1","1","4","¿Cuánto pesa un elefante Africano?","6000 kilos","5400 kilos","","0","0","0","competitive","left","1.21832108498","3357.17121887","3.78167891502","3361.12838483","3.32873797417","3364.45718789","2.67126202583","3367.17888689","3368.53477788","3368.63023686","3371.63320994","0","3371.64760995","3378.35467482",""
"sujeto_e97cf70e","1","4","16","112","3378.48202991","inverse","1","1","2","¿Qué porcentaje de 
la población es zurda?","10%","7%","","1","1","0","competitive","right","1.63130116463","3380.11339378","3.36869883537","3383.6398139","2.71857094765","3386.35844898","3.28142905235","3389.68987799","3390.93295789","3391.00790095","3394.0108788","1","3394.02606297","3400.00577879",""
"sujeto_e97cf70e","1","4","17","113","3400.1443069","direct","1","1","2","¿En qué año se estrenó
Volver al futuro?","1984","1985","","0","0","1","competitive","right","1.24025392532","3401.38460588","3.75974607468","3405.30067778","2.7649269104","3408.06566787","3.2350730896","3411.35230088","3412.91411781","3412.98662782","3415.98768282","0","3416.00361991","3423.09501481",""
"sujeto_e97cf70e","1","4","18","114","3423.23898482","inverse","3","1","2","¿Cuántos jugadores hay en un 
equipo de baseball?","9","8","","1","1","0","competitive","right","1.41674399376","3424.655792","3.58325600624","3428.39194298","4.03875494003","3432.43073797","1.96124505997","3434.44387889","3436.05815792","3436.12883997","3439.13182783","1","3439.14610481","3444.12335086",""
"sujeto_e97cf70e","1","4","19","115","3444.24803591","direct","2","1","1","¿Cuántos Oscar ganó
 la película titanic?","13","11","","1","1","1","competitive","left","1.90189886093","3446.15001178","3.09810113907","3449.42316294","2.81571006775","3452.23893499","3.18428993225","3455.47417498","3456.77574492","3456.85959983","3459.86258483","1","3459.87698078","3464.47964883",""
"sujeto_e97cf70e","1","4","20","116","3464.61122179","inverse","4","1","4","¿En qué año comenzó
la segunda guerra mundial?","1939","1976","left","0","0","1","competitive","right","1.98987603188","3466.601161","3.01012396812","3469.81761098","3.80947804451","3473.62713695","2.19052195549","3475.85314894","3477.65299082","3477.73751688","3480.74049783","0","3480.75517297","3484.73972797",""
"sujeto_e97cf70e","1","4","21","117","3484.8728869","direct","2","1","4","¿Cuántos biomas hay en Uruguay?","5","4","","0","0","1","competitive","left","2.40929293633","3487.28222895","2.59070706367","3490.02857399","2.86066412926","3492.88929987","3.13933587074","3496.07952285","3497.87683082","3497.96504378","3500.96806479","0","3500.98220682","3507.23161983",""
"sujeto_e97cf70e","1","4","22","118","3507.36680293","inverse","2","1","3","¿Cuándo murió Pablo Escobar?","1993","1997","","1","1","1","competitive","right","1.61359500885","3508.98044682","3.38640499115","3512.53924394","2.79421305656","3515.33351898","3.20578694344","3518.57406497","3520.35688591","3520.44291878","3523.44370079","1","3523.46054292","3529.16422391",""
"sujeto_e97cf70e","1","4","23","119","3529.2953639","direct","1","1","4","¿Qué serie ha ganado mas premios?","Friends","Murphy Brown","","1","1","0","competitive","left","1.20120477676","3530.49661493","3.79879522324","3534.48584485","2.29369497299","3536.77958679","3.70630502701","3540.51888585","3541.87125492","3541.95440078","3544.95741296","1","3544.97069979","3550.53232789",""
"sujeto_e97cf70e","1","4","24","120","3550.68926692","inverse","4","1","2","¿Cuántas fichas tiene el dominó?","26","28","","1","1","1","competitive","left","1.38554811478","3552.07491493","3.61445188522","3555.87949777","2.94235706329","3558.82189679","3.05764293671","3561.91419077","3562.96947789","3563.04864788","3566.05164194","1","3566.06598282","3571.30908489",""
"sujeto_e97cf70e","1","4","25","121","3571.45072794","direct","2","1","4","¿Cuántos son los dientes de leche?","20","25","","0","0","1","competitive","left","1.80016207695","3573.25093389","3.19983792305","3576.6395309","2.70134997368","3579.34091878","3.29865002632","3582.68902898","3584.39937592","3584.47418594","3587.47572279","0","3587.49205995","3589.63778496",""
"sujeto_e97cf70e","1","4","26","122","3589.760921","inverse","3","1","3","¿Cuántos gramos son una onza?","22","28","","0","0","1","competitive","left","1.50521397591","3591.26618099","3.49478602409","3594.91527295","2.6698410511","3597.58515477","3.3301589489","3600.96617484","3602.96101093","3603.034518","3606.03748178","0","3606.05169177","3612.341959",""
"sujeto_e97cf70e","1","4","27","123","3612.50383282","direct","3","1","1","¿Cuándo salió el primer album
 de los Beatles?","1963","1962","","1","1","1","competitive","left","2.77445197105","3615.27834988","2.22554802895","3617.6439898","2.76533889771","3620.40939188","3.23466110229","3623.67912984","3624.84270978","3624.915061","3627.918015","1","3627.93133497","3631.70332384",""
"sujeto_e97cf70e","1","4","28","124","3631.83405685","inverse","3","1","3","¿Quién fundó la empresa apple?","Carlos Slim","Steve Jobs","","1","1","1","competitive","right","1.24644398689","3633.08056593","3.75355601311","3636.98953581","3.29589700699","3640.28547382","2.70410299301","3643.03631377","3644.15096998","3644.22101593","3647.22398496","1","3647.23801589","3653.53584886",""
"sujeto_e97cf70e","1","4","29","125","3653.68718195","direct","4","1","2","¿Cuántos municipios hay
 en Montevideo?","8","7","","1","1","1","competitive","right","1.55245399475","3655.23970199","3.44754600525","3658.85040379","2.77315592766","3661.62364984","3.22684407234","3664.90062189","3666.81537485","3666.88571596","3669.88766098","1","3669.90363383","3671.98473883",""
"sujeto_e97cf70e","1","4","30","126","3672.10436797","inverse","1","1","1","¿Cuántos kilómetros hay
 de Montevideo a Artigas?","632","599","","0","0","0","competitive","left","2.6443810463","3674.74881577","2.3556189537","3677.26004887","3.45376682281","3680.71387982","2.54623317719","3683.31075978","3684.79384685","3684.8793819","3687.88241386","0","3687.89571595","3693.94777489",""
"sujeto_e97cf70e","1","4","31","127","3694.08085585","direct","2","1","2","¿En qué año nació 
Leonardo Da Vinci?","1452","1511","","1","1","0","competitive","left","1.70512890816","3695.78607988","3.29487109184","3699.25396585","2.65598082542","3701.91000795","3.34401917458","3705.30624795","3707.15973783","3707.24010277","3710.24304581","1","3710.25683188","3713.40320587",""
"sujeto_e97cf70e","1","4","32","128","3713.54106879","inverse","3","1","1","¿A qué continente
 pertenece el país Gabón?","Africa","Oceanía","","0","0","1","competitive","right","2.07405114174","3715.61518788","2.92594885826","3718.69923091","3.60692596436","3722.30622077","2.39307403564","3724.74886179","3726.56054378","3726.6336689","3729.636657","0","3729.65077591","3734.88864994",""
