"code","nro_aplicante","nro_bloque","nro_trial_bloque","nro_trial_global","show_game_type","choice_order","rival","pay_individual","pay_competitive","question","answer_left_text","answer_right_text","correct_answer","outcome_individual","outcome_competitive","outcome_rival","game_type","answer","social_time","rt_game_type","feedback_delay","show_question","answer_time","rt_answer_global","feedback_delay_2","show_jitter","jitter_time","show_outcome","outcome_time","outcome_participant_real","show_final_jitter","second_jitter_time","inicio_descanso"
"sujeto_96083b42","1","1","1","1","878.846818924","direct","3","1","4","¿Cuántos centímetros corresponden
al talle 36 del calzado?","23","24","","0","0","1","competitive","right","4.13559103012","882.982477903","0.864408969879","884.017782927","3.35061621666","887.368446827","2.64938378334","890.06434083","891.092638969","891.16621685","894.169163942","0","894.182921886","896.345431805",""
"sujeto_96083b42","1","1","2","2","896.470677853","inverse","3","1","2","¿Cuántas metros mide la Intendencia
Municipal de Montevideo? ","84","78","","0","0","1","competitive","right","1.43486499786","897.905612946","3.56513500214","901.64577198","3.56177997589","905.207619905","2.43822002411","907.680093765","909.558141947","909.63158679","912.634539843","0","912.648723841","914.7414608",""
"sujeto_96083b42","1","1","3","3","914.884145975","direct","1","1","3","¿Cuántas La Pasiva
 hay en uruguay?","15","11","","1","1","1","competitive","right","1.75449919701","916.638691902","3.24550080299","920.039309978","2.83240294456","922.871751785","3.16759705544","926.089445829","927.701093912","927.774433851","930.77738595","1","930.791583776","935.069931984",""
"sujeto_96083b42","1","1","4","4","935.209896803","inverse","3","1","3","¿De que color es la camiseta de uruguay?","blanca","celeste","right","1","1","1","competitive","right","1.64094305038","936.850881815","3.35905694962","940.349695921","3.22320008278","943.57293582","2.77679991722","946.40046382","947.605236769","947.685507774","950.688472986","1","950.701626778","954.155543804",""
"sujeto_96083b42","1","1","5","5","954.303499937","direct","2","1","1","¿Cuánto metros mide
la torre Eiffel?","333","324","","1","1","1","competitive","left","0.867564916611","955.171172857","4.13243508339","959.476373911","4.17957496643","963.656001806","1.82042503357","965.510626793","967.031977892","967.111374855","970.114312887","1","970.128686905","977.162282944",""
"sujeto_96083b42","1","1","6","6","977.296875954","inverse","3","1","4","¿Cuantas ciudades existen
 en todo el uruguay?","63","72","","0","0","1","competitive","right","1.11235404015","978.409274817","3.88764595985","982.454483986","5.081772089","987.53629899","0.918227910995","988.506265879","989.561058998","989.639965773","992.642933846","0","992.658089876","1000.28467679",""
"sujeto_96083b42","1","1","7","7","1000.45849299","direct","1","1","1","¿Cuantos estados tiene África?","52","54","","1","1","0","competitive","right","1.12789511681","1001.58645296","3.87210488319","1005.61740994","3.14096713066","1008.75843978","2.85903286934","1011.668257","1013.53226781","1013.60237598","1016.60533786","1","1016.62033081","1022.38135481",""
"sujeto_96083b42","1","1","8","8","1022.52175784","inverse","4","1","4","¿En qué año nació
 Stephen Hawking?","1952","1942","","0","0","1","competitive","right","0.992877006531","1023.5147109","4.00712299347","1027.6737299","1.73393893242","1029.40770984","4.26606106758","1033.72455382","1035.16885591","1035.24422097","1038.24719596","0","1038.26148987","1044.36084795",""
"sujeto_96083b42","1","1","9","9","1044.49605894","direct","2","1","3","¿Cuánto años tenía Artigas
 cuando se fue a Paraguay?","56","57","","1","1","1","competitive","left","1.58879613876","1046.08492398","3.41120386124","1049.65643191","2.78544616699","1052.44193792","3.21455383301","1055.70746279","1057.25697398","1057.34286094","1060.3458178","1","1060.35910797","1066.40642691",""
"sujeto_96083b42","1","1","10","10","1066.56177592","inverse","1","1","2","¿Cuantos milímetros 
mide una hoja A2?","420x592","420x594","","0","0","1","competitive","right","0.895220994949","1067.45707488","4.10477900505","1071.71789479","4.9591588974","1076.67710996","1.0408411026","1077.75269699","1079.32108498","1079.40360379","1082.40657187","0","1082.42092991","1089.49429679",""
"sujeto_96083b42","1","1","11","11","1089.63961196","direct","3","1","3","¿Cuál es la menor temperatura 
registrada en Uruguay?","-5.4","-7.4","","0","0","1","competitive","left","0.677582979202","1090.31726599","4.3224170208","1094.79676199","3.35949707031","1098.15631795","2.64050292969","1100.83090591","1102.51292491","1102.59922385","1105.6022048","0","1105.616256","1109.34628582",""
"sujeto_96083b42","1","1","12","12","1109.48471284","inverse","2","1","2","¿Cuantos años hace que 
se fundó facebook?","18","17","","0","0","0","competitive","right","1.53271102905","1111.01747584","3.46728897095","1114.64148593","2.88299107552","1117.52453899","3.11700892448","1120.69146085","1122.06420994","1122.14264178","1125.14562082","0","1125.15994096","1127.93457198",""
"sujeto_96083b42","1","1","13","13","1128.06005192","direct","1","1","4","¿Cuál animal es más
 pesado en promedio?","Rinoceronte","Hipopotamo","","0","0","0","competitive","right","1.19949316978","1129.25960779","3.80050683022","1133.23348093","5.11112999916","1138.34465098","0.888870000839","1139.31920099","1140.39840293","1140.46921396","1143.47219491","0","1143.48660898","1147.3275888",""
"sujeto_96083b42","1","1","14","14","1147.45472288","inverse","1","1","2","¿Qué personaje de dragon ball 
murió más veces?","Chaoz","Krillin","","1","1","0","competitive","right","1.25498080254","1148.70976591","3.74501919746","1152.627527","3.2972509861","1155.92481685","2.7027490139","1158.67838192","1160.13619399","1160.212708","1163.21566582","1","1163.22975898","1171.00269294",""
"sujeto_96083b42","1","1","15","15","1171.14866996","direct","3","1","2","La universidad de oxford. 
existe desde:","1096","1249","","1","1","0","competitive","left","1.4462749958","1172.59500885","3.5537250042","1176.30072594","4.87323403358","1181.174016","1.12676596642","1182.33384085","1183.38229394","1183.45156288","1186.45453095","1","1186.46760297","1193.15825891",""
"sujeto_96083b42","1","1","16","16","1193.28778386","inverse","3","1","1","¿Qué escritor latino ganó antes
 el premio nobel?"," García Marquez","Neruda","","0","0","1","competitive","right","2.27740097046","1195.56522894","2.72259902954","1198.4307158","3.15742707253","1201.58818197","2.84257292747","1204.48573589","1206.22574091","1206.30417085","1209.30712199","0","1209.32111692","1212.78163099",""
"sujeto_96083b42","1","1","17","17","1212.92297196","direct","4","1","3","¿Cuántos dientes tiene un
 tiburón blanco?","6000","3000","","0","0","1","competitive","","2.86236810684","1215.78538895","2.13763189316","1218.09481597","6","1224.09495997","0","1224.11325097","1225.15223694","1225.23046994","1228.23345494","0","1228.24769878","1233.05431795",""
"sujeto_96083b42","1","1","18","18","1233.216537","inverse","4","1","1","¿Cuánto mide el paralelo Ecuador?","40.000km","70.000km","","0","0","1","competitive","right","2.15998506546","1235.37658381","2.84001493454","1238.37256885","3.61494994164","1241.98755789","2.38505005836","1244.40647388","1246.36230683","1246.44089198","1249.44228292","0","1249.45963597","1253.06220794",""
"sujeto_96083b42","1","1","19","19","1253.24317884","direct","4","1","2","¿Cuál fue el primer libro 
de Stephen King?","Carrie","The Stand","","1","1","1","competitive","left","1.3614988327","1254.60472488","3.6385011673","1258.39889383","2.39486002922","1260.79379392","3.60513997078","1264.4326849","1266.17676687","1266.25123382","1269.25421596","1","1269.26912999","1273.74356484",""
"sujeto_96083b42","1","1","20","20","1273.87062287","inverse","2","1","3","¿Qué civilización practicaba
 la momificación?","Grecia","Egipto","right","0","0","1","competitive","right","3.42029190063","1277.29095793","1.57970809937","1279.04177785","3.35316705704","1282.39498281","2.64683294296","1285.09364891","1287.03292894","1287.11224079","1290.11521697","1","1290.12942576","1294.35819888",""
"sujeto_96083b42","1","1","21","21","1294.49837899","direct","4","1","4","¿Cuántos millones de visitas
 recibe google por minuto?","3.0","4.5","","0","0","1","competitive","right","0.689721107483","1295.18814278","4.31027889252","1299.67115784","3.42398190498","1303.09520483","2.57601809502","1305.72120595","1307.23608685","1307.32335496","1310.32631278","0","1310.33859992","1317.46128798",""
"sujeto_96083b42","1","1","22","22","1317.60708499","inverse","1","1","3","La máquina de fax. se inventó en:","1843","1960","","0","0","1","individual","right","4.22511911392","1321.83227587","0.774880886078","1322.75019193","2.6580350399","1325.40829587","3.3419649601","1328.80031395","1330.04239178","1330.09134793","1333.09432697","0","1333.10228682","1336.3385849",""
"sujeto_96083b42","1","1","23","23","1336.47080994","direct","2","1","4","En la verdadera historia de los
 300 espartanos. habían:","300 soldados","4300 soldados","","1","1","1","competitive","right","1.10753798485","1337.57841277","3.89246201515","1341.65751791","5.16776108742","1346.82532191","0.832238912582","1347.710742","1348.97196484","1349.044168","1352.04716086","1","1352.06219482","1355.86229277",""
"sujeto_96083b42","1","1","24","24","1355.99647784","inverse","1","1","4","¿Cuántos milímetros crece
 el pelo por día?","0.4","0.04","","0","0","0","competitive","left","0.774926900864","1356.7714479","4.22507309914","1361.15230799","2.81004595757","1363.96239185","3.18995404243","1367.18715477","1368.94787478","1369.01990485","1372.02288485","0","1372.03715491","1378.77031779",""
"sujeto_96083b42","1","1","25","25","1378.90561795","direct","4","1","1","¿Cuánto mide la baldosa gris 
clásica de Montevideo?","22x22 cm.","20x20 cm.","","1","1","1","competitive","right","0.771944999695","1379.6776278","4.22805500031","1384.08163691","4.19691586494","1388.27859592","1.80308413506","1390.13212085","1392.12738585","1392.20024681","1395.20322585","1","1395.21829891","1400.76109982",""
"sujeto_96083b42","1","1","26","26","1400.90276289","inverse","2","1","2","¿Cuántas películas de rápidos
 y furiosos hay?","10","11","","1","1","0","competitive","right","0.96290397644","1401.86573076","4.03709602356","1406.05946589","3.3101940155","1409.36970377","2.6898059845","1412.09359384","1413.45158577","1413.52802777","1416.53101778","1","1416.54507995","1418.57976079",""
"sujeto_96083b42","1","1","27","27","1418.71394897","direct","3","1","1","¿Cuántos masters 1000
 ganó Del Potro?","1","2","","1","1","1","competitive","right","0.797841072083","1419.51183677","4.20215892792","1423.86436796","4.09347605705","1427.95790577","1.90652394295","1429.89930391","1431.65392089","1431.73438191","1434.73736596","1","1434.75071478","1442.14706779",""
"sujeto_96083b42","1","1","28","28","1442.30284095","inverse","2","1","4","¿Cuántos meses dura el 
embarazo de una leona?","3 meses","4 meses","","0","0","1","competitive","right","0.700122117996","1443.0030148","4.299877882","1447.46431279","4.83667588234","1452.30103278","1.16332411766","1453.515728","1454.62675381","1454.70019889","1457.70318079","0","1457.71749878","1464.43830776",""
"sujeto_96083b42","1","1","29","29","1464.58534098","direct","1","1","1","¿En qué año fue creado
 el sandwich?","1762","1653","","1","1","0","competitive","left","0.703720092773","1465.28913283","4.29627990723","1469.77648377","3.53965711594","1473.3161819","2.46034288406","1475.826545","1477.42507887","1477.51150489","1480.51447988","1","1480.52876782","1483.999403",""
"sujeto_96083b42","1","1","30","30","1484.13046694","inverse","4","1","2","El nombre de la moneda de Vietnam es:","Dinar","Dong","","0","0","1","competitive","left","1.00075793266","1485.13132977","3.99924206734","1489.31952691","3.19768595695","1492.51725578","2.80231404305","1495.37013698","1496.8021028","1496.88878584","1499.89176488","0","1499.90581298","1506.0742209",""
"sujeto_96083b42","1","1","31","31","1506.20810199","direct","2","1","1","¿cuantos aleteos puede dar 
un colibrí por segundo?","120","50","","0","0","0","competitive","right","0.537219047546","1506.74541879","4.46278095245","1511.37617898","4.45723795891","1515.83345795","1.54276204109","1517.41236496","1519.14475393","1519.22993279","1522.23291278","0","1522.24830484","1526.46057892",""
"sujeto_96083b42","1","1","32","32","1526.59921384","inverse","4","1","3","¿Qué altura promedio tienen
 los hombres uruguayos?","1.73 m","1.72 m","","1","1","1","competitive","left","0.619241952896","1527.21852398","4.3807580471","1531.79097986","2.97051382065","1534.76153398","3.02948617935","1537.84250689","1539.1049428","1539.19425082","1542.19723582","1","1542.21060395","1546.68632483",""
"sujeto_96083b42","1","2","1","33","1672.41125393","direct","1","1","1","¿En qué año nació 
el actor Bradd Pitt?","1967","1963","","1","1","1","competitive","left","1.08322119713","1673.49453998","3.91677880287","1677.56691384","3.37363195419","1680.94058585","2.62636804581","1683.61742687","1684.71328783","1684.78523493","1687.78822684","1","1687.802562","1693.72630882","1546.69785786"
"sujeto_96083b42","1","2","2","34","1693.85313582","inverse","2","1","1","¿Cual es el segundo 
monte más alto?","Kanchenjunga","K2","","1","1","1","individual","left","0.6761739254","1694.52942777","4.3238260746","1699.029073","4.35561108589","1703.38472891","1.64438891411","1705.08071589","1706.53311491","1706.58072186","1709.58369088","1","1709.59803295","1713.02793789",""
"sujeto_96083b42","1","2","3","35","1713.16641784","direct","3","1","1","¿Cuándo finalizó la construcción
 del Palacio Legislativo?","1925","1917","","0","0","1","competitive","right","0.923398971558","1714.08986187","4.07660102844","1718.3394978","3.29736495018","1721.63692188","2.70263504982","1724.38980699","1726.03028083","1726.10773778","1729.11069798","0","1729.12594795","1734.82351398",""
"sujeto_96083b42","1","2","4","36","1734.95989084","inverse","3","1","3","¿Cuántos integrantes tenía
 en su inicio  el cuarteto de nos?","3","4","","1","1","1","competitive","right","0.927105903625","1735.88710189","4.07289409637","1740.13312793","3.45681500435","1743.58998489","2.54318499565","1746.18443394","1747.31747794","1747.40290189","1750.40586782","1","1750.41994286","1756.06975293",""
"sujeto_96083b42","1","2","5","37","1756.20437694","direct","2","1","3","¿Qué valor tiene el número pi?","3.14","4.18","left","0","0","1","competitive","left","0.807741165161","1757.01219082","4.19225883484","1761.37700081","2.13814091682","1763.51518679","3.86185908318","1767.42662477","1768.88083196","1768.96262097","1771.96561098","1","1771.97987199","1778.90086079",""
"sujeto_96083b42","1","2","6","38","1779.04729891","inverse","2","1","2","¿Cuál es la esperanza de vida
 en Uruguay?","75","77","","1","1","0","competitive","left","1.06699514389","1780.1143558","3.93300485611","1784.22334385","2.45897293091","1786.68236089","3.54102706909","1790.27259684","1791.92637897","1792.00659895","1795.00957894","1","1795.02488399","1801.48629284",""
"sujeto_96083b42","1","2","7","39","1801.62550282","direct","1","1","2","¿Cuantos pisos tiene la torre 
de las comunicaciones?","26","32","","1","1","0","competitive","right","0.621964931488","1802.24754","4.37803506851","1806.80192089","2.78761196136","1809.58959198","3.21238803864","1812.85259795","1814.68133092","1814.75432396","1817.75731778","1","1817.77161098","1819.91781282",""
"sujeto_96083b42","1","2","8","40","1820.05692387","inverse","2","1","4","¿En qué país sudamericano 
no hay McDonalds?","Bolivia","Venezuela","","0","0","1","competitive","right","0.619683027267","1820.67667699","4.38031697273","1825.227422","3.19223403931","1828.41971684","2.80776596069","1831.2623589","1832.57174277","1832.64674783","1835.649683","0","1835.6637249","1842.02344894",""
"sujeto_96083b42","1","2","9","41","1842.1659708","direct","3","1","1","¿En qué año empieza
 la Edad Media?","476","512","","1","1","1","individual","left","0.880773067474","1843.04680681","4.11922693253","1847.32193494","2.74582600594","1850.06781697","3.25417399406","1853.35308981","1854.75686789","1854.80478787","1857.80773091","1","1857.82206893","1860.81064391",""
"sujeto_96083b42","1","2","10","42","1860.94064188","inverse","3","1","4","¿Hace cuántos años surgió
 el ser humano?","200mil","300mil","","0","0","0","competitive","right","0.74853682518","1861.68925595","4.25146317482","1866.09996676","3.13300013542","1869.23300695","2.86699986458","1872.15071893","1874.03677082","1874.11775589","1877.12073779","0","1877.13595986","1880.44631577",""
"sujeto_96083b42","1","2","11","43","1880.58706284","direct","3","1","4","¿Cuántas cuadras tiene
 actualmente 18 de julio? ","36","33","","0","0","1","competitive","left","0.733031988144","1881.32016587","4.26696801186","1885.74204588","3.6200709343","1889.36218882","2.3799290657","1891.79341388","1893.49567485","1893.57867193","1896.58165884","0","1896.59569883","1901.32199693",""
"sujeto_96083b42","1","2","12","44","1901.46410084","inverse","1","1","4","¿Qué juego de equipo se 
considera mas rápido?","Lacrosse","Badminton","","0","0","0","competitive","left","0.644145011902","1902.10828876","4.3558549881","1906.63387799","4.3054189682","1910.93933797","1.6945810318","1912.68704796","1913.93014288","1914.0045929","1917.00757098","0","1917.0216918","1925.01684594",""
"sujeto_96083b42","1","2","13","45","1925.15710282","direct","1","1","3","¿Qué promedio de edad 
vive una jirafa? ","25","20","","0","0","1","competitive","right","1.56134796143","1926.71852899","3.43865203857","1930.31515884","2.39030098915","1932.70549583","3.60969901085","1936.36524296","1938.12677288","1938.20033383","1941.20332789","0","1941.21760392","1947.17332983",""
"sujeto_96083b42","1","2","14","46","1947.33673596","inverse","1","1","2","¿Cuántos grandes lagos hay?","7","5","","0","0","1","competitive","right","0.76083612442","1948.09763694","4.23916387558","1952.495224","2.2843670845","1954.77962494","3.7156329155","1958.5448699","1959.83698177","1959.91332197","1962.91629982","0","1962.93061185","1970.7519908",""
"sujeto_96083b42","1","2","15","47","1970.88389993","direct","3","1","2","¿Cuántos discos de estudio
 grabó Johhny Cash? ","54","43","","1","1","0","individual","left","0.527944803238","1971.41189694","4.47205519676","1976.04034877","3.43553495407","1979.4759438","2.56446504593","1982.09138083","1983.36998296","1983.40940499","1986.41238189","1","1986.42658591","1993.07749677",""
"sujeto_96083b42","1","2","16","48","1993.2276988","inverse","4","1","1","¿Cuántos barrios tiene
 Montevideo? ","71","62","","0","0","1","competitive","right","0.876353979111","1994.10411692","4.12364602089","1998.38539791","1.95361208916","2000.33905292","4.04638791084","2004.43489385","2005.44193077","2005.52073598","2008.52371287","0","2008.53777981","2013.99832582",""
"sujeto_96083b42","1","2","17","49","2014.13941693","direct","3","1","3","¿Qué edad tiene Homero Simpson?","36","42","","0","0","1","competitive","right","0.957911014557","2015.09746885","4.04208898544","2019.29200387","2.15321087837","2021.44525599","3.84678912163","2025.34260178","2026.71864295","2026.79486895","2029.79784679","0","2029.81321192","2034.20197177",""
"sujeto_96083b42","1","2","18","50","2034.34758592","inverse","4","1","2","¿Cuántos países con monarquía 
hay en europa actualmente? ","6","10","","1","1","1","competitive","left","0.755721092224","2035.10334992","4.24427890778","2039.53969193","3.58069896698","2043.12044978","2.41930103302","2045.59074092","2047.02904391","2047.10840988","2050.11030984","1","2050.12659287","2056.28226876",""
"sujeto_96083b42","1","2","19","51","2056.41182494","direct","2","1","3","¿Cuántos capítulos de
 Friends existen? ","236","228","","1","1","1","competitive","left","0.966696977615","2057.37859797","4.03330302238","2061.56830478","3.96031498909","2065.52868295","2.03968501091","2067.60320592","2068.90877795","2068.9868958","2071.98765397","1","2072.0049119","2074.38052988",""
"sujeto_96083b42","1","2","20","52","2074.50554085","inverse","1","1","3","¿Cuántas óperas compuso Mozart? ","27","22","","1","1","1","competitive","right","0.725144863129","2075.23073292","4.27485513687","2079.65904284","2.36572885513","2082.02483487","3.63427114487","2085.69439387","2086.98655987","2087.06341982","2090.06641197","1","2090.08034897","2097.39179087",""
"sujeto_96083b42","1","2","21","53","2097.5312748","direct","4","1","3","¿Cuántos mundiales de fútbol 
femenino ha realizado FIFA? ","9","7","","1","1","1","competitive","right","0.931663990021","2098.46300888","4.06833600998","2102.68832088","3.60258722305","2106.2909739","2.39741277695","2108.73950291","2109.9823029","2110.05697083","2113.05993795","1","2113.07426","2119.17672777",""
"sujeto_96083b42","1","2","22","54","2119.30957079","inverse","3","1","2","¿Cuál es la temperatura 
media anual en Montevideo? ","17.5","16.3","","0","0","1","competitive","left","0.788482904434","2120.09812784","4.21151709557","2124.46766496","3.05739402771","2127.52512193","2.94260597229","2130.51846194","2132.45703697","2132.53681684","2135.53979683","0","2135.55409694","2142.12362885",""
"sujeto_96083b42","1","2","23","55","2142.2728169","direct","2","1","2","¿En qué año se estrenó el
 videojuego The Sims? ","2000","2002","","0","0","0","competitive","left","0.735409975052","2143.00827384","4.26459002495","2147.44689178","2.77741408348","2150.224365","3.22258591652","2153.48016","2155.34215379","2155.41556787","2158.41854978","0","2158.43283582","2165.82630086",""
"sujeto_96083b42","1","2","24","56","2165.96736383","inverse","2","1","1","¿Cuál es la canción con 
mas covers? ","Yesterday","Stand by me","","0","0","0","competitive","right","2.55609202385","2168.52352285","2.44390797615","2171.14249992","3.62289309502","2174.76544976","2.37710690498","2177.19413185","2178.59267378","2178.67785978","2181.67834282","0","2181.69544697","2185.86630487",""
"sujeto_96083b42","1","2","25","57","2185.99733686","direct","1","1","4","¿Cuánto duró la guerra
 de los 100 años?","116","123","","0","0","0","competitive","left","0.954314947128","2186.95170188","4.04568505287","2191.16522694","2.8224670887","2193.98773384","3.1775329113","2197.21624398","2198.69709182","2198.76875877","2201.77174783","0","2201.78600478","2204.10579491",""
"sujeto_96083b42","1","2","26","58","2204.23775792","inverse","4","1","4","¿Qué color tiene la  bandera de Brasil?","Amarillo","Naranja","left","0","0","1","competitive","left","0.902020215988","2205.13982296","4.09797978401","2209.41233683","2.48852205276","2211.90091896","3.51147794724","2215.46284294","2217.02937889","2217.11450481","2220.11748695","1","2220.13185287","2223.16465592",""
"sujeto_96083b42","1","2","27","59","2223.30019999","direct","4","1","3","¿Qué carabela de 
Colon no volvió del viaje?","Santa María","La pinta","","0","0","1","competitive","right","0.594776153564","2223.89502978","4.40522384644","2228.45542288","4.97559785843","2233.43108177","1.02440214157","2234.49098182","2235.98198986","2236.05764198","2239.06061792","0","2239.07465386","2241.174119",""
"sujeto_96083b42","1","2","28","60","2241.32649279","inverse","4","1","4","¿Cuántos huesos tiene
 un adulto humano?","217","206","","0","0","1","competitive","right","0.962632894516","2242.28916883","4.03736710548","2246.49379396","2.55636811256","2249.05024576","3.44363188744","2252.54545593","2253.8164649","2253.89765882","2256.90065193","0","2256.91492891","2264.75262785",""
"sujeto_96083b42","1","2","29","61","2264.88298678","direct","1","1","1","¿Qué país africano fue 
fundado por esclavos?","Liberia","Chad","","0","0","0","individual","left","0.65633392334","2265.53939795","4.34366607666","2270.06065083","4.17174291611","2274.23243499","1.82825708389","2276.11168981","2278.10331678","2278.14628577","2281.14924097","0","2281.16356277","2289.15439296",""
"sujeto_96083b42","1","2","30","62","2289.29816198","inverse","4","1","2","¿A cuánto asciende la cima
 del monte Everest?","7.990 mts","8.848 mts","","0","0","1","competitive","left","1.08833599091","2290.38656378","3.91166400909","2294.45642686","3.55312085152","2298.00961494","2.44687914848","2300.50700283","2301.69184184","2301.77533984","2304.77832985","0","2304.79233098","2311.97430682",""
"sujeto_96083b42","1","2","31","63","2312.11159992","direct","4","1","1","¿Cuál es el país mas chico?","Sealand","Luxemburgo","","1","1","1","competitive","left","0.589106798172","2312.70077395","4.41089320183","2317.26771283","3.58306193352","2320.85081577","2.41693806648","2323.31969786","2325.18231487","2325.25412178","2328.25712395","1","2328.26960182","2331.39189076",""
"sujeto_96083b42","1","2","32","64","2331.52058387","inverse","2","1","4","¿Cuántas pirámides hay en Egipto?","10000","11000","","1","1","1","individual","right","0.657353878021","2332.17800999","4.34264612198","2336.69445682","3.31042599678","2340.00492382","2.68957400322","2342.7296598","2343.76325488","2343.81452584","2346.81749797","1","2346.83164883","2351.94073391",""
"sujeto_96083b42","1","3","1","65","2463.05102897","direct","2","1","2","¿Cuál es el quinto país con 
mas extensión?","Canadá","Brasil","","1","1","0","competitive","right","0.686002969742","2463.73709893","4.31399703026","2468.21455288","3.49351906776","2471.70812988","2.50648093224","2474.2482698","2475.58156085","2475.66637778","2478.66934681","1","2478.68369794","2486.41006589","2351.95247197"
"sujeto_96083b42","1","3","2","66","2486.56766295","inverse","1","1","2","¿Qué rasgo facial no tiene
 la Mona Lisa?","Cejas","Pómulos","","0","0","1","competitive","left","0.831048965454","2487.39876199","4.16895103455","2491.74344683","3.83982992172","2495.58334494","2.16017007828","2497.79402995","2499.54441881","2499.62852693","2502.63151884","0","2502.64576387","2508.91671896",""
"sujeto_96083b42","1","3","3","67","2509.06744385","direct","4","1","3","¿Cuál es el país con 
mayor población?","Esados Unidos","China","right","0","0","1","competitive","right","0.922045946121","2509.9895339","4.07795405388","2514.23884487","1.54760193825","2515.78648376","4.45239806175","2520.28795791","2521.93397999","2522.02466393","2525.02632189","1","2525.04161787","2528.40895486",""
"sujeto_96083b42","1","3","4","68","2528.54352188","inverse","1","1","1","La palabra dinosaurio significa","Lagarto Terrible","Lagarto Dragón","","1","1","0","competitive","right","0.935827970505","2529.47943687","4.0641720295","2533.74785185","3.1418390274","2536.88973284","2.8581609726","2539.7997098","2540.97004485","2541.05062485","2544.05359793","1","2544.06769085","2546.92952895",""
"sujeto_96083b42","1","3","5","69","2547.06971478","direct","2","1","3","¿Qué es el membrillero?","Arbol","Arbusto","","0","0","0","competitive","right","0.667104959488","2547.73686695","4.33289504051","2552.24143696","2.2724301815","2554.5139339","3.7275698185","2558.29175496","2560.24586082","2560.32730699","2563.33029199","0","2563.34443593","2569.80845499",""
"sujeto_96083b42","1","3","6","70","2569.94815278","inverse","3","1","3","¿Alrededor de qué planeta orbita 
el satélite Europa?","Jupiter","Saturno","","1","1","1","competitive","right","1.10886001587","2571.05707979","3.89113998413","2575.104141","4.95196700096","2580.05614996","1.04803299904","2581.15532494","2582.70011282","2582.77263188","2585.77562094","1","2585.78986597","2587.99501395",""
"sujeto_96083b42","1","3","7","71","2588.12522078","direct","3","1","1","¿Donde fue el mundial de 
fútbol de 1954?","Suiza","Suecia","","1","1","1","competitive","right","1.02900099754","2589.15427279","3.97099900246","2593.27974582","3.73947906494","2597.01929283","2.26052093506","2599.33023095","2600.58228278","2600.6652658","2603.66823483","1","2603.68229795","2607.59406781",""
"sujeto_96083b42","1","3","8","72","2607.73332977","inverse","1","1","4","¿Cuál de los 7 enanitos
no tenía barba?","Bashful","Mudito","","1","1","0","competitive","left","0.815961122513","2608.54935694","4.18403887749","2612.88558483","4.54280495644","2617.42845583","1.45719504356","2618.92180991","2620.50195289","2620.57229781","2623.57527781","1","2623.58956289","2628.51865077",""
"sujeto_96083b42","1","3","9","73","2628.65855789","direct","3","1","2","¿Cual red social es
mas utilizada mundialmente?","Instagram","Facebook","","1","1","0","competitive","left","0.92413187027","2629.58273697","4.07586812973","2633.81789088","2.46468997002","2636.28262377","3.53531002998","2639.86812377","2641.78548479","2641.87001896","2644.87300992","1","2644.88736677","2647.8218739",""
"sujeto_96083b42","1","3","10","74","2647.955791","inverse","4","1","1","¿Cuándo se inició la copa
 América de fútbol?","1916","1923","","1","1","1","competitive","right","1.07292103767","2649.02875495","3.92707896233","2653.1284368","3.85433602333","2656.98283982","2.14566397667","2659.17928696","2661.07669997","2661.16330886","2664.16629887","1","2664.18140697","2666.83753085",""
"sujeto_96083b42","1","3","11","75","2666.98199177","direct","3","1","4","¿Cuántos presidentes de EEUU
han muerto asesinados?","3","4","","0","0","1","competitive","left","0.621948003769","2667.60404587","4.37805199623","2672.1667428","3.38911795616","2675.55591679","2.61088204384","2678.21864796","2679.70262599","2679.78637981","2682.78936386","0","2682.803684","2686.4478128",""
"sujeto_96083b42","1","3","12","76","2686.5892489","inverse","2","1","4","¿Cuántas veces participó EEUU
 en la copa América?","4","5","","0","0","1","competitive","right","0.698820829391","2687.28812099","4.30117917061","2691.7473619","4.22670698166","2695.97410679","1.77329301834","2697.78225279","2699.22633386","2699.30015087","2702.30312181","0","2702.31738091","2708.43456388",""
"sujeto_96083b42","1","3","13","77","2708.56918478","direct","4","1","1","¿Cuál de estos países 
no formaba la URSS?","Azeribayán","Afganistán","","0","0","1","competitive","left","0.667101860046","2709.23633385","4.33289813995","2713.74259281","3.22967290878","2716.9723258","2.77032709122","2719.79342985","2721.10652089","2721.19533086","2724.1983068","0","2724.21206689","2732.19422698",""
"sujeto_96083b42","1","3","14","78","2732.33023787","inverse","1","1","1","¿En qué año se inauguró
 el teatro Solís?","1867","1856","","0","0","0","competitive","right","1.2382671833","2733.56860685","3.7617328167","2737.50550485","1.69105100632","2739.19659591","4.30894899368","2743.55472684","2744.61095786","2744.69113088","2747.69414091","0","2747.70924091","2754.3570478",""
"sujeto_96083b42","1","3","15","79","2754.49261093","direct","1","1","4","¿A qué velocidad vuela 
el avión más rápido?","3529","3874","","0","0","0","competitive","right","1.30304312706","2755.79569697","3.69695687294","2759.6673429","3.67935585976","2763.34673691","2.32064414024","2765.71735477","2767.47284079","2767.55135894","2770.55431795","0","2770.56944895","2772.67970395",""
"sujeto_96083b42","1","3","16","80","2772.820292","inverse","3","1","4","¿De qué año es la primer 
película cinematográfica?","1897","1888","","0","0","0","competitive","left","0.638540029526","2773.45890284","4.36145997047","2777.99344492","2.86842417717","2780.86190581","3.13157582283","2784.04392982","2785.17691278","2785.26192689","2788.26489592","0","2788.27911186","2793.68821788",""
"sujeto_96083b42","1","3","17","81","2793.83062196","direct","2","1","3","¿Cuántos países 
tiene nuestro planeta?","191","194","","1","1","1","competitive","right","0.755816936493","2794.58650494","4.24418306351","2798.98737597","3.4317009449","2802.41914082","2.5682990551","2805.03784084","2806.39430499","2806.47252393","2809.47551894","1","2809.48894978","2812.72723079",""
"sujeto_96083b42","1","3","18","82","2812.88934183","inverse","2","1","2","¿Cuántos habitantes
 tiene Buenos Aires?","2.9000.000","3650000","","0","0","0","competitive","right","1.45083999634","2814.34024596","3.54916000366","2818.0480659","3.75517916679","2821.80328393","2.24482083321","2824.09877682","2825.49603391","2825.56623983","2828.56917286","0","2828.58323383","2834.41261697",""
"sujeto_96083b42","1","3","19","83","2834.56802487","direct","2","1","1","¿Cuántos kilos forman una tonelada?","1000","1500","left","1","1","1","competitive","left","0.841333866119","2835.40940189","4.15866613388","2839.72351098","2.71296095848","2842.43651199","3.28703904152","2845.75791693","2847.64526796","2847.72573495","2850.72867393","1","2850.74391484","2856.70137191",""
"sujeto_96083b42","1","3","20","84","2856.84575891","inverse","4","1","4","¿Cuántos estados tiene la 
República del Perú? ","24","23","","0","0","1","competitive","right","0.868853092194","2857.71465898","4.13114690781","2862.00434494","2.95132279396","2864.95570993","3.04867720604","2868.0530889","2869.07525182","2869.15292788","2872.15585899","0","2872.17021179","2877.1155529",""
"sujeto_96083b42","1","3","21","85","2877.23893189","direct","3","1","3","¿En qué año nació Cristóbal Colón? ","1451","1447","","0","0","1","competitive","right","0.586872816086","2877.82584977","4.41312718391","2882.38066792","2.91116213799","2885.29189396","3.08883786201","2888.41499877","2890.26090193","2890.33399677","2893.3369689","0","2893.35147882","2897.57946396",""
"sujeto_96083b42","1","3","22","86","2897.71957779","inverse","4","1","4","¿Cuánto mide la 
Montaña Aconcagua? ","6234","6962","","0","0","1","competitive","left","0.74334692955","2898.462991","4.25665307045","2902.89185095","3.85214614868","2906.74403977","2.14785385132","2908.94326496","2910.23262095","2910.31078577","2913.31379199","0","2913.32793188","2920.51027083",""
"sujeto_96083b42","1","3","23","87","2920.6460669","direct","2","1","4","¿Cuánto mide el punto
 más profundo del océano? ","12508","11003","","0","0","1","competitive","right","0.84165096283","2921.48779297","4.15834903717","2925.79930687","2.14381289482","2927.94317389","3.85618710518","2931.84982991","2933.1012938","2933.18600488","2936.18901587","0","2936.20222282","2940.40844989",""
"sujeto_96083b42","1","3","24","88","2940.53838181","inverse","1","1","3","¿Cuántos álbumes ha publicado 
el cantante Jaime Roos? ","41","34","","0","0","1","competitive","left","1.33702802658","2941.87547588","3.66297197342","2945.69734478","3.43802905083","2949.13543987","2.56197094917","2951.74811578","2953.23797679","2953.31642389","2956.31938696","0","2956.33371091","2962.52988076",""
"sujeto_96083b42","1","3","25","89","2962.68540978","direct","4","1","3","¿En qué año nació el 
ex-presidente Jorge Battle? ","1921","1927","","1","1","1","competitive","right","0.924182891846","2963.60963893","4.07581710815","2967.84247184","3.22908401489","2971.07161379","2.77091598511","2973.876369","2975.60631895","2975.69516587","2978.69812989","1","2978.71248078","2982.19852591",""
"sujeto_96083b42","1","3","26","90","2982.33049989","inverse","1","1","3","¿Cuántas presidencias 
constitucionales  hubo en Uruguay? ","41","42","","0","0","1","competitive","right","0.858235836029","2983.18883586","4.14176416397","2987.50182295","4.65399909019","2992.15588093","1.34600090981","2993.55399585","2994.75773382","2994.83811879","2997.84112382","0","2997.85518885","3003.63881087",""
"sujeto_96083b42","1","3","27","91","3003.77373886","direct","1","1","2","¿Quién escribió mas sinfonías?","Mozart","Haydn","","1","1","0","competitive","left","0.798244953156","3004.57203078","4.20175504684","3008.92891884","2.27105903625","3011.20001984","3.72894096375","3014.97955894","3016.19704199","3016.28175783","3019.28474689","1","3019.29801679","3023.04943991",""
"sujeto_96083b42","1","3","28","92","3023.18375897","inverse","4","1","2","¿En qué año nació Michael Jackson?","1958","1953","","1","1","1","competitive","right","2.78635907173","3025.97026277","2.21364092827","3028.37357879","2.9355340004","3031.30915284","3.0644659996","3034.42494583","3036.40316391","3036.47654986","3039.47953081","1","3039.49382281","3045.35612583",""
"sujeto_96083b42","1","3","29","93","3045.49590087","direct","3","1","2","¿En qué año entró en vigencia 
la ley antitabaco en Uruguay?","2005","2006","","1","1","1","competitive","left","0.640396118164","3046.1363399","4.35960388184","3050.65244389","4.55498886108","3055.20749879","1.44501113892","3056.70349288","3058.29824281","3058.37117386","3061.37413478","1","3061.38819695","3066.72222781",""
"sujeto_96083b42","1","3","30","94","3066.85671782","inverse","3","1","1","¿Cuándo se subió el 
primer video a youtube?","2004","2005","","0","0","1","competitive","right","0.684875965118","3067.54164195","4.31512403488","3072.01188993","2.91871118546","3074.93064284","3.08128881454","3078.06391287","3079.369555","3079.44934678","3082.45233083","0","3082.4663949","3090.22202587",""
"sujeto_96083b42","1","3","31","95","3090.35169387","direct","2","1","1","¿Cuántos habitantes tiene India?","1200 millones","1300 millones","","0","0","0","competitive","right","1.17204904556","3091.52378798","3.82795095444","3095.52500892","4.3198390007","3099.84491491","1.6801609993","3101.575737","3103.54536486","3103.62625694","3106.6292398","0","3106.64466286","3112.69216895",""
"sujeto_96083b42","1","3","32","96","3112.82951784","inverse","4","1","2","¿A qué edad murió Bob Marley?","36","37","","0","0","1","competitive","right","0.683421850204","3113.51300693","4.3165781498","3117.98760986","2.18742585182","3120.17507792","3.81257414818","3124.03783178","3125.93428397","3126.02378798","3129.02679992","0","3129.04099488","3132.1434598",""
"sujeto_96083b42","1","4","1","97","3260.80888486","direct","2","1","1","¿Cuantos años dirigió la selección 
uruguaya Tabarez?","15 años","13 años","","0","0","0","competitive","left","1.29839491844","3262.10734987","3.70160508156","3265.96403694","3.26531887054","3269.22939777","2.73468112946","3272.01500797","3273.20617795","3273.28253984","3276.2855258","0","3276.29991388","3283.37194085","3132.15486288"
"sujeto_96083b42","1","4","2","98","3283.51823878","inverse","4","1","1","¿Cuantas teclas tiene un teclado 
de computadora generalmente? ","Entre 99 y 108","Entre 109 y 113","","1","1","1","competitive","right","0.713328123093","3284.23163486","4.28667187691","3288.67732191","3.73324918747","3292.41063786","2.26675081253","3294.72759295","3295.73037386","3295.81196785","3298.81430888","1","3298.82953286","3301.20097494",""
"sujeto_96083b42","1","4","3","99","3301.33161998","direct","1","1","1","¿Cuál Departamento tiene
 mayor superficie?","Río Negro","Soriano","","0","0","0","competitive","left","0.76211309433","3302.0938189","4.23788690567","3306.48610997","3.09562015533","3309.58178878","2.90437984467","3312.53721285","3314.25066876","3314.32205582","3317.32503676","0","3317.34005785","3321.66614079",""
"sujeto_96083b42","1","4","4","100","3321.80749488","inverse","3","1","2","¿Cuál es el apellido de las 
hermanastras  de  cenicienta?","Tremaine","Truman","","0","0","1","competitive","right","0.716451883316","3322.52403188","4.28354811668","3326.9952929","3.69751286507","3330.6928668","2.30248713493","3333.04767394","3334.91720676","3334.99912882","3338.00211477","0","3338.01626396","3340.71222377",""
"sujeto_96083b42","1","4","5","101","3340.85121298","direct","4","1","4","¿Cuál película ganó un
 Oscar a mejor película?","Alto Impacto","Cache","","0","0","1","competitive","left","0.851809024811","3341.70306778","4.14819097519","3346.04056096","3.42444205284","3349.46504092","2.57555794716","3352.0884769","3353.20785189","3353.28958797","3356.29257488","0","3356.30700183","3358.57163477",""
"sujeto_96083b42","1","4","6","102","3358.70865989","inverse","1","1","3","¿A cuántos centímetros
equivale la medida pié?","25","30","","0","0","1","competitive","right","0.719442844391","3359.42817378","4.28055715561","3363.90024281","4.01284503937","3367.91312695","1.98715496063","3369.93379092","3370.97381282","3371.05177379","3374.05430079","0","3374.0694778","3379.47031283",""
"sujeto_96083b42","1","4","7","103","3379.60425282","direct","2","1","2","¿Qué departamento es mas grande?","Cerro Largo","Paysandú","","0","0","0","competitive","left","1.12487697601","3380.72917891","3.87512302399","3384.75992393","2.67827701569","3387.43826389","3.32172298431","3390.79400587","3392.39373589","3392.47976089","3395.48226595","0","3395.49734783","3399.60728192",""
"sujeto_96083b42","1","4","8","104","3399.74863482","inverse","2","1","3","¿Quién pintó la Mona Lisa?","Picasso","Da Vinci","right","0","0","1","competitive","right","0.577651977539","3400.32635379","4.42234802246","3404.92068577","3.81050610542","3408.73122978","2.18949389458","3410.95350194","3412.55934381","3412.637146","3415.64010692","1","3415.65453196","3417.81685996",""
"sujeto_96083b42","1","4","9","105","3417.95665479","direct","4","1","3","¿Cuántos litros hay en un galon?","3.54","3.78","","1","1","1","competitive","left","0.749705076218","3418.70644283","4.25029492378","3423.12966681","3.36365604401","3426.4933629","2.63634395599","3429.16406679","3430.68195081","3430.76529789","3433.76826096","1","3433.78267884","3439.57503486",""
"sujeto_96083b42","1","4","10","106","3439.70117784","inverse","4","1","1","¿Cuántas teclas tiene
 un piano moderno?","80","88","","0","0","1","competitive","right","0.834256887436","3440.53550982","4.16574311256","3444.85828686","5.323168993","3450.18150187","0.676831007004","3450.89358997","3451.90206099","3451.9772408","3454.98024392","0","3454.9944129","3461.78632784",""
"sujeto_96083b42","1","4","11","107","3461.92864394","direct","4","1","3","¿Cuántos países hay en África?","54","62","","0","0","1","competitive","left","0.731852054596","3462.66053891","4.2681479454","3467.09993577","2.75258994102","3469.85256577","3.24741005898","3473.152071","3474.84229279","3474.92050099","3477.922364","0","3477.93864799","3485.74234891",""
"sujeto_96083b42","1","4","12","108","3485.87317085","inverse","1","1","3","¿En qué siglo se crearon
 las primeras pistolas?","XV","XIII","","1","1","1","competitive","right","1.03043985367","3486.90368581","3.96956014633","3491.04762983","5.45094799995","3496.49862099","0.549052000046","3497.10018086","3499.04809594","3499.13351583","3502.13647699","1","3502.15086484","3505.38396478",""
"sujeto_96083b42","1","4","13","109","3505.53576088","direct","3","1","4","¿En qué año se estrenó 
la serie friends?","1994","1995","","0","0","1","competitive","right","1.42252707481","3506.95839477","3.57747292519","3510.69255185","4.36512994766","3515.05774188","1.63487005234","3516.743433","3518.61873388","3518.6937778","3521.69431376","0","3521.71172285","3526.71432281",""
"sujeto_96083b42","1","4","14","110","3526.87972689","inverse","3","1","4","¿En qué año nació Hitler?","1889","1887","","0","0","1","competitive","right","1.97604393959","3528.85583591","3.02395606041","3532.05426693","2.2385430336","3534.29286885","3.7614569664","3538.10394096","3539.21831679","3539.2892909","3542.29031587","0","3542.30640078","3547.33339",""
"sujeto_96083b42","1","4","15","111","3547.47472978","direct","1","1","4","¿Cuánto pesa un elefante Africano?","6000 kilos","5400 kilos","","0","0","0","competitive","left","0.552426099777","3548.02726293","4.44757390022","3552.64470983","3.01908302307","3555.66384697","2.98091697693","3558.69732094","3560.05322289","3560.13140988","3563.13428378","0","3563.14919877","3569.85622597",""
"sujeto_96083b42","1","4","16","112","3569.98406196","inverse","1","1","2","¿Qué porcentaje de 
la población es zurda?","10%","7%","","1","1","0","competitive","left","1.42398405075","3571.4081068","3.57601594925","3575.141711","3.05921792984","3578.20098281","2.94078207016","3581.19241786","3582.43551683","3582.50979185","3585.51278877","1","3585.52699184","3591.50673485",""
"sujeto_96083b42","1","4","17","113","3591.67726398","direct","1","1","2","¿En qué año se estrenó
Volver al futuro?","1984","1985","","0","0","1","competitive","left","0.444951057434","3592.12229776","4.55504894257","3596.83709478","2.78503203392","3599.62216592","3.21496796608","3602.88738799","3604.44916081","3604.52255797","3607.52551079","0","3607.5398128","3614.63126779",""
"sujeto_96083b42","1","4","18","114","3614.77510786","inverse","3","1","2","¿Cuántos jugadores hay en un 
equipo de baseball?","9","8","","1","1","0","competitive","right","1.04315090179","3615.81830597","3.95684909821","3619.93265796","2.2736260891","3622.2063458","3.7263739109","3625.98283291","3627.59714389","3627.66861081","3630.67154884","1","3630.68589997","3635.66225481",""
"sujeto_96083b42","1","4","19","115","3635.80378699","direct","2","1","1","¿Cuántos Oscar ganó
 la película titanic?","13","11","","1","1","1","competitive","right","1.01656007767","3636.82041383","3.98343992233","3640.97669291","2.00976514816","3642.98652196","3.99023485184","3647.02685595","3648.32886481","3648.41215682","3651.41431785","1","3651.4293499","3656.032022",""
"sujeto_96083b42","1","4","20","116","3656.18096995","inverse","4","1","4","¿En qué año comenzó
la segunda guerra mundial?","1939","1976","left","0","0","1","competitive","","0.959572076797","3657.14061785","4.0404279232","3661.33556294","6","3667.33569884","0","3667.3519268","3669.1517868","3669.23826194","3672.241256","0","3672.25556779","3676.2427218",""
"sujeto_96083b42","1","4","21","117","3676.42363596","direct","2","1","4","¿Cuántos biomas hay en Uruguay?","5","4","","0","0","1","competitive","right","0.527068138123","3676.95084286","4.47293186188","3681.58073688","1.94481992722","3683.52559876","4.05518007278","3687.61448789","3689.41178679","3689.50003791","3692.50301385","0","3692.51733184","3698.76674485",""
"sujeto_96083b42","1","4","22","118","3698.91945386","inverse","2","1","3","¿Cuándo murió Pablo Escobar?","1993","1997","","1","1","1","individual","right","0.52428483963","3699.44380879","4.47571516037","3704.07579684","1.81394600868","3705.88980079","4.18605399132","3710.10777879","3711.8905828","3711.94281697","3714.94576478","1","3714.9599278","3720.66227794",""
"sujeto_96083b42","1","4","23","119","3720.79535389","direct","1","1","4","¿Qué serie ha ganado mas premios?","Friends","Murphy Brown","","1","1","0","competitive","left","1.00356888771","3721.79899383","3.99643111229","3725.95463991","2.42718720436","3728.38188887","3.57281279564","3731.98841476","3733.34077191","3733.42314887","3736.42612696","1","3736.44011879","3741.99830794",""
"sujeto_96083b42","1","4","24","120","3742.14218593","inverse","4","1","2","¿Cuántas fichas tiene el dominó?","26","28","","1","1","1","competitive","right","1.52881503105","3743.67106581","3.47118496895","3747.29741597","2.99061703682","3750.28807783","3.00938296318","3753.34835386","3754.40366387","3754.48321986","3757.48621082","1","3757.49962783","3762.74274588",""
"sujeto_96083b42","1","4","25","121","3762.88508081","direct","2","1","4","¿Cuántos son los dientes de leche?","20","25","","0","0","1","competitive","left","0.712069034576","3763.59720993","4.28793096542","3768.05290985","2.94725680351","3771.00020385","3.05274319649","3774.08739877","3775.79776788","3775.87221789","3778.87432694","0","3778.89066076","3781.0363729",""
"sujeto_96083b42","1","4","26","122","3781.17560792","inverse","3","1","3","¿Cuántos gramos son una onza?","22","28","","0","0","1","competitive","left","0.77366900444","3781.94934678","4.22633099556","3786.35065699","2.7155880928","3789.06628299","3.2844119072","3792.38511682","3794.37997389","3794.45307899","3797.45607996","0","3797.47119379","3803.76144481",""
"sujeto_96083b42","1","4","27","123","3803.92271495","direct","3","1","1","¿Cuándo salió el primer album
 de los Beatles?","1963","1962","","1","1","1","competitive","left","0.503767967224","3804.42655087","4.49623203278","3809.11241198","2.42100214958","3811.53345394","3.57899785042","3815.16403198","3816.3276279","3816.39943695","3819.40239096","1","3819.41748095","3823.18951488",""
"sujeto_96083b42","1","4","28","124","3823.33523083","inverse","3","1","3","¿Quién fundó la empresa apple?","Carlos Slim","Steve Jobs","","1","1","1","competitive","right","0.730309009552","3824.0655849","4.26969099045","3828.51976991","1.83987212181","3830.35970497","4.16012787819","3834.57119179","3835.68586493","3835.75647497","3838.75942278","1","3838.77363682","3845.07147479",""
"sujeto_96083b42","1","4","29","125","3845.20822787","direct","4","1","2","¿Cuántos municipios hay
 en Montevideo?","8","7","","1","1","1","competitive","left","0.644630908966","3845.85293078","4.35536909103","3850.36886787","3.07477498055","3853.44370389","2.92522501945","3856.42041492","3858.33436489","3858.42207599","3861.42502689","1","3861.43925595","3863.52040386",""
"sujeto_96083b42","1","4","30","126","3863.69064999","inverse","1","1","1","¿Cuántos kilómetros hay
 de Montevideo a Artigas?","632","599","","0","0","0","competitive","left","0.901165008545","3864.59188986","4.09883499146","3868.8620739","3.6837990284","3872.54593086","2.3162009716","3874.91324687","3876.39635777","3876.48101687","3879.48396397","0","3879.4980588","3885.54628587",""
"sujeto_96083b42","1","4","31","127","3885.69973183","direct","2","1","2","¿En qué año nació 
Leonardo Da Vinci?","1452","1511","","1","1","0","competitive","right","0.532217979431","3886.23201489","4.46778202057","3890.86861992","1.10138201714","3891.97006178","4.89861798286","3896.91971898","3898.77334285","3898.85609579","3901.85907984","1","3901.87327194","3905.01968193",""
"sujeto_96083b42","1","4","32","128","3905.15888977","inverse","3","1","1","¿A qué continente
 pertenece el país Gabón?","Africa","Oceanía","","0","0","1","competitive","right","0.700189113617","3905.85914397","4.29981088638","3910.33329177","2.94078493118","3913.27411199","3.05921506882","3916.38389778","3918.19428897","3918.26942182","3921.27240682","0","3921.28688979","3926.5247829",""
