"code","nro_aplicante","nro_bloque","nro_trial_bloque","nro_trial_global","show_game_type","choice_order","rival","pay_individual","pay_competitive","question","answer_left_text","answer_right_text","correct_answer","outcome_individual","outcome_competitive","outcome_rival","game_type","answer","social_time","rt_game_type","feedback_delay","show_question","answer_time","rt_answer_global","feedback_delay_2","show_jitter","jitter_time","show_outcome","outcome_time","outcome_participant_real","show_final_jitter","second_jitter_time","inicio_descanso"
"sujeto_9d7bb9e1","1","1","1","1","16.7481908798","direct","3","1","4","¿Cuántos centímetros corresponden
al talle 36 del calzado?","23","24",,"0","0","1","competitive","right","3.94166994095","20.6899240017","1.05833005905","21.9063959122","3.95943403244","25.8658969402","2.04056596756","27.958039999","28.9863400459","29.0588958263","32.061882019","0","32.0756859779","34.2382209301",
"sujeto_9d7bb9e1","1","1","2","2","34.3926198483","inverse","3","1","2","¿Cuántas metros mide la Intendencia
Municipal de Montevideo? ","84","78",,"0","0","1","competitive","left","1.35119605064","35.7438628674","3.64880394936","39.5473599434","2.81633114815","42.3637468815","3.18366885185","45.5975539684","47.4755680561","47.549134016","50.5521130562","0","50.5666668415","52.6594369411",
"sujeto_9d7bb9e1","1","1","3","3","52.8016428947","direct","1","1","3","¿Cuántas La Pasiva
 hay en uruguay?","15","11",,"1","1","1","competitive","right","0.88404083252","53.6857578754","4.11595916748","57.9571590424","3.31847405434","61.2756910324","2.68152594566","64.0083858967","65.6200408936","65.6933369637","68.6963469982","1","68.7107689381","72.9891090393",
"sujeto_9d7bb9e1","1","1","4","4","73.128939867","inverse","3","1","3","¿De que color es la camiseta de uruguay?","blanca","celeste","right","1","1","1","competitive","right","1.77656888962","74.9055709839","3.22343111038","78.285145998","2.53233909607","80.81752491","3.46766090393","84.3354249001","85.5401768684","85.6205098629","88.6234400272","1","88.6377298832","92.091604948",
"sujeto_9d7bb9e1","1","1","5","5","92.2395000458","direct","2","1","1","¿Cuánto metros mide
la torre Eiffel?","333","324",,"1","1","1","competitive","right","2.11491298676","94.354475975","2.88508701324","97.3933370113","2.31805515289","99.7114310265","3.68194484711","103.442401886","104.963793993","105.044569969","108.047556877","1","108.062113047","115.098829031",
"sujeto_9d7bb9e1","1","1","6","6","115.246551037","inverse","3","1","4","¿Cuantas ciudades existen
 en todo el uruguay?","63","72",,"0","0","1","competitive","right","1.72779417038","116.974385977","3.27220582962","120.406450033","2.9368789196","123.343366861","3.0631210804","126.45697999","127.511812925","127.592357874","130.595340014","0","130.60888505","138.235481977",
"sujeto_9d7bb9e1","1","1","7","7","138.37726593","direct","1","1","1","¿Cuantos estados tiene África?","52","54",,"1","1","0","competitive","left","2.20594406128","140.58327198","2.79405593872","143.518687963","2.33853888512","145.857285976","3.66146111488","149.568699837","151.432749033","151.516276836","154.519217014","1","154.533478022","160.294487953",
"sujeto_9d7bb9e1","1","1","8","8","160.451182842","inverse","4","1","4","¿En qué año nació
 Stephen Hawking?","1952","1942",,"0","0","1","competitive","right","1.27093505859","161.722199917","3.72906494141","165.627261877","3.20282006264","168.830131054","2.79717993736","171.679785013","173.124057055","173.196816921","176.199815035","0","176.215142965","182.314519882",
"sujeto_9d7bb9e1","1","1","9","9","182.449386835","direct","2","1","3","¿Cuánto años tenía Artigas
 cuando se fue a Paraguay?","56","57",,"1","1","1","competitive","right","1.61849713326","184.067924976","3.38150286674","187.606781006","3.91422200203","191.52104187","2.08577799797","193.657011986","195.206538916","195.291923046","198.294843912","1","198.309164047","204.356482983",
"sujeto_9d7bb9e1","1","1","10","10","204.494251966","inverse","1","1","2","¿Cuantos milímetros 
mide una hoja A2?","420x592","420x594",,"0","0","1","competitive","left","0.924749851227","205.419046879","4.07525014877","209.664393902","5.53458499908","215.199036837","0.465415000916","215.717985868","217.286423922","217.367846012","220.370197058","0","220.385862827","227.459498882",
"sujeto_9d7bb9e1","1","1","11","11","227.603890896","direct","3","1","3","¿Cuál es la menor temperatura 
registrada en Uruguay?","-5.4","-7.4",,"0","0","1","competitive","right","1.63502597809","229.238980055","3.36497402191","232.781108856","3.38979887962","236.170946836","2.61020112038","238.831399918","240.51345706","240.59906292","243.602007866","0","243.616768837","247.350018024",
"sujeto_9d7bb9e1","1","1","12","12","247.500921011","inverse","2","1","2","¿Cuantos años hace que 
se fundó facebook?","18","17",,"0","0","0","competitive","left","1.06700110435","248.567997932","3.93299889565","252.674335003","2.83656311035","255.510954857","3.16343688965","258.724669933","260.097416878","260.175715923","263.178673983","0","263.192781925","265.967432976",
"sujeto_9d7bb9e1","1","1","13","13","266.111021042","direct","1","1","4","¿Cuál animal es más
 pesado en promedio?","Rinoceronte","Hipopotamo",,"0","0","0","competitive","left","1.39779114723","267.508874893","3.60220885277","271.267242908","3.31055283546","274.577854872","2.68944716454","277.348460913","278.427672863","278.500725031","281.503667831","0","281.517431974","285.35844183",
"sujeto_9d7bb9e1","1","1","14","14","285.485748053","inverse","1","1","2","¿Qué personaje de dragon ball 
murió más veces?","Chaoz","Krillin",,"1","1","0","competitive","right","1.48708701134","286.972895861","3.51291298866","290.643483877","4.28233289719","294.925856829","1.71766710281","296.694509029","298.152350903","298.228291035","301.231278896","1","301.245872021","309.018787861",
"sujeto_9d7bb9e1","1","1","15","15","309.164165974","direct","3","1","2","La universidad de oxford. 
existe desde:","1096","1249",,"1","1","0","competitive",,"1.52366518974","310.687871933","3.47633481026","314.321660042","6","320.321804047","0","320.338009834","321.386823893","321.457243919","324.460216045","0","324.47474885","331.163192987",
"sujeto_9d7bb9e1","1","1","16","16","331.29468894","inverse","3","1","1","¿Qué escritor latino ganó antes
 el premio nobel?"," García Marquez","Neruda",,"0","0","1","competitive","left","2.02914190292","333.323894024","2.97085809708","336.450667858","2.86111092567","339.311822891","3.13888907433","342.501342058","344.241354942","344.319030046","347.322016954","0","347.337332964","350.797863007",
"sujeto_9d7bb9e1","1","1","17","17","350.938297987","direct","4","1","3","¿Cuántos dientes tiene un
 tiburón blanco?","6000","3000",,"0","0","1","competitive","right","1.01450610161","351.952867031","3.98549389839","356.091164827","3.31962609291","359.410851002","2.68037390709","362.142534971","363.181550026","363.261556864","366.264552832","0","366.277822971","371.08751893",
"sujeto_9d7bb9e1","1","1","18","18","371.229099989","inverse","4","1","1","¿Cuánto mide el paralelo Ecuador?","40.000km","70.000km",,"0","0","1","competitive","right","0.845702171326","372.074872017","4.15429782867","376.387892962","3.05893206596","379.446886063","2.94106793404","382.437450886","384.393602848","384.472386837","387.475381851","0","387.489948988","391.092536926",
"sujeto_9d7bb9e1","1","1","19","19","391.225775003","direct","4","1","2","¿Cuál fue el primer libro 
de Stephen King?","Carrie","The Stand",,"1","1","1","competitive","left","1.26502203941","392.490846872","3.73497796059","396.397394896","2.475440979","398.872901917","3.524559021","402.44780302","404.191910982","404.266080856","407.26906991","1","407.283489943","411.757889032",
"sujeto_9d7bb9e1","1","1","20","20","411.902199984","inverse","2","1","3","¿Qué civilización practicaba
 la momificación?","Grecia","Egipto","right","0","0","1","competitive","right","1.08267807961","412.984945059","3.91732192039","417.057452917","2.71233391762","419.769829035","3.28766608238","423.108289003","425.047582865","425.12656498","428.129287958","1","428.14465189","432.373453856",
"sujeto_9d7bb9e1","1","1","21","21","432.51206398","direct","4","1","4","¿Cuántos millones de visitas
 recibe google por minuto?","3.0","4.5",,"0","0","1","competitive","right","1.26182413101","433.773972034","3.73817586899","437.667583942","3.46830296516","441.135926962","2.53169703484","443.718505859","445.233407021","445.319231987","448.322227955","0","448.336642027","455.459318876",
"sujeto_9d7bb9e1","1","1","22","22","455.589434862","inverse","1","1","3","La máquina de fax. se inventó en:","1843","1960",,"0","0","1","competitive","left","1.72739505768","457.316870928","3.27260494232","460.747258902","3.26664590836","464.01396203","2.73335409164","466.798442841","468.040557861","468.115753889","471.118715048","0","471.133291006","474.369607925",
"sujeto_9d7bb9e1","1","1","23","23","474.518929958","direct","2","1","4","En la verdadera historia de los
 300 espartanos. habían:","300 soldados","4300 soldados",,"1","1","1","competitive","left","1.56902885437","476.088024855","3.43097114563","479.690970898","3.92293286324","483.613960981","2.07706713676","485.741765022","487.002950907","487.075630903","490.078646898","1","490.092922926","493.894731998",
"sujeto_9d7bb9e1","1","1","24","24","494.045237064","inverse","1","1","4","¿Cuántos milímetros crece
 el pelo por día?","0.4","0.04",,"0","0","0","competitive","right","1.71964812279","495.764946938","3.28035187721","499.202781916","3.00115394592","502.203974009","2.99884605408","505.248160839","507.008854866","507.082867861","510.085836887","0","510.102097988","516.837218046",
"sujeto_9d7bb9e1","1","1","25","25","516.985290051","direct","4","1","1","¿Cuánto mide la baldosa gris 
clásica de Montevideo?","22x22 cm.","20x20 cm.",,"1","1","1","competitive","right","1.52074599266","518.506101847","3.47925400734","522.1625669","4.40536189079","526.567985058","1.59463810921","528.213548899","530.208813906","530.281657934","533.284652948","1","533.299371958","538.842180014",
"sujeto_9d7bb9e1","1","1","26","26","538.984173059","inverse","2","1","2","¿Cuántas películas de rápidos
 y furiosos hay?","10","11",,"1","1","0","competitive","left","1.45581007004","540.440028906","3.54418992996","544.123446941","3.35656785965","547.480057955","2.64343214035","550.174491882","551.532485962","551.608793974","554.611789942","1","554.62649703","556.661211967",
"sujeto_9d7bb9e1","1","1","27","27","556.794402838","direct","3","1","1","¿Cuántos masters 1000
 ganó Del Potro?","1","2",,"1","1","1","competitive","left","1.90879702568","558.703278065","3.09120297432","561.965976","3.21707010269","565.183089018","2.78292989731","568.017990828","569.772215843","569.853204012","572.856145859","1","572.869513988","580.265907049",
"sujeto_9d7bb9e1","1","1","28","28","580.404482841","inverse","2","1","4","¿Cuántos meses dura el 
embarazo de una leona?","3 meses","4 meses",,"0","0","1","competitive","right","1.9707660675","582.375309944","3.0292339325","585.564539909","3.41362285614","588.978204966","2.58637714386","591.610697985","592.721786022","592.795243025","595.798226833","0","595.814702988","602.536190033",
"sujeto_9d7bb9e1","1","1","29","29","602.665797949","direct","1","1","1","¿En qué año fue creado
 el sandwich?","1762","1653",,"1","1","0","competitive","right","1.39935278893","604.065211058","3.60064721107","607.822397947","2.41186213493","610.234299898","3.58813786507","613.873656034","615.472204924","615.558667898","618.56167388","1","618.576257944","622.046905041",
"sujeto_9d7bb9e1","1","1","30","30","622.195196867","inverse","4","1","2","El nombre de la moneda de Vietnam es:","Dinar","Dong",,"0","0","1","competitive","left","2.56907486916","624.764333963","2.43092513084","627.350407839","3.50894093513","630.859388828","2.49105906487","633.380391836","634.812340021","634.882071972","637.885066032","0","637.899401903","644.065261841",
"sujeto_9d7bb9e1","1","1","31","31","644.200655937","direct","2","1","1","¿cuantos aleteos puede dar 
un colibrí por segundo?","120","50",,"0","0","0","competitive","right","1.18971991539","645.390451908","3.81028008461","649.362174988","4.4662361145","653.828450918","1.5337638855","655.413039923","657.145391941","657.23069191","660.233634949","0","660.247545958","664.459830999",
"sujeto_9d7bb9e1","1","1","32","32","664.599695921","inverse","4","1","3","¿Qué altura promedio tienen
 los hombres uruguayos?","1.73 m","1.72 m",,"1","1","1","competitive","left","1.08825302124","665.688031912","3.91174697876","669.771278858","4.53009295464","674.301410913","1.46990704536","675.823041916","677.085473061","677.157512903","680.15987587","1","680.175145864","684.651087999",
"sujeto_9d7bb9e1","1","2","1","33","813.056936026","direct","1","1","1","¿En qué año nació 
el actor Bradd Pitt?","1967","1963",,"1","1","1","competitive","right","1.59605813026","814.653054953","3.40394186974","818.215150833","2.86892199516","821.084153891","3.13107800484","824.265859842","825.361737967","825.434259892","828.437252045","1","828.451524973","834.379116058","684.666333914"
"sujeto_9d7bb9e1","1","2","2","34","834.519984007","inverse","2","1","1","¿Cual es el segundo 
monte más alto?","Kanchenjunga","K2",,"1","1","1","competitive","left","2.28315997124","836.803220034","2.71684002876","839.693615913","3.52251005173","843.216189861","2.47748994827","845.745257854","847.197685003","847.28007102","850.283030987","1","850.297230005","853.727069855",
"sujeto_9d7bb9e1","1","2","3","35","853.882614851","direct","3","1","1","¿Cuándo finalizó la construcción
 del Palacio Legislativo?","1925","1917",,"0","0","1","competitive","left","1.14165711403","855.024338007","3.85834288597","859.053602934","3.04663801193","862.100283861","2.95336198807","865.104516983","866.746204853","866.822634935","869.825245857","0","869.840765953","875.538334846",
"sujeto_9d7bb9e1","1","2","4","36","875.674988031","inverse","3","1","3","¿Cuántos integrantes tenía
 en su inicio  el cuarteto de nos?","3","4",,"1","1","1","competitive","left","1.33542299271","877.010473967","3.66457700729","880.83216095","3.48124480247","884.313463926","2.51875519753","886.883215904","888.016283989","888.100091934","891.103124857","1","891.117784023","896.767601013",
"sujeto_9d7bb9e1","1","2","5","37","896.902833939","direct","2","1","3","¿Qué valor tiene el número pi?","3.14","4.18","left","0","0","1","competitive","left","1.35958695412","898.262483835","3.64041304588","902.059192896","2.10723590851","904.166487932","3.89276409149","908.109242916","909.563246012","909.645064831","912.648067951","1","912.66246295","919.583395004",
"sujeto_9d7bb9e1","1","2","6","38","919.713230848","inverse","2","1","2","¿Cuál es la esperanza de vida
 en Uruguay?","75","77",,"1","1","0","competitive","right","1.56427001953","921.277544022","3.43572998047","924.871969938","3.33253502846","928.204562902","2.66746497154","930.921864986","932.575634003","932.655580997","935.658499956","1","935.673804998","942.13677597",
"sujeto_9d7bb9e1","1","2","7","39","942.27857089","direct","1","1","2","¿Cuantos pisos tiene la torre 
de las comunicaciones?","26","32",,"1","1","0","competitive","right","1.99710297585","944.275738955","3.00289702415","947.431767941","3.51986789703","950.951699972","2.48013210297","953.483688831","955.312486887","955.401701927","958.403278828","1","958.418840885","960.565063953",
"sujeto_9d7bb9e1","1","2","8","40","960.703672886","inverse","2","1","4","¿En qué país sudamericano 
no hay McDonalds?","Bolivia","Venezuela",,"0","0","1","competitive","right","0.964132070541","961.667856932","4.03586792946","965.859724998","3.60604310036","969.465811968","2.39395689964","971.909730911","973.218230009","973.29437685","976.297348022","0","976.312094927","982.671814919",
"sujeto_9d7bb9e1","1","2","9","41","982.812871933","direct","3","1","1","¿En qué año empieza
 la Edad Media?","476","512",,"1","1","1","competitive","right","1.09598183632","983.908915043","3.90401816368","987.970419884","4.05951094627","992.02998805","1.94048905373","994.003881931","995.407685995","995.488735914","998.491755962","1","998.506074905","1001.49463487",
"sujeto_9d7bb9e1","1","2","10","42","1001.64103699","inverse","3","1","4","¿Hace cuántos años surgió
 el ser humano?","200mil","300mil",,"0","0","0","competitive","left","0.93195605278","1002.57305694","4.06804394722","1006.81200886","3.38501286507","1010.19705987","2.61498713493","1012.86353302","1014.74955797","1014.83165097","1017.83464789","0","1017.848773","1021.15924883",
"sujeto_9d7bb9e1","1","2","11","43","1021.2998569","direct","3","1","4","¿Cuántas cuadras tiene
 actualmente 18 de julio? ","36","33",,"0","0","1","competitive","right","1.13533091545","1022.43523502","3.86466908455","1026.45708203","3.42406010628","1029.88121104","2.57593989372","1032.50846291","1034.209306","1034.29239988","1037.29539204","0","1037.30998206","1042.03627801",
"sujeto_9d7bb9e1","1","2","12","44","1042.17836285","inverse","1","1","4","¿Qué juego de equipo se 
considera mas rápido?","Lacrosse","Badminton",,"0","0","0","competitive","left","1.15184402466","1043.33026195","3.84815597534","1047.35204196","3.49318289757","1050.84526205","2.50681710243","1053.40289593","1054.64597797","1054.72013783","1057.72311497","0","1057.73743892","1065.73260093",
"sujeto_9d7bb9e1","1","2","13","45","1065.87247205","direct","1","1","3","¿Qué promedio de edad 
vive una jirafa? ","25","20",,"0","0","1","competitive","right","1.99394416809","1067.86649299","3.00605583191","1071.03121996","3.12321615219","1074.15447283","2.87678384781","1077.08175993","1078.84327388","1078.91634393","1081.91924","0","1081.93343806","1087.88916302",
"sujeto_9d7bb9e1","1","2","14","46","1088.03584003","inverse","1","1","2","¿Cuántos grandes lagos hay?","7","5",,"0","0","1","competitive","left","0.953651189804","1088.98953986","4.0463488102","1093.22052789","2.5509660244","1095.77152991","3.4490339756","1099.25585985","1100.54763293","1100.62425804","1103.62726688","0","1103.64172602","1111.45729804",
"sujeto_9d7bb9e1","1","2","15","47","1111.59625506","direct","3","1","2","¿Cuántos discos de estudio
 grabó Johhny Cash? ","54","43",,"1","1","0","competitive","right","0.867402076721","1112.46372199","4.13259792328","1116.77063298","3.43903017044","1120.20970583","2.56096982956","1122.82186198","1124.10049796","1124.17249894","1127.17549801","1","1127.19017506","1133.84109998",
"sujeto_9d7bb9e1","1","2","16","48","1133.97526503","inverse","4","1","1","¿Cuántos barrios tiene
 Montevideo? ","71","62",,"0","0","1","competitive","left","1.24351596832","1135.21882486","3.75648403168","1139.13313389","3.46265697479","1142.59585595","2.53734302521","1145.16622686","1146.17330503","1146.2518909","1149.254879","0","1149.26853704","1154.73056793",
"sujeto_9d7bb9e1","1","2","17","49","1154.87035394","direct","3","1","3","¿Qué edad tiene Homero Simpson?","36","42",,"0","0","1","competitive","right","0.957539796829","1155.82795596","4.04246020317","1160.02669787","2.52123093605","1162.54799604","3.47876906395","1166.07687402","1167.45227194","1167.528929","1170.52926397","0","1170.54709291","1174.93586206",
"sujeto_9d7bb9e1","1","2","18","50","1175.08047485","inverse","4","1","2","¿Cuántos países con monarquía 
hay en europa actualmente? ","6","10",,"1","1","1","competitive","left","1.69453597069","1176.77505803","3.30546402931","1180.23711395","4.11096215248","1184.34814286","1.88903784752","1186.27047205","1187.70878887","1187.78866005","1190.79165602","1","1190.80599785","1196.96282387",
"sujeto_9d7bb9e1","1","2","19","51","1197.10745001","direct","2","1","3","¿Cuántos capítulos de
 Friends existen? ","236","228",,"1","1","1","competitive","left","1.31271409988","1198.42023206","3.68728590012","1202.28080297","3.04744982719","1205.32829595","2.95255017281","1208.31633902","1209.62188697","1209.70046401","1212.70345688","1","1212.71805596","1215.09370494",
"sujeto_9d7bb9e1","1","2","20","52","1215.23649502","inverse","1","1","3","¿Cuántas óperas compuso Mozart? ","27","22",,"1","1","1","competitive","left","2.28484797478","1217.52138591","2.71515202522","1220.39011097","2.52409815788","1222.91424203","3.47590184212","1226.44209599","1227.73423004","1227.81067395","1230.81365299","1","1230.82156897","1238.13304996",
"sujeto_9d7bb9e1","1","2","21","53","1238.28896904","direct","4","1","3","¿Cuántos mundiales de fútbol 
femenino ha realizado FIFA? ","9","7",,"1","1","1","competitive","right","1.38145208359","1239.67048883","3.61854791641","1243.45346093","3.12501788139","1246.57853603","2.87498211861","1249.50473499","1250.74842906","1250.82216501","1253.82515287","1","1253.83943295","1259.94190383",
"sujeto_9d7bb9e1","1","2","22","54","1260.074301","inverse","3","1","2","¿Cuál es la temperatura 
media anual en Montevideo? ","17.5","16.3",,"0","0","1","competitive","left","1.88533210754","1261.95970297","3.11466789246","1265.26505685","3.38556790352","1268.65068197","2.61443209648","1271.31643391","1273.25503397","1273.33416796","1276.33717084","0","1276.35141993","1282.92095494",
"sujeto_9d7bb9e1","1","2","23","55","1283.08688903","direct","2","1","2","¿En qué año se estrenó el
 videojuego The Sims? ","2000","2002",,"0","0","0","competitive","right","1.72886610031","1284.815799","3.27113389969","1288.25920391","4.68649196625","1292.94575095","1.31350803375","1294.3097899","1296.171772","1296.24305487","1299.245996","0","1299.26156998","1306.65520692",
"sujeto_9d7bb9e1","1","2","24","56","1306.79638886","inverse","2","1","1","¿Cuál es la canción con 
mas covers? ","Yesterday","Stand by me",,"0","0","0","competitive","left","2.37248206139","1309.16891503","2.62751793861","1311.95251703","3.27738714218","1315.22996497","2.72261285782","1318.00704598","1319.40565085","1319.49149203","1322.49447894","0","1322.50921297","1326.68002796",
"sujeto_9d7bb9e1","1","2","25","57","1326.8273499","direct","1","1","4","¿Cuánto duró la guerra
 de los 100 años?","116","123",,"0","0","0","competitive","right","0.898248910904","1327.72568798","4.1017510891","1332.0168519","2.9382019043","1334.95509791","3.0617980957","1338.06744099","1339.54824495","1339.63495088","1342.63794994","0","1342.65239","1344.97219706",
"sujeto_9d7bb9e1","1","2","26","58","1345.12134194","inverse","4","1","4","¿Qué color tiene la  bandera de Brasil?","Amarillo","Naranja","left","0","0","1","competitive","left","0.997806072235","1346.11922193","4.00219392776","1350.30604291","2.99810504913","1353.30421591","3.00189495087","1356.35787892","1357.92440987","1358.0096159","1361.0126009","1","1361.02781796","1364.06062698",
"sujeto_9d7bb9e1","1","2","27","59","1364.19660091","direct","4","1","3","¿Qué carabela de 
Colon no volvió del viaje?","Santa María","La pinta",,"0","0","1","competitive","left","1.43263792992","1365.62931299","3.56736207008","1369.38601589","4.29722189903","1373.68327999","1.70277810097","1375.43738103","1376.92843986","1377.00417686","1380.00715303","0","1380.02172995","1382.12118006",
"sujeto_9d7bb9e1","1","2","28","60","1382.27388096","inverse","4","1","4","¿Cuántos huesos tiene
 un adulto humano?","217","206",,"0","0","1","individual","right","1.85150885582","1384.12545085","3.14849114418","1387.44453096","3.16086912155","1390.60545397","2.83913087845","1393.47973084","1394.75077796","1394.79801393","1397.80098391","0","1397.81472898","1405.64948988",
"sujeto_9d7bb9e1","1","2","29","61","1405.80031991","direct","1","1","1","¿Qué país africano fue 
fundado por esclavos?","Liberia","Chad",,"0","0","0","competitive","left","0.782243013382","1406.58263493","4.21775698662","1410.955235","3.27836203575","1414.23363996","2.72163796425","1416.98971295","1418.98138094","1419.05796695","1422.06096697","0","1422.07586694","1430.06672001",
"sujeto_9d7bb9e1","1","2","30","62","1430.21035099","inverse","4","1","2","¿A cuánto asciende la cima
 del monte Everest?","7.990 mts","8.848 mts",,"0","0","1","competitive","right","1.50436115265","1431.71477389","3.49563884735","1435.38750601","3.46522402763","1438.852772","2.53477597237","1441.43769383","1442.622576","1442.70589685","1445.70884395","0","1445.72339606","1452.90745187",
"sujeto_9d7bb9e1","1","2","31","63","1453.05771399","direct","4","1","1","¿Cuál es el país mas chico?","Sealand","Luxemburgo",,"1","1","1","competitive","left","1.15648508072","1454.21424198","3.84351491928","1458.23061204","3.77932214737","1462.00999904","2.22067785263","1464.26495385","1466.12845087","1466.21613693","1469.2173059","1","1469.233922","1472.35622191",
"sujeto_9d7bb9e1","1","2","32","64","1472.50264096","inverse","2","1","4","¿Cuántas pirámides hay en Egipto?","10000","11000",,"1","1","1","competitive","right","1.12736177444","1473.63007092","3.87263822556","1477.65954089","3.22750401497","1480.88708496","2.77249598503","1483.69303489","1484.72663784","1484.81124187","1487.81419206","1","1487.82778001","1492.93688393",
"sujeto_9d7bb9e1","1","3","1","65","1729.85426998","direct","2","1","2","¿Cuál es el quinto país con 
mas extensión?","Canadá","Brasil",,"1","1","0","competitive","right","1.60554409027","1731.45985794","3.39445590973","1735.02721405","3.40465688705","1738.43192697","2.59534311295","1741.07774997","1742.41104889","1742.49576497","1745.49874187","1","1745.51224685","1753.23863196","1492.95193005"
"sujeto_9d7bb9e1","1","3","2","66","1753.380584","inverse","1","1","2","¿Qué rasgo facial no tiene
 la Mona Lisa?","Cejas","Pómulos",,"0","0","1","competitive","left","1.20946717262","1754.59011602","3.79053282738","1758.53856993","2.97851681709","1761.51716089","3.02148318291","1764.58935785","1766.33979702","1766.42428899","1769.42728901","0","1769.44178891","1775.71310186",
"sujeto_9d7bb9e1","1","3","3","67","1775.85885096","direct","4","1","3","¿Cuál es el país con 
mayor población?","Esados Unidos","China","right","0","0","1","competitive","right","1.74632978439","1777.60522604","3.25367021561","1781.01746202","1.80375218391","1782.8212719","4.19624781609","1787.06655288","1788.71255994","1788.78622985","1791.78915596","1","1791.80351806","1795.17085505",
"sujeto_9d7bb9e1","1","3","4","68","1795.30541706","inverse","1","1","1","La palabra dinosaurio significa","Lagarto Terrible","Lagarto Dragón",,"1","1","0","competitive","left","1.68292808533","1796.98838902","3.31707191467","1800.45966101","3.95574212074","1804.41544199","2.04425787926","1806.51080894","1807.68117094","1807.76118398","1810.76418591","1","1810.77863693","1813.64042497",
"sujeto_9d7bb9e1","1","3","5","69","1813.78064489","direct","2","1","3","¿Qué es el membrillero?","Arbol","Arbusto",,"0","0","0","competitive","left","1.62180304527","1815.40249085","3.37819695473","1818.93669605","2.89279413223","1821.82955003","3.10720586777","1824.98692298","1826.94105291","1827.02250099","1830.02543497","0","1830.0407939","1836.50482392",
"sujeto_9d7bb9e1","1","3","6","70","1836.64105701","inverse","3","1","3","¿Alrededor de qué planeta orbita 
el satélite Europa?","Jupiter","Saturno",,"1","1","1","competitive","right","1.16758108139","1837.80868697","3.83241891861","1841.79949999","4.24524116516","1846.044801","1.75475883484","1847.85012984","1849.39419699","1849.46788192","1852.47081304","1","1852.4852519","1854.69043088",
"sujeto_9d7bb9e1","1","3","7","71","1854.83723092","direct","3","1","1","¿Donde fue el mundial de 
fútbol de 1954?","Suiza","Suecia",,"1","1","1","competitive","left","0.632676839828","1855.46998","4.36732316017","1860.00593901","3.03095602989","1863.03695393","2.96904397011","1866.05769491","1867.31031585","1867.39345503","1870.39628601","1","1870.41060305","1874.32237792",
"sujeto_9d7bb9e1","1","3","8","72","1874.46152186","inverse","1","1","4","¿Cuál de los 7 enanitos
no tenía barba?","Bashful","Mudito",,"1","1","0","competitive","right","1.1108109951","1875.57238102","3.8891890049","1879.61931586","3.28685498238","1882.9062109","2.71314501762","1885.66996503","1887.25009584","1887.33769798","1890.34068489","1","1890.35397792","1895.28308201",
"sujeto_9d7bb9e1","1","3","9","73","1895.4213419","direct","3","1","2","¿Cual red social es
mas utilizada mundialmente?","Instagram","Facebook",,"1","1","0","competitive","right","0.942945957184","1896.36433291","4.05705404282","1900.595927","2.76846814156","1903.36445498","3.23153185844","1906.64703584","1908.56424189","1908.64854193","1911.65153885","1","1911.66630793","1914.60081291",
"sujeto_9d7bb9e1","1","3","10","74","1914.73395705","inverse","4","1","1","¿Cuándo se inició la copa
 América de fútbol?","1916","1923",,"1","1","1","competitive","left","1.33056902885","1916.06459188","3.66943097115","1919.88838291","3.21218490601","1923.10061193","2.78781509399","1925.92340398","1927.82087588","1927.90883493","1930.91181588","1","1930.92609096","1933.582232",
"sujeto_9d7bb9e1","1","3","11","75","1933.72793603","direct","3","1","4","¿Cuántos presidentes de EEUU
han muerto asesinados?","3","4",,"0","0","1","competitive","left","2.05880308151","1935.78678393","2.94119691849","1938.88276792","2.48998689651","1941.3728199","3.51001310349","1944.93364501","1946.41761088","1946.50272083","1949.505687","0","1949.52023292","1953.16435385",
"sujeto_9d7bb9e1","1","3","12","76","1953.32159901","inverse","2","1","4","¿Cuántas veces participó EEUU
 en la copa América?","4","5",,"0","0","1","competitive","left","1.85830211639","1955.17996502","3.14169788361","1958.51083183","2.95015597343","1961.46105194","3.04984402657","1964.56145501","1966.0055759","1966.07957292","1969.08255506","0","1969.09720588","1975.21434784",
"sujeto_9d7bb9e1","1","3","13","77","1975.36549306","direct","4","1","1","¿Cuál de estos países 
no formaba la URSS?","Azeribayán","Afganistán",,"0","0","1","competitive","right","2.14464902878","1977.51020002","2.85535097122","1980.52175093","4.23434400558","1984.756181","1.76565599442","1986.57353401","1987.88659286","1987.95762801","1990.96058583","0","1990.97490788","1998.95619297",
"sujeto_9d7bb9e1","1","3","14","78","1999.09335089","inverse","1","1","1","¿En qué año se inauguró
 el teatro Solís?","1867","1856",,"0","0","0","competitive","left","0.929003000259","2000.02239585","4.07099699974","2004.24982095","3.366574049","2007.61643386","2.633425951","2010.30044293","2011.35675097","2011.43337989","2014.43621898","0","2014.45068002","2021.09843206",
"sujeto_9d7bb9e1","1","3","15","79","2021.23600292","direct","1","1","4","¿A qué velocidad vuela 
el avión más rápido?","3529","3874",,"0","0","0","competitive","right","2.53455996513","2023.77060604","2.46544003487","2026.40895605","3.4476480484","2029.85664105","2.5523519516","2032.44746304","2034.20297289","2034.282094","2037.285079","0","2037.29958987","2039.4098289",
"sujeto_9d7bb9e1","1","3","16","80","2039.550771","inverse","3","1","4","¿De qué año es la primer 
película cinematográfica?","1897","1888",,"0","0","0","competitive","right","1.44997000694","2041.00080085","3.55002999306","2044.72221398","3.5386300087","2048.26090193","2.4613699913","2050.77303195","2051.90602303","2051.99093199","2054.99388003","0","2055.00863385","2060.41841102",
"sujeto_9d7bb9e1","1","3","17","81","2060.5596509","direct","2","1","3","¿Cuántos países 
tiene nuestro planeta?","191","194",,"1","1","1","competitive","right","2.14635705948","2062.70607305","2.85364294052","2065.71389103","4.64013195038","2070.35406184","1.35986804962","2071.76792789","2073.12516093","2073.20214701","2076.20517087","1","2076.21938801","2079.45729399",
"sujeto_9d7bb9e1","1","3","18","82","2079.60469985","inverse","2","1","2","¿Cuántos habitantes
 tiene Buenos Aires?","2.9000.000","3650000",,"0","0","0","competitive","left","1.7404820919","2081.34522605","3.2595179081","2084.75815296","2.60199594498","2087.36019897","3.39800405502","2090.80844784","2092.20571184","2092.27737403","2095.28034496","0","2095.294909","2101.12423587",
"sujeto_9d7bb9e1","1","3","19","83","2101.26324105","direct","2","1","1","¿Cuántos kilos forman una tonelada?","1000","1500","left","1","1","1","competitive","left","1.48510599136","2102.74838996","3.51489400864","2106.42077398","3.31054902077","2109.73136187","2.68945097923","2112.45514202","2114.34251499","2114.423316","2117.42631006","1","2117.44087791","2123.39438391",
"sujeto_9d7bb9e1","1","3","20","84","2123.54260492","inverse","4","1","4","¿Cuántos estados tiene la 
República del Perú? ","24","23",,"0","0","1","competitive","right","1.2089548111","2124.75162387","3.7910451889","2128.71596694","2.72269797325","2131.43873096","3.27730202675","2134.76626396","2135.78845906","2135.86806798","2138.871068","0","2138.88571","2143.83102298",
"sujeto_9d7bb9e1","1","3","21","85","2143.96975398","direct","3","1","3","¿En qué año nació Cristóbal Colón? ","1451","1447",,"0","0","1","competitive","left","1.02498316765","2144.99478197","3.97501683235","2149.12663889","2.84718799591","2151.9738729","3.15281200409","2155.16041684","2157.00633693","2157.07848787","2160.08147383","0","2160.09677386","2164.32475901",
"sujeto_9d7bb9e1","1","3","22","86","2164.46453285","inverse","4","1","4","¿Cuánto mide la 
Montaña Aconcagua? ","6234","6962",,"0","0","1","competitive","right","0.829418897629","2165.29401493","4.17058110237","2169.61824298","3.73075699806","2173.34904504","2.26924300194","2175.65403199","2176.94339705","2177.0222919","2180.02528095","0","2180.03969002","2187.22334385",
"sujeto_9d7bb9e1","1","3","23","87","2187.37422895","direct","2","1","4","¿Cuánto mide el punto
 más profundo del océano? ","12508","11003",,"0","0","1","competitive","left","1.72800207138","2189.10230899","3.27199792862","2192.53243995","3.54381108284","2196.07631087","2.45618891716","2198.56664395","2199.81808901","2199.90144801","2202.90439892","0","2202.91914105","2207.12538195",
"sujeto_9d7bb9e1","1","3","24","88","2207.25316596","inverse","1","1","3","¿Cuántos álbumes ha publicado 
el cantante Jaime Roos? ","41","34",,"0","0","1","competitive","right","2.54724907875","2209.80046296","2.45275092125","2212.40852499","3.13791799545","2215.54648304","2.86208200455","2218.46086287","2219.95067286","2220.02965283","2223.03258896","0","2223.04607987","2229.24128699",
"sujeto_9d7bb9e1","1","3","25","89","2229.39832187","direct","4","1","3","¿En qué año nació el 
ex-presidente Jorge Battle? ","1921","1927",,"1","1","1","competitive","left","1.05227398872","2230.4506669","3.94772601128","2234.57144403","3.46616601944","2238.03766894","2.53383398056","2240.62199497","2242.35267305","2242.44042683","2245.44343901","1","2245.45792198","2248.94392586",
"sujeto_9d7bb9e1","1","3","26","90","2249.09228706","inverse","1","1","3","¿Cuántas presidencias 
constitucionales  hubo en Uruguay? ","41","42",,"0","0","1","competitive","right","0.973353862762","2250.06570005","4.02664613724","2254.26063704","4.37617206573","2258.63684893","1.62382793427","2260.29655004","2261.50028491","2261.58062601","2264.58364201","0","2264.59836483","2270.38198996",
"sujeto_9d7bb9e1","1","3","27","91","2270.51588702","direct","1","1","2","¿Quién escribió mas sinfonías?","Mozart","Haydn",,"1","1","0","competitive","left","1.17410993576","2271.69006205","3.82589006424","2275.67644691","2.38955593109","2278.06606388","3.61044406891","2281.72697186","2282.94421792","2283.02806592","2286.03036499","1","2286.04596901","2289.79739189",
"sujeto_9d7bb9e1","1","3","28","92","2289.93065286","inverse","4","1","2","¿En qué año nació Michael Jackson?","1958","1953",,"1","1","1","competitive","right","1.08354902267","2291.01427794","3.91645097733","2295.10317206","3.03401994705","2298.137254","2.96598005295","2301.15342784","2303.13167286","2303.2217319","2306.22471905","1","2306.2393539","2312.10166192",
"sujeto_9d7bb9e1","1","3","29","93","2312.25936294","direct","3","1","2","¿En qué año entró en vigencia 
la ley antitabaco en Uruguay?","2005","2006",,"1","1","1","competitive","right","1.06196403503","2313.32138991","3.93803596497","2317.41501188","3.86343097687","2321.27848196","2.13656902313","2323.46574092","2325.060467","2325.13388205","2328.13682485","1","2328.15122604","2333.48525095",
"sujeto_9d7bb9e1","1","3","30","94","2333.61978889","inverse","3","1","1","¿Cuándo se subió el 
primer video a youtube?","2004","2005",,"0","0","1","competitive","left","0.987807035446","2334.60767102","4.01219296455","2338.79080486","3.14978098869","2341.94062996","2.85021901131","2344.84251595","2346.14818883","2346.22677898","2349.22976398","0","2349.24443197","2357.00005984",
"sujeto_9d7bb9e1","1","3","31","95","2357.145262","direct","2","1","1","¿Cuántos habitantes tiene India?","1200 millones","1300 millones",,"0","0","0","competitive","right","1.1775021553","2358.32282495","3.8224978447","2362.30548191","2.48326897621","2364.78880596","3.51673102379","2368.35537696","2370.32501101","2370.40778589","2373.40928602","0","2373.42496991","2379.47249293",
"sujeto_9d7bb9e1","1","3","32","96","2379.60991693","inverse","4","1","2","¿A qué edad murió Bob Marley?","36","37",,"0","0","1","competitive","right","2.48307394981","2382.09303498","2.51692605019","2384.78282595","2.58113217354","2387.36401486","3.41886782646","2390.81717992","2392.7149899","2392.80285788","2395.80587697","0","2395.82055497","2398.92297006",
"sujeto_9d7bb9e1","1","4","1","97","2579.71610904","direct","2","1","1","¿Cuantos años dirigió la selección 
uruguaya Tabarez?","15 años","13 años",,"0","0","0","competitive","left","1.19865298271","2580.91482186","3.80134701729","2584.87207985","2.67771792412","2587.54986191","3.32228207588","2590.921875","2592.11303592","2592.19108105","2595.19408798","0","2595.20776987","2602.27652001","2398.93831301"
"sujeto_9d7bb9e1","1","4","2","98","2602.42599702","inverse","4","1","1","¿Cuantas teclas tiene un teclado 
de computadora generalmente? ","Entre 99 y 108","Entre 109 y 113",,"1","1","1","competitive","left","0.968974113464","2603.39504385","4.03102588654","2607.59950304","4.10553312302","2611.70509601","1.89446687698","2613.65120506","2614.65389395","2614.73567891","2617.73868084","1","2617.75209594","2620.1235559",
"sujeto_9d7bb9e1","1","4","3","99","2620.27052593","direct","1","1","1","¿Cuál Departamento tiene
 mayor superficie?","Río Negro","Soriano",,"0","0","0","competitive","left","0.806563854218","2621.07719398","4.19343614578","2625.44147491","3.3957028389","2628.83723783","2.6042971611","2631.49271297","2633.20615292","2633.27764893","2636.28063297","0","2636.29499793","2640.62109184",
"sujeto_9d7bb9e1","1","4","4","100","2640.76363206","inverse","3","1","2","¿Cuál es el apellido de las 
hermanastras  de  cenicienta?","Tremaine","Truman",,"0","0","1","competitive","left","0.910727024078","2641.67450786","4.08927297592","2645.93692398","3.46141719818","2649.39838386","2.53858280182","2651.98708797","2653.856637","2653.9389019","2656.94188786","0","2656.95650005","2659.65245605",
"sujeto_9d7bb9e1","1","4","5","101","2659.80820394","direct","4","1","4","¿Cuál película ganó un
 Oscar a mejor película?","Alto Impacto","Cache",,"0","0","1","competitive","left","0.70231294632","2660.51056194","4.29768705368","2664.9800539","2.82747197151","2667.80758286","3.17252802849","2671.04600692","2672.16536784","2672.24670601","2675.24969196","0","2675.26412702","2677.52875686",
"sujeto_9d7bb9e1","1","4","6","102","2677.66497993","inverse","1","1","3","¿A cuántos centímetros
equivale la medida pié?","25","30",,"0","0","1","competitive","left","1.02197003365","2678.68702793","3.97802996635","2682.83826995","4.11544489861","2686.95377493","1.88455510139","2688.89038396","2689.93041587","2690.00847483","2693.01145101","0","2693.02579498","2698.42670083",
"sujeto_9d7bb9e1","1","4","7","103","2698.57688403","direct","2","1","2","¿Qué departamento es mas grande?","Cerro Largo","Paysandú",,"0","0","0","competitive","left","1.23940610886","2699.81635284","3.76059389114","2703.733356","4.18546915054","2707.91886592","1.81453084946","2709.78484797","2711.38461494","2711.46923089","2714.47219205","0","2714.48677802","2718.59675002",
"sujeto_9d7bb9e1","1","4","8","104","2718.7381649","inverse","2","1","3","¿Quién pintó la Mona Lisa?","Picasso","Da Vinci","right","0","0","1","competitive","right","1.34380698204","2720.08201289","3.65619301796","2723.89452887","2.03650593758","2725.93107295","3.96349406242","2729.94649291","2731.55229783","2731.62932491","2734.63231087","1","2734.64693999","2736.80927587",
"sujeto_9d7bb9e1","1","4","9","105","2736.94871402","direct","4","1","3","¿Cuántos litros hay en un galon?","3.54","3.78",,"1","1","1","competitive","right","0.893459796906","2737.84221888","4.10654020309","2742.103158","2.34405612946","2744.44727588","3.65594387054","2748.15408897","2749.6719749","2749.75589585","2752.75885487","1","2752.77322984","2758.5655899",
"sujeto_9d7bb9e1","1","4","10","106","2758.70875192","inverse","4","1","1","¿Cuántas teclas tiene
 un piano moderno?","80","88",,"0","0","1","competitive","right","0.777568817139","2759.48636293","4.22243118286","2763.86365485","3.50267505646","2767.36639786","2.49732494354","2769.91485691","2770.92327189","2770.99916506","2774.00217891","0","2774.01686597","2780.81459498",
"sujeto_9d7bb9e1","1","4","11","107","2780.98477292","direct","4","1","3","¿Cuántos países hay en África?","54","62",,"0","0","1","competitive","right","1.54873394966","2782.53355002","3.45126605034","2786.14338183","3.00920009613","2789.15262198","2.99079990387","2792.19182086","2793.88241792","2793.95959187","2796.96219206","0","2796.97683287","2804.78154993",
"sujeto_9d7bb9e1","1","4","12","108","2804.92855406","inverse","1","1","3","¿En qué siglo se crearon
 las primeras pistolas?","XV","XIII",,"1","1","1","competitive","right","2.03021407127","2806.95883393","2.96978592873","2810.09020495","3.53753304482","2813.62777591","2.46246695518","2816.14079499","2818.0886569","2818.17579293","2821.17876506","1","2821.19323087","2824.426337",
"sujeto_9d7bb9e1","1","4","13","109","2824.57831383","direct","3","1","4","¿En qué año se estrenó 
la serie friends?","1994","1995",,"0","0","1","competitive","right","0.946532011032","2825.52488685","4.05346798897","2829.73265791","4.36127185822","2834.09398985","1.63872814178","2835.76732588","2837.64270997","2837.71784902","2840.72081995","0","2840.73619986","2845.7392149",
"sujeto_9d7bb9e1","1","4","14","110","2845.87139702","inverse","3","1","4","¿En qué año nació Hitler?","1889","1887",,"0","0","1","competitive","right","2.1126639843","2847.98410606","2.8873360157","2851.02756095","2.29052686691","2853.31813288","3.70947313309","2857.07831001","2858.1926949","2858.28073096","2861.28370404","0","2861.29693294","2866.3239429",
"sujeto_9d7bb9e1","1","4","15","111","2866.4650979","direct","1","1","4","¿Cuánto pesa un elefante Africano?","6000 kilos","5400 kilos",,"0","0","0","competitive","right","1.46717691422","2867.93231988","3.53282308578","2871.62204289","3.13420987129","2874.75629091","2.86579012871","2877.67266703","2879.02859187","2879.10740304","2882.11038494","0","2882.12497306","2888.83204484",
"sujeto_9d7bb9e1","1","4","16","112","2888.97594094","inverse","1","1","2","¿Qué porcentaje de 
la población es zurda?","10%","7%",,"1","1","0","competitive","left","0.955456972122","2889.93147588","4.04454302788","2894.13356304","2.25893902779","2896.39254594","3.74106097221","2900.18347788","2901.42659092","2901.50271797","2904.50570297","1","2904.51937604","2910.49915695",
"sujeto_9d7bb9e1","1","4","17","113","2910.63748288","direct","1","1","2","¿En qué año se estrenó
Volver al futuro?","1984","1985",,"0","0","1","competitive","left","1.45911288261","2912.09665799","3.54088711739","2915.77820897","3.24643778801","2919.02468991","2.75356221199","2921.82808805","2923.38993287","2923.46295094","2926.46592188","0","2926.48121595","2933.57264185",
"sujeto_9d7bb9e1","1","4","18","114","2933.7153039","inverse","3","1","2","¿Cuántos jugadores hay en un 
equipo de baseball?","9","8",,"1","1","0","competitive","right","1.00547885895","2934.72083306","3.99452114105","2938.88883591","3.76300382614","2942.65190506","2.23699617386","2944.92439389","2946.53821898","2946.62537098","2949.62836599","1","2949.64293504","2954.62017894",
"sujeto_9d7bb9e1","1","4","19","115","2954.76077604","direct","2","1","1","¿Cuántos Oscar ganó
 la película titanic?","13","11",,"1","1","1","competitive","left","1.61329007149","2956.37410784","3.38670992851","2959.91765499","2.31933498383","2962.23703289","3.68066501617","2965.96777105","2967.26985788","2967.35326886","2970.35624385","1","2970.36897302","2974.97018099",
"sujeto_9d7bb9e1","1","4","20","116","2975.1356349","inverse","4","1","4","¿En qué año comenzó
la segunda guerra mundial?","1939","1976","left","0","0","1","competitive","left","0.797585964203","2975.93326688","4.2024140358","2980.29481006","3.38040804863","2983.67525792","2.61959195137","2986.34559989","2988.14542484","2988.23069096","2991.23368096","1","2991.24866104","2995.23520398",
"sujeto_9d7bb9e1","1","4","21","117","2995.38302588","direct","2","1","4","¿Cuántos biomas hay en Uruguay?","5","4",,"0","0","1","competitive","left","0.825301885605","2996.20837283","4.1746981144","3000.55551291","2.39687108994","3002.95244384","3.60312891006","3006.58871388","3008.38611102","3008.45709205","3011.46009302","0","3011.47540402","3017.72480583",
"sujeto_9d7bb9e1","1","4","22","118","3017.87654901","inverse","2","1","3","¿Cuándo murió Pablo Escobar?","1993","1997",,"1","1","1","competitive","right","1.09198117256","3018.96860385","3.90801882744","3023.03273392","2.7448527813","3025.77764487","3.2551472187","3029.06752801","3030.85038996","3030.93655896","3033.93952894","1","3033.953933","3039.65758085",
"sujeto_9d7bb9e1","1","4","23","119","3039.80517888","direct","1","1","4","¿Qué serie ha ganado mas premios?","Friends","Murphy Brown",,"1","1","0","competitive","left","1.03880500793","3040.84403491","3.96119499207","3045.01122785","2.87151384354","3047.88279986","3.12848615646","3051.06178689","3052.41420889","3052.49641299","3055.49937701","1","3055.51394987","3061.07557988",
"sujeto_9d7bb9e1","1","4","24","120","3061.23148489","inverse","4","1","2","¿Cuántas fichas tiene el dominó?","26","28",,"1","1","1","competitive","right","1.50738191605","3062.73892999","3.49261808395","3066.38987684","2.11808586121","3068.50802088","3.88191413879","3072.43976903","3073.49509788","3073.57523799","3076.57823491","1","3076.59282398","3081.83590984",
"sujeto_9d7bb9e1","1","4","25","121","3081.97765899","direct","2","1","4","¿Cuántos son los dientes de leche?","20","25",,"0","0","1","competitive","right","1.26038694382","3083.23809099","3.73961305618","3087.15089798","3.8772752285","3091.02823305","2.1227247715","3093.18575597","3094.89611506","3094.97034383","3097.97333384","0","3097.98785496","3100.13357091",
"sujeto_9d7bb9e1","1","4","26","122","3100.27185798","inverse","3","1","3","¿Cuántos gramos son una onza?","22","28",,"0","0","1","competitive","left","1.06138801575","3101.33329201","3.93861198425","3105.42445397","2.34878802299","3107.77328086","3.65121197701","3111.46008205","3113.4549849","3113.52797198","3116.53097391","0","3116.54566789","3122.83593106",
"sujeto_9d7bb9e1","1","4","27","123","3122.98079705","direct","3","1","1","¿Cuándo salió el primer album
 de los Beatles?","1963","1962",,"1","1","1","competitive","right","1.40765309334","3124.38851404","3.59234690666","3128.13959599","2.7788169384","3130.91847491","3.2211830616","3134.18928695","3135.35292697","3135.42408204","3138.42709088","1","3138.44165587","3142.2136929",
"sujeto_9d7bb9e1","1","4","28","124","3142.36020398","inverse","3","1","3","¿Quién fundó la empresa apple?","Carlos Slim","Steve Jobs",,"1","1","1","competitive","right","2.69838094711","3145.05862904","2.30161905289","3147.53213096","2.1174788475","3149.64965105","3.8825211525","3153.58272099","3154.69745898","3154.76841497","3157.77143097","1","3157.78524184","3164.08309293",
"sujeto_9d7bb9e1","1","4","29","125","3164.22046685","direct","4","1","2","¿Cuántos municipios hay
 en Montevideo?","8","7",,"1","1","1","competitive","left","1.99527597427","3166.21580696","3.00472402573","3169.3780179","2.50681495667","3171.88489199","3.49318504333","3175.42856789","3177.34322906","3177.43000603","3180.43295002","1","3180.44738483","3182.52856302",
"sujeto_9d7bb9e1","1","4","30","126","3182.66638994","inverse","1","1","1","¿Cuántos kilómetros hay
 de Montevideo a Artigas?","632","599",,"0","0","0","competitive","left","1.91053318977","3184.57701802","3.08946681023","3187.83610702","3.35082411766","3191.18697095","2.64917588234","3193.886693","3195.36982489","3195.45476484","3198.45776105","0","3198.47225499","3204.52437806",
"sujeto_9d7bb9e1","1","4","31","127","3204.67384195","direct","2","1","2","¿En qué año nació 
Leonardo Da Vinci?","1452","1511",,"1","1","0","competitive","left","0.725202798843","3205.39908886","4.27479720116","3209.84110785","2.499958992","3212.34113789","3.500041008","3215.87640595","3217.72999787","3217.81204104","3220.81499887","1","3220.82965684","3223.97607493",
"sujeto_9d7bb9e1","1","4","32","128","3224.11403704","inverse","3","1","1","¿A qué continente
 pertenece el país Gabón?","Africa","Oceanía",,"0","0","1","competitive","right","1.41121697426","3225.52532101","3.58878302574","3229.29190898","2.85632514954","3232.14828897","3.14367485046","3235.34292889","3237.15460801","3237.2277","3240.23067498","0","3240.24504089","3245.48293591",
