"code","nro_aplicante","nro_bloque","nro_trial_bloque","nro_trial_global","show_game_type","choice_order","rival","pay_individual","pay_competitive","question","answer_left_text","answer_right_text","correct_answer","outcome_individual","outcome_competitive","outcome_rival","game_type","answer","social_time","rt_game_type","feedback_delay","show_question","answer_time","rt_answer_global","feedback_delay_2","show_jitter","jitter_time","show_outcome","outcome_time","outcome_participant_real","show_final_jitter","second_jitter_time","inicio_descanso"
"sujeto_0005719","1","1","1","1","722.148799896","direct","3","1","4","¿Cuántos centímetros corresponden
al talle 36 del calzado?","23","24","","0","0","1","competitive","left","2.58674883842","724.735643864","2.41325116158","727.31922698","4.19731593132","731.516584873","1.80268406868","733.354635954","734.382921934","734.45520997","737.457589865","0","737.472666979","739.635203838",""
"sujeto_0005719","1","1","2","2","739.790544987","inverse","3","1","2","¿Cuántas metros mide la Intendencia
Municipal de Montevideo? ","84","78","","0","0","1","competitive","right","2.34193110466","742.132519007","2.65806889534","744.945063829","3.69344091415","748.638563871","2.30655908585","750.980258942","752.857545853","752.93127799","755.934262037","0","755.949221849","758.041975021",""
"sujeto_0005719","1","1","3","3","758.183675051","direct","1","1","3","¿Cuántas La Pasiva
 hay en uruguay?","15","11","","1","1","1","competitive","left","2.83383202553","761.017571926","2.16616797447","763.355051041","3.19748997688","766.55257988","2.80251002312","769.389091015","771.000735044","771.073660851","774.076634884","1","774.092037916","778.370350838",""
"sujeto_0005719","1","1","4","4","778.509750843","inverse","3","1","3","¿De que color es la camiseta de uruguay?","blanca","celeste","right","1","1","1","competitive","right","1.46679496765","779.976593971","3.53320503235","783.665737867","3.35873985291","787.024516821","2.64126014709","789.699664831","790.904399872","790.984336853","793.987300873","1","794.001132965","797.455050945",""
"sujeto_0005719","1","1","5","5","797.585950851","direct","2","1","1","¿Cuánto metros mide
la torre Eiffel?","333","324","","1","1","1","competitive","right","1.86965107918","799.455651999","3.13034892082","802.776011944","3.82957196236","806.605644941","2.17042803764","808.809279919","810.33066082","810.410663843","813.413537025","1","813.42851305","820.461545944",""
"sujeto_0005719","1","1","6","6","820.59641099","inverse","3","1","4","¿Cuantas ciudades existen
 en todo el uruguay?","63","72","","0","0","1","competitive","right","1.5261490345","822.12261796","3.4738509655","825.737429857","3.26812791824","829.00562501","2.73187208176","831.788174868","832.842995882","832.922580957","835.925513983","0","835.939923048","843.56554389",""
"sujeto_0005719","1","1","7","7","843.707751036","direct","1","1","1","¿Cuantos estados tiene África?","52","54","","1","1","0","competitive","right","1.96584010124","845.673631907","3.03415989876","848.864361048","2.80423903465","851.668639898","3.19576096535","854.916717052","856.780721903","856.85145402","859.854400873","1","859.868645906","865.629667044",""
"sujeto_0005719","1","1","8","8","865.770473003","inverse","4","1","4","¿En qué año nació
 Stephen Hawking?","1952","1942","","0","0","1","competitive","left","2.28413200378","868.05467391","2.71586799622","870.926408052","2.94821405411","873.874683857","3.05178594589","876.961385012","878.405571938","878.479760885","881.482725859","0","881.497339964","887.596704006",""
"sujeto_0005719","1","1","9","9","887.73149395","direct","2","1","3","¿Cuánto años tenía Artigas
 cuando se fue a Paraguay?","56","57","","1","1","1","competitive","left","2.09013485909","889.821696997","2.90986514091","892.886353016","3.54029011726","896.426704884","2.45970988274","898.937618971","900.487110853","900.572060823","903.57504487","1","903.589171886","909.636456013",""
"sujeto_0005719","1","1","10","10","909.774276972","inverse","1","1","2","¿Cuantos milímetros 
mide una hoja A2?","420x592","420x594","","0","0","1","competitive","left","1.54039406776","911.314738989","3.45960593224","914.915143967","5.44248008728","920.357683897","0.55751991272","920.951709032","922.520112038","922.601977825","925.604951859","0","925.618886948","932.692489862",""
"sujeto_0005719","1","1","11","11","932.83719492","direct","3","1","3","¿Cuál es la menor temperatura 
registrada en Uruguay?","-5.4","-7.4","","0","0","1","competitive","left","1.43247103691","934.269709826","3.56752896309","937.995635033","3.6090490818","941.604749918","2.3909509182","944.028602839","945.710639954","945.780386925","948.783372879","0","948.797570944","952.529574871",""
"sujeto_0005719","1","1","12","12","952.666782856","inverse","2","1","2","¿Cuantos años hace que 
se fundó facebook?","18","17","","0","0","0","competitive","left","1.17994499207","953.846781969","3.82005500793","957.822341919","3.34728503227","961.169667959","2.65271496773","963.872148037","965.244885921","965.324206829","968.325566053","0","968.341122866","971.115753889",""
"sujeto_0005719","1","1","13","13","971.242707968","direct","1","1","4","¿Cuál animal es más
 pesado en promedio?","Rinoceronte","Hipopotamo","","0","0","0","competitive","right","1.73095703125","972.973709822","3.26904296875","976.448617935","4.62204384804","981.070729017","1.37795615196","982.499161005","983.578395844","983.650007963","986.652987003","0","986.666944981","990.507942915",""
"sujeto_0005719","1","1","14","14","990.635170937","inverse","1","1","2","¿Qué personaje de dragon ball 
murió más veces?","Chaoz","Krillin","","1","1","0","competitive","left","1.42344212532","992.058681011","3.57655787468","995.774736881","4.41984605789","1000.19462585","1.58015394211","1001.82627702","1003.28409195","1003.3606739","1006.36363697","1","1006.37776494","1014.1506989",""
"sujeto_0005719","1","1","15","15","1014.29519486","direct","3","1","2","La universidad de oxford. 
existe desde:","1096","1249","","1","1","0","competitive","right","2.34147191048","1016.63670993","2.65852808952","1019.45061803","3.86504507065","1023.31570387","2.13495492935","1025.48796988","1026.53674603","1026.60552001","1029.60848904","1","1029.62275791","1036.31356192",""
"sujeto_0005719","1","1","16","16","1036.44151902","inverse","3","1","1","¿Qué escritor latino ganó antes
 el premio nobel?"," García Marquez","Neruda","","0","0","1","competitive","left","1.34913396835","1037.79072785","3.65086603165","1041.59867883","5.60491204262","1047.20364785","0.395087957382","1047.63331294","1049.37332082","1049.45046282","1052.45343804","0","1052.46754503","1055.92806697",""
"sujeto_0005719","1","1","17","17","1056.06869483","direct","4","1","3","¿Cuántos dientes tiene un
 tiburón blanco?","6000","3000","","0","0","1","competitive","right","1.22498512268","1057.29374099","3.77501487732","1061.24151182","4.09013009071","1065.33167982","1.90986990929","1067.29333782","1068.33235097","1068.41021395","1071.41317797","0","1071.4282639","1076.23790193",""
"sujeto_0005719","1","1","18","18","1076.37947392","inverse","4","1","1","¿Cuánto mide el paralelo Ecuador?","40.000km","70.000km","","0","0","1","competitive","right","1.34819102287","1077.72770691","3.65180897713","1081.53243184","4.63024997711","1086.1627419","1.36975002289","1087.56857204","1089.52465105","1089.60217786","1092.60513401","0","1092.62058091","1096.22156",""
"sujeto_0005719","1","1","19","19","1096.354913","direct","4","1","2","¿Cuál fue el primer libro 
de Stephen King?","Carrie","The Stand","","1","1","1","competitive","right","2.66875815392","1099.02371383","2.33124184608","1101.54293203","3.54771113396","1105.09069991","2.45228886604","1107.58049297","1109.32455683","1109.39818001","1112.40114903","1","1112.41559601","1116.89003992",""
"sujeto_0005719","1","1","20","20","1117.01663995","inverse","2","1","3","¿Qué civilización practicaba
 la momificación?","Grecia","Egipto","right","0","0","1","competitive","right","2.16606998444","1119.18275189","2.83393001556","1122.17197704","5.1797349453","1127.35177183","0.820265054703","1128.20820284","1130.14750791","1130.22501493","1133.22799397","1","1133.24302292","1137.47181582",""
"sujeto_0005719","1","1","21","21","1137.6113379","direct","4","1","4","¿Cuántos millones de visitas
 recibe google por minuto?","3.0","4.5","","0","0","1","competitive","right","2.53843402863","1140.14985394","2.46156597137","1142.78218603","3.48156499863","1146.26379299","2.51843500137","1148.81807399","1150.33295202","1150.4027729","1153.405756","0","1153.419806","1160.54248905",""
"sujeto_0005719","1","1","22","22","1160.68791103","inverse","1","1","3","La máquina de fax. se inventó en:","1843","1960","","0","0","1","competitive","left","2.22080302238","1162.90877891","2.77919697762","1165.842623","5.18411397934","1171.02678084","0.81588602066","1171.89535403","1173.137501","1173.21243882","1176.21543789","0","1176.22948503","1179.46556687",""
"sujeto_0005719","1","1","23","23","1179.61467099","direct","2","1","4","En la verdadera historia de los
 300 espartanos. habían:","300 soldados","4300 soldados","","1","1","1","competitive","right","2.35403704643","1181.96876693","2.64596295357","1184.78782201","5.8219139576","1190.60977888","0.178086042404","1190.84059095","1192.10181189","1192.17390895","1195.17689204","1","1195.19137192","1198.99313283",""
"sujeto_0005719","1","1","24","24","1199.14328694","inverse","1","1","4","¿Cuántos milímetros crece
 el pelo por día?","0.4","0.04","","0","0","0","competitive","left","2.2904958725","1201.43382692","2.7095041275","1204.27971482","3.47408509254","1207.75383997","2.52591490746","1210.33325005","1212.09392786","1212.16752386","1215.17052484","0","1215.18558788","1221.92062783",""
"sujeto_0005719","1","1","25","25","1222.08650494","direct","4","1","1","¿Cuánto mide la baldosa gris 
clásica de Montevideo?","22x22 cm.","20x20 cm.","","1","1","1","individual","right","2.91827297211","1225.00486088","2.08172702789","1227.26059198","4.26820707321","1231.52883792","1.73179292679","1233.31184101","1235.30710196","1235.34635305","1238.3492949","1","1238.36438489","1243.905586",""
"sujeto_0005719","1","1","26","26","1244.04871893","inverse","2","1","2","¿Cuántas películas de rápidos
 y furiosos hay?","10","11","","1","1","0","competitive","right","2.60605192184","1246.65481782","2.39394807816","1249.20651603","2.66126513481","1251.86784387","3.33873486519","1255.25605202","1256.61356091","1256.69082403","1259.69380784","1","1259.70793986","1261.74261403",""
"sujeto_0005719","1","1","27","27","1261.87632585","direct","3","1","1","¿Cuántos masters 1000
 ganó Del Potro?","1","2","","1","1","1","individual","right","2.20048594475","1264.07685804","2.79951405525","1267.0319159","4.06584692001","1271.09782195","1.93415307999","1273.08173704","1274.83634186","1274.88330293","1277.8862679","1","1277.90065002","1285.29700184",""
"sujeto_0005719","1","1","28","28","1285.43608499","inverse","2","1","4","¿Cuántos meses dura el 
embarazo de una leona?","3 meses","4 meses","","0","0","1","competitive","right","2.10371017456","1287.53986597","2.89628982544","1290.60818791","4.27158784866","1294.87981582","1.72841215134","1296.66128683","1297.77237582","1297.845191","1300.84816504","0","1300.86213493","1307.58158898",""
"sujeto_0005719","1","1","29","29","1307.71434093","direct","1","1","1","¿En qué año fue creado
 el sandwich?","1762","1653","","1","1","0","individual","left","1.87146711349","1309.58585095","3.12853288651","1312.88855505","3.62825107574","1316.5168469","2.37174892426","1318.92221785","1320.52073383","1320.55658889","1323.55956292","1","1323.57471991","1327.04530096",""
"sujeto_0005719","1","1","30","30","1327.17535686","inverse","4","1","2","El nombre de la moneda de Vietnam es:","Dinar","Dong","","0","0","1","competitive","left","1.80351400375","1328.97893596","3.19648599625","1332.33156586","3.57623195648","1335.90784192","2.42376804352","1338.36579204","1339.79758692","1339.88351488","1342.886518","0","1342.90079904","1349.065588",""
"sujeto_0005719","1","1","31","31","1349.20275283","direct","2","1","1","¿cuantos aleteos puede dar 
un colibrí por segundo?","120","50","","0","0","0","individual","right","1.67909598351","1350.88188982","3.32090401649","1354.3594079","3.88840889931","1358.24787688","2.11159110069","1360.41081405","1362.14321494","1362.19492388","1365.19789505","0","1365.21241999","1369.42173886",""
"sujeto_0005719","1","1","32","32","1369.5641799","inverse","4","1","3","¿Qué altura promedio tienen
 los hombres uruguayos?","1.73 m","1.72 m","","1","1","1","competitive","left","2.46464896202","1372.02887702","2.53535103798","1374.735533","3.79131197929","1378.52691388","2.20868802071","1380.78800702","1382.05042887","1382.12160301","1385.12458801","1","1385.13967085","1389.61133695",""
"sujeto_0005719","1","2","1","33","1510.77124095","direct","1","1","1","¿En qué año nació 
el actor Bradd Pitt?","1967","1963","","1","1","1","individual","left","1.86066794395","1512.63195491","3.13933205605","1515.92587185","3.17601585388","1519.10195184","2.82398414612","1521.95959997","1523.05545402","1523.09444594","1526.09742594","1","1526.11144686","1532.03758883","1389.62656999"
"sujeto_0005719","1","2","2","34","1532.17997694","inverse","2","1","1","¿Cual es el segundo 
monte más alto?","Kanchenjunga","K2","","1","1","1","individual","left","2.21094512939","1534.39098287","2.78905487061","1537.35433483","4.3815870285","1541.73596597","1.6184129715","1543.40551305","1544.857584","1544.90595603","1547.90890384","1","1547.92351294","1551.35340905",""
"sujeto_0005719","1","2","3","35","1551.49131393","direct","3","1","1","¿Cuándo finalizó la construcción
 del Palacio Legislativo?","1925","1917","","0","0","1","individual","left","1.98163485527","1553.47299194","3.01836514473","1556.64472294","5.03415417671","1561.67892098","0.965845823288","1562.69795394","1564.33967185","1564.38179302","1567.38476086","0","1567.40014791","1573.09771705",""
"sujeto_0005719","1","2","4","36","1573.25119805","inverse","3","1","3","¿Cuántos integrantes tenía
 en su inicio  el cuarteto de nos?","3","4","","1","1","1","competitive","right","1.77076411247","1575.02200985","3.22923588753","1578.40805483","4.79581403732","1583.20390487","1.20418596268","1584.44267988","1585.57575893","1585.64305186","1588.64597797","1","1588.66118383","1594.31094599",""
"sujeto_0005719","1","2","5","37","1594.44537497","direct","2","1","3","¿Qué valor tiene el número pi?","3.14","4.18","left","0","0","1","competitive","left","2.39964008331","1596.84506583","2.60035991669","1599.59898782","2.64300704002","1602.24205589","3.35699295998","1605.65322685","1607.10745192","1607.188375","1610.18959188","1","1610.20568395","1617.12205791",""
"sujeto_0005719","1","2","6","38","1617.25634503","inverse","2","1","2","¿Cuál es la esperanza de vida
 en Uruguay?","75","77","","1","1","0","competitive","left","1.61858892441","1618.87497592","3.38141107559","1622.39728594","2.90073394775","1625.29808402","3.09926605225","1628.44571495","1630.0995059","1630.18039083","1633.1833539","1","1633.19865799","1639.66168594",""
"sujeto_0005719","1","2","7","39","1639.79962897","direct","1","1","2","¿Cuantos pisos tiene la torre 
de las comunicaciones?","26","32","","1","1","0","competitive","left","1.84832310677","1641.64801788","3.15167689323","1644.99149799","4.3104801178","1649.30202198","1.6895198822","1651.02716494","1652.85591197","1652.92823982","1655.93117094","1","1655.94510794","1658.09130001",""
"sujeto_0005719","1","2","8","40","1658.23075986","inverse","2","1","4","¿En qué país sudamericano 
no hay McDonalds?","Bolivia","Venezuela","","0","0","1","competitive","right","1.50720882416","1659.73803401","3.49279117584","1663.38544488","3.52152705193","1666.90701389","2.47847294807","1669.43611598","1670.74549103","1670.82021904","1673.82315397","0","1673.83828402","1680.19754195",""
"sujeto_0005719","1","2","9","41","1680.33936405","direct","3","1","1","¿En qué año empieza
 la Edad Media?","476","512","","1","1","1","individual","right","1.52460694313","1681.86403394","3.47539305687","1685.48027396","3.87074398994","1689.35107803","2.12925601006","1691.53087497","1692.93356991","1692.981709","1695.98469591","1","1695.99974489","1698.98825192",""
"sujeto_0005719","1","2","10","42","1699.13406396","inverse","3","1","4","¿Hace cuántos años surgió
 el ser humano?","200mil","300mil","","0","0","0","competitive","right","1.51992917061","1700.65405202","3.48007082939","1704.28618193","2.92883205414","1707.21507382","3.07116794586","1710.32079482","1712.20685196","1712.28990984","1715.29285598","0","1715.30695486","1718.61739898",""
"sujeto_0005719","1","2","11","43","1718.75943089","direct","3","1","4","¿Cuántas cuadras tiene
 actualmente 18 de julio? ","36","33","","0","0","1","competitive","left","3.08159685135","1721.84107995","1.91840314865","1723.932971","3.27805113792","1727.21108389","2.72194886208","1729.96742392","1731.6695919","1731.751513","1734.75449705","0","1734.76987696","1739.49616003",""
"sujeto_0005719","1","2","12","44","1739.62052703","inverse","1","1","4","¿Qué juego de equipo se 
considera mas rápido?","Lacrosse","Badminton","","0","0","0","competitive","right","1.69747900963","1741.31806993","3.30252099037","1744.77689385","5.32117009163","1750.09810591","0.678829908371","1750.82893896","1752.07203698","1752.14534187","1755.14831686","0","1755.16323304","1763.15838695",""
"sujeto_0005719","1","2","13","45","1763.2811079","direct","1","1","3","¿Qué promedio de edad 
vive una jirafa? ","25","20","","0","0","1","competitive","left","1.86697483063","1765.14815593","3.13302516937","1768.45439005","4.3126718998","1772.76710701","1.6873281002","1774.49038482","1776.25188303","1776.32440996","1779.32738686","0","1779.34238505","1785.29810095",""
"sujeto_0005719","1","2","14","46","1785.42652702","inverse","1","1","2","¿Cuántos grandes lagos hay?","7","5","","0","0","1","competitive","left","1.39454007149","1786.82113099","3.60545992851","1790.58050895","4.06657004356","1794.64714694","1.93342995644","1796.61596298","1797.90811992","1797.98391986","1800.98687887","0","1801.00104094","1808.82159901",""
"sujeto_0005719","1","2","15","47","1808.97006893","direct","3","1","2","¿Cuántos discos de estudio
 grabó Johhny Cash? ","54","43","","1","1","0","competitive","right","2.09800386429","1811.06814289","2.90199613571","1814.12853193","3.59254002571","1817.72113299","2.40745997429","1820.16358685","1821.44153285","1821.51508594","1824.51799989","1","1824.53235888","1831.18323493",""
"sujeto_0005719","1","2","16","48","1831.33404303","inverse","4","1","1","¿Cuántos barrios tiene
 Montevideo? ","71","62","","0","0","1","individual","right","1.95905399323","1833.29314184","3.04094600677","1836.49156785","2.16648006439","1838.65809298","3.83351993561","1842.54172587","1843.54885101","1843.59275198","1846.593575","0","1846.61091089","1852.07291794",""
"sujeto_0005719","1","2","17","49","1852.24523783","direct","3","1","3","¿Qué edad tiene Homero Simpson?","36","42","","0","0","1","competitive","right","1.92092990875","1854.16630387","3.07907009125","1857.40240288","2.29272985458","1859.69519305","3.70727014542","1863.43365884","1864.80970001","1864.88648701","1867.889498","0","1867.90369797","1872.29244804",""
"sujeto_0005719","1","2","18","50","1872.47193384","inverse","4","1","2","¿Cuántos países con monarquía 
hay en europa actualmente? ","6","10","","1","1","1","competitive","right","1.81419491768","1874.28619099","3.18580508232","1877.64239597","5.97870707512","1883.62116098","0.021292924881","1883.67908788","1885.11738992","1885.19630599","1888.19929385","1","1888.21557999","1894.37239599",""
"sujeto_0005719","1","2","19","51","1894.499367","direct","2","1","3","¿Cuántos capítulos de
 Friends existen? ","236","228","","1","1","1","competitive","right","2.49075698853","1896.99017286","2.50924301147","1899.65313005","3.0700340271","1902.72322583","2.9299659729","1905.70690203","1907.01246595","1907.09194088","1910.09492588","1","1910.11026597","1912.48590994",""
"sujeto_0005719","1","2","20","52","1912.62788892","inverse","1","1","3","¿Cuántas óperas compuso Mozart? ","27","22","","1","1","1","competitive","right","1.83327198029","1914.46122503","3.16672801971","1917.81646585","2.88157200813","1920.69807601","3.11842799187","1923.84979701","1925.14194202","1925.21825695","1928.22123694","1","1928.23544693","1935.54691982",""
"sujeto_0005719","1","2","21","53","1935.68738699","direct","4","1","3","¿Cuántos mundiales de fútbol 
femenino ha realizado FIFA? ","9","7","","1","1","1","competitive","left","1.71277117729","1937.40020204","3.28722882271","1940.84518886","4.58800292015","1945.4332509","1.41199707985","1946.89548397","1948.13919401","1948.21336102","1951.21633792","1","1951.23013496","1957.33259201",""
"sujeto_0005719","1","2","22","54","1957.48231792","inverse","3","1","2","¿Cuál es la temperatura 
media anual en Montevideo? ","17.5","16.3","","0","0","1","competitive","left","1.96485090256","1959.44723296","3.03514909744","1962.63565302","3.30445814133","1965.94017196","2.69554185867","1968.68820691","1970.62680387","1970.70614886","1973.70910788","0","1973.72432995","1980.293854",""
"sujeto_0005719","1","2","23","55","1980.44210291","direct","2","1","2","¿En qué año se estrenó el
 videojuego The Sims? ","2000","2002","","0","0","0","competitive","left","2.2251098156","1982.66727495","2.7748901844","1985.60064793","4.12654709816","1989.72723389","1.87345290184","1991.63530684","1993.49732184","1993.56923795","1996.56959105","0","1996.58821583","2003.98189998",""
"sujeto_0005719","1","2","24","56","2004.12267995","inverse","2","1","1","¿Cuál es la canción con 
mas covers? ","Yesterday","Stand by me","","0","0","0","individual","right","1.78449082375","2005.90723491","3.21550917625","2009.29657793","4.02358102798","2013.32019782","1.97641897202","2015.3483479","2016.74692488","2016.7989409","2019.80192494","0","2019.81646991","2023.987293",""
"sujeto_0005719","1","2","25","57","2024.13384604","direct","1","1","4","¿Cuánto duró la guerra
 de los 100 años?","116","123","","0","0","0","competitive","right","1.76933598518","2025.90322304","3.23066401482","2029.30721092","2.95899796486","2032.26626992","3.04100203514","2035.35730886","2036.8381269","2036.90877104","2039.91176391","0","2039.92684603","2042.24663782",""
"sujeto_0005719","1","2","26","58","2042.37720585","inverse","4","1","4","¿Qué color tiene la  bandera de Brasil?","Amarillo","Naranja","left","0","0","1","competitive","left","2.86098909378","2045.23825884","2.13901090622","2047.52966499","2.34249520302","2049.87220001","3.65750479698","2053.58326483","2055.14979887","2055.23548198","2058.23846197","1","2058.25256491","2061.28535295",""
"sujeto_0005719","1","2","27","59","2061.43708682","direct","4","1","3","¿Qué carabela de 
Colon no volvió del viaje?","Santa María","La pinta","","0","0","1","competitive","right","2.80060696602","2064.23778796","2.19939303398","2066.60982704","4.05332708359","2070.66319489","1.94667291641","2072.66109395","2074.15214086","2074.22783184","2077.23076105","0","2077.24620485","2079.34559083",""
"sujeto_0005719","1","2","28","60","2079.48027492","inverse","4","1","4","¿Cuántos huesos tiene
 un adulto humano?","217","206","","0","0","1","competitive","left","1.57692790031","2081.0572679","3.42307209969","2084.64949393","3.17870688438","2087.82826805","2.82129311562","2090.68392992","2091.95491099","2092.03525901","2095.03824592","0","2095.05342793","2102.89112782",""
"sujeto_0005719","1","2","29","61","2103.0370369","direct","1","1","1","¿Qué país africano fue 
fundado por esclavos?","Liberia","Chad","","0","0","0","individual","left","2.06022500992","2105.097332","2.93977499008","2108.19564986","2.96050906181","2111.15619802","3.03949093819","2114.22966194","2116.22131801","2116.26393104","2119.26688504","0","2119.28228283","2127.27311087",""
"sujeto_0005719","1","2","30","62","2127.41729784","inverse","4","1","2","¿A cuánto asciende la cima
 del monte Everest?","7.990 mts","8.848 mts","","0","0","1","competitive","left","1.46494197845","2128.88230801","3.53505802155","2132.57483792","3.25833082199","2135.83320785","2.74166917801","2138.609658","2139.79359794","2139.87796092","2142.88093901","0","2142.89509296","2150.07755589",""
"sujeto_0005719","1","2","31","63","2150.24693799","direct","4","1","1","¿Cuál es el país mas chico?","Sealand","Luxemburgo","","1","1","1","individual","left","1.53932499886","2151.7863059","3.46067500114","2155.40574789","2.96742606163","2158.37321091","3.03257393837","2161.45607495","2163.31960797","2163.35736299","2166.36032891","1","2166.37450385","2169.49679184",""
"sujeto_0005719","1","2","32","64","2169.62588692","inverse","2","1","4","¿Cuántas pirámides hay en Egipto?","10000","11000","","1","1","1","competitive","left","2.18940997124","2171.815341","2.81059002876","2174.78203702","2.97523212433","2177.75733185","3.02476787567","2180.83210397","2181.86571383","2181.9338789","2184.93685699","1","2184.95088601","2190.05997491",""
"sujeto_0005719","1","3","1","65","2299.93518686","direct","2","1","2","¿Cuál es el quinto país con 
mas extensión?","Canadá","Brasil","","1","1","0","competitive","right","2.80610394478","2302.74133587","2.19389605522","2305.09638691","3.70893788338","2308.80536699","2.29106211662","2311.15006089","2312.48330402","2312.55121684","2315.55419397","1","2315.56823802","2323.29462385","2190.075804"
"sujeto_0005719","1","3","2","66","2323.41981101","inverse","1","1","2","¿Qué rasgo facial no tiene
 la Mona Lisa?","Cejas","Pómulos","","0","0","1","competitive","left","1.70953202248","2325.12940884","3.29046797752","2328.57747889","5.44891691208","2334.02646995","0.551083087921","2334.62967896","2336.38010287","2336.46351194","2339.46649694","0","2339.48077703","2345.75211501",""
"sujeto_0005719","1","3","3","67","2345.88186193","direct","4","1","3","¿Cuál es el país con 
mayor población?","Esados Unidos","China","right","0","0","1","competitive","right","1.81649684906","2347.69842005","3.18350315094","2351.05439091","3.72787880898","2354.78232503","2.27212119102","2357.09023094","2358.73617482","2358.80795097","2361.80954504","1","2361.82594895","2365.19321799",""
"sujeto_0005719","1","3","4","68","2365.32691693","inverse","1","1","1","La palabra dinosaurio significa","Lagarto Terrible","Lagarto Dragón","","1","1","0","individual","","1.90246200562","2367.22947192","3.09753799438","2370.4994359","6","2376.49956584","0","2376.51654005","2377.68687582","2377.73509097","2380.73808694","0","2380.75222492","2383.61353993",""
"sujeto_0005719","1","3","5","69","2383.78705096","direct","2","1","3","¿Qué es el membrillero?","Arbol","Arbusto","","0","0","0","competitive","right","2.28336811066","2386.070467","2.71663188934","2388.93633699","3.06804609299","2392.00444388","2.93195390701","2394.97675204","2396.92954087","2397.01161098","2400.01354694","0","2400.02860594","2406.48953795",""
"sujeto_0005719","1","3","6","70","2406.61360693","inverse","3","1","3","¿Alrededor de qué planeta orbita 
el satélite Europa?","Jupiter","Saturno","","1","1","1","competitive","left","1.24475693703","2407.85843682","3.75524306297","2411.76980686","4.550552845","2416.32042003","1.449447155","2417.8216579","2419.3664279","2419.43948603","2422.44154382","1","2422.45704103","2424.66222405",""
"sujeto_0005719","1","3","7","71","2424.79128194","direct","3","1","1","¿Donde fue el mundial de 
fútbol de 1954?","Suiza","Suecia","","1","1","1","individual","left","1.48306083679","2426.27438784","3.51693916321","2429.94666195","4.17272686958","2434.11945105","1.82727313042","2435.99803185","2437.25066495","2437.29920387","2440.30218196","1","2440.31513906","2444.22690582",""
"sujeto_0005719","1","3","8","72","2444.38379383","inverse","1","1","4","¿Cuál de los 7 enanitos
no tenía barba?","Bashful","Mudito","","1","1","0","competitive","right","2.77960896492","2447.16346693","2.22039103508","2449.53956199","2.78572010994","2452.32531786","3.21427989006","2455.59102702","2457.17119503","2457.24246502","2460.24539685","1","2460.25932384","2465.18837094",""
"sujeto_0005719","1","3","9","73","2465.32810903","direct","3","1","2","¿Cual red social es
mas utilizada mundialmente?","Instagram","Facebook","","1","1","0","individual","left","0.212424039841","2465.5405879","4.78757596016","2470.48388982","3.17852711678","2473.66247797","2.82147288322","2476.51775789","2478.43515086","2478.4856689","2481.48865199","1","2481.50388098","2484.43757105",""
"sujeto_0005719","1","3","10","74","2484.57143402","inverse","4","1","1","¿Cuándo se inició la copa
 América de fútbol?","1916","1923","","1","1","1","competitive","right","1.48001813889","2486.05152988","3.51998186111","2489.74437094","3.58105397224","2493.32547498","2.41894602776","2495.79500699","2497.69246697","2497.76263094","2500.76561284","1","2500.78011799","2503.43623805",""
"sujeto_0005719","1","3","11","75","2503.58196783","direct","3","1","4","¿Cuántos presidentes de EEUU
han muerto asesinados?","3","4","","0","0","1","competitive","left","1.79744410515","2505.379457","3.20255589485","2508.75441694","3.07603406906","2511.8305099","2.92396593094","2514.78759384","2516.27153897","2516.35599685","2519.35897183","0","2519.37292385","2523.01702595",""
"sujeto_0005719","1","3","12","76","2523.15780091","inverse","2","1","4","¿Cuántas veces participó EEUU
 en la copa América?","4","5","","0","0","1","competitive","right","2.67264199257","2525.83051491","2.32735800743","2528.31430483","3.11713790894","2531.43148494","2.88286209106","2534.36422491","2535.80829","2535.88313985","2538.88613892","0","2538.90048885","2545.01766896",""
"sujeto_0005719","1","3","13","77","2545.15132689","direct","4","1","1","¿Cuál de estos países 
no formaba la URSS?","Azeribayán","Afganistán","","0","0","1","individual","right","2.20906305313","2547.36044788","2.79093694687","2550.30922294","4.56613302231","2554.87539196","1.43386697769","2556.36030197","2557.67329502","2557.71093583","2560.71391082","0","2560.72820401","2568.70954084",""
"sujeto_0005719","1","3","14","78","2568.84581399","inverse","1","1","1","¿En qué año se inauguró
 el teatro Solís?","1867","1856","","0","0","0","individual","left","1.66162800789","2570.50750685","3.33837199211","2574.00468493","3.20878219604","2577.21353984","2.79121780396","2580.03748393","2581.093786","2581.13867497","2584.14160299","0","2584.15595198","2590.80154896",""
"sujeto_0005719","1","3","15","79","2590.94106388","direct","1","1","4","¿A qué velocidad vuela 
el avión más rápido?","3529","3874","","0","0","0","individual","left","1.71236801147","2592.65350485","3.28763198853","2596.09776688","3.79060792923","2599.88841105","2.20939207077","2602.14931202","2603.90481591","2603.95058489","2606.95355582","0","2606.96744585","2609.07772493",""
"sujeto_0005719","1","3","16","80","2609.21989799","inverse","3","1","4","¿De qué año es la primer 
película cinematográfica?","1897","1888","","0","0","0","competitive","left","1.71364402771","2610.93360591","3.28635597229","2614.39243388","2.72707796097","2617.11954904","3.27292203903","2620.42550993","2621.55755401","2621.64384389","2624.64683485","0","2624.66081786","2630.07059383",""
"sujeto_0005719","1","3","17","81","2630.21269202","direct","2","1","3","¿Cuántos países 
tiene nuestro planeta?","191","194","","1","1","1","competitive","right","2.13576006889","2632.34849095","2.86423993111","2635.36824799","3.05528998375","2638.42360997","2.94471001625","2641.41942883","2642.77665401","2642.85407305","2645.85705996","1","2645.87236285","2649.11065984",""
"sujeto_0005719","1","3","18","82","2649.25660586","inverse","2","1","2","¿Cuántos habitantes
 tiene Buenos Aires?","2.9000.000","3650000","","0","0","0","competitive","left","1.72490882874","2650.98155904","3.27509117126","2654.4128089","3.82673192024","2658.23960996","2.17326807976","2660.44650197","2661.84374285","2661.91447902","2664.91743183","0","2664.93128395","2670.760674",""
"sujeto_0005719","1","3","19","83","2670.89953995","direct","2","1","1","¿Cuántos kilos forman una tonelada?","1000","1500","left","1","1","1","individual","left","1.39596796036","2672.29554987","3.60403203964","2676.07223701","2.0702791214","2678.14255786","3.9297208786","2682.12105584","2684.00835991","2684.05763602","2687.06058884","1","2687.07455492","2693.03196096",""
"sujeto_0005719","1","3","20","84","2693.17671704","inverse","4","1","4","¿Cuántos estados tiene la 
República del Perú? ","24","23","","0","0","1","competitive","left","1.65374803543","2694.83052087","3.34625196457","2698.35172296","2.81882500648","2701.17060995","3.18117499352","2704.40127683","2705.42342186","2705.50316691","2708.50616503","0","2708.52045584","2713.46558905",""
"sujeto_0005719","1","3","21","85","2713.60569191","direct","3","1","3","¿En qué año nació Cristóbal Colón? ","1451","1447","","0","0","1","competitive","left","1.55383491516","2715.15957594","3.44616508484","2718.77883291","3.26674985886","2722.04562688","2.73325014114","2724.82866096","2726.674541","2726.74704504","2729.74958682","0","2729.76482391","2733.99280691",""
"sujeto_0005719","1","3","22","86","2734.13285804","inverse","4","1","4","¿Cuánto mide la 
Montaña Aconcagua? ","6234","6962","","0","0","1","competitive","left","0.944683074951","2735.07760692","4.05531692505","2739.28896499","2.87258505821","2742.16158891","3.12741494179","2745.33988285","2746.62925005","2746.70813203","2749.71111202","0","2749.72512603","2756.90877295",""
"sujeto_0005719","1","3","23","87","2757.04279494","direct","2","1","4","¿Cuánto mide el punto
 más profundo del océano? ","12508","11003","","0","0","1","competitive","left","2.02478098869","2759.0676229","2.97521901131","2762.21610498","3.83244395256","2766.04861093","2.16755604744","2768.25218797","2769.50366497","2769.58698392","2772.58958983","0","2772.60364985","2776.80992389",""
"sujeto_0005719","1","3","24","88","2776.95568395","inverse","1","1","3","¿Cuántos álbumes ha publicado 
el cantante Jaime Roos? ","41","34","","0","0","1","competitive","right","1.40085482597","2778.35660195","3.59914517403","2782.1115129","3.08298397064","2785.19453382","2.91701602936","2788.16227102","2789.65212297","2789.72956991","2792.73254585","0","2792.74762297","2798.94376087",""
"sujeto_0005719","1","3","25","89","2799.08191991","direct","4","1","3","¿En qué año nació el 
ex-presidente Jorge Battle? ","1921","1927","","1","1","1","competitive","right","1.22163486481","2800.30360198","3.77836513519","2804.25622797","4.01733112335","2808.27361703","1.98266887665","2810.30651903","2812.03721595","2812.108145","2815.11110401","1","2815.12534404","2818.611408",""
"sujeto_0005719","1","3","26","90","2818.74397397","inverse","1","1","3","¿Cuántas presidencias 
constitucionales  hubo en Uruguay? ","41","42","","0","0","1","competitive","left","0.851640224457","2819.59568882","4.14835977554","2823.91664505","4.01990103722","2827.9365859","1.98009896278","2829.96696997","2831.17073202","2831.25185394","2834.25483584","0","2834.26897287","2840.04958797",""
"sujeto_0005719","1","3","27","91","2840.18678284","direct","1","1","2","¿Quién escribió mas sinfonías?","Mozart","Haydn","","1","1","0","competitive","left","2.14673900604","2842.33358002","2.85326099396","2845.34159994","2.18197488785","2847.52363992","3.81802511215","2851.3770349","2852.59447002","2852.6624949","2855.66542602","1","2855.67952299","2859.43093801",""
"sujeto_0005719","1","3","28","92","2859.56451583","inverse","4","1","2","¿En qué año nació Michael Jackson?","1958","1953","","1","1","1","competitive","left","1.06509399414","2860.62970901","3.93490600586","2864.754004","4.07661795616","2868.83068085","1.92338204384","2870.78824592","2872.76642585","2872.83896685","2875.84195185","1","2875.8563869","2881.71870589",""
"sujeto_0005719","1","3","29","93","2881.85865784","direct","3","1","2","¿En qué año entró en vigencia 
la ley antitabaco en Uruguay?","2005","2006","","1","1","1","competitive","left","1.70597600937","2883.56469798","3.29402399063","2887.01580095","4.60980892181","2891.62565088","1.39019107819","2893.04926896","2894.64399791","2894.71701884","2897.71999693","1","2897.73517394","2903.06915188",""
"sujeto_0005719","1","3","30","94","2903.20297503","inverse","3","1","1","¿Cuándo se subió el 
primer video a youtube?","2004","2005","","0","0","1","competitive","left","1.08669710159","2904.28974795","3.91330289841","2908.35903382","3.51260709763","2911.87168097","2.48739290237","2914.39380789","2915.69942904","2915.77839899","2918.78139782","0","2918.79529405","2926.55089903",""
"sujeto_0005719","1","3","31","95","2926.68045783","direct","2","1","1","¿Cuántos habitantes tiene India?","1200 millones","1300 millones","","0","0","0","individual","right","1.60319495201","2928.28371787","3.39680504799","2931.83892202","3.83071303368","2935.66967487","2.16928696632","2937.888767","2939.85754895","2939.90730691","2942.91029191","0","2942.92436695","2948.96952701",""
"sujeto_0005719","1","3","32","96","2949.10889101","inverse","4","1","2","¿A qué edad murió Bob Marley?","36","37","","0","0","1","competitive","left","3.16576695442","2952.27472091","1.83423304558","2954.26678705","3.3618619442","2957.62871599","2.6381380558","2960.30021596","2962.19808388","2962.26889586","2965.27187991","0","2965.28583384","2968.38829994",""
"sujeto_0005719","1","4","1","97","3085.60776091","direct","2","1","1","¿Cuantos años dirigió la selección 
uruguaya Tabarez?","15 años","13 años","","0","0","0","individual","right","1.90697002411","3087.51477194","3.09302997589","3090.77011204","3.04462409019","3093.81477404","2.95537590981","3096.820436","3098.01157498","3098.05580497","3101.05877495","0","3101.07305694","3108.14506483","2968.40353703"
"sujeto_0005719","1","4","2","98","3108.29063296","inverse","4","1","1","¿Cuantas teclas tiene un teclado 
de computadora generalmente? ","Entre 99 y 108","Entre 109 y 113","","1","1","1","individual","right","2.82006621361","3111.11076498","2.17993378639","3113.46363997","3.9930870533","3117.45676804","2.0069129467","3119.49984598","3120.50254297","3120.55050182","3123.55350995","1","3123.56840801","3125.93981695",""
"sujeto_0005719","1","4","3","99","3126.08583593","direct","1","1","1","¿Cuál Departamento tiene
 mayor superficie?","Río Negro","Soriano","","0","0","0","individual","left","2.68593096733","3128.77186704","2.31406903267","3131.27143788","4.7262609005","3135.99776292","1.2737390995","3137.30966282","3139.02310801","3139.06002998","3142.06156683","0","3142.07760787","3146.40160489",""
"sujeto_0005719","1","4","4","100","3146.5289979","inverse","3","1","2","¿Cuál es el apellido de las 
hermanastras  de  cenicienta?","Tremaine","Truman","","0","0","1","competitive","left","1.48176884651","3148.01082683","3.51823115349","3151.66932702","4.74246692657","3156.41185403","1.25753307343","3157.70352101","3159.5730269","3159.65423989","3162.65721893","0","3162.67114782","3165.36711287",""
"sujeto_0005719","1","4","5","101","3165.50648594","direct","4","1","4","¿Cuál película ganó un
 Oscar a mejor película?","Alto Impacto","Cache","","0","0","1","competitive","left","1.48124599457","3166.98779702","3.51875400543","3170.67853785","3.53024101257","3174.20883799","2.46975898743","3176.72898698","3177.84837604","3177.93016601","3180.93315482","0","3180.94759583","3183.21223402",""
"sujeto_0005719","1","4","6","102","3183.34895086","inverse","1","1","3","¿A cuántos centímetros
equivale la medida pié?","25","30","","0","0","1","competitive","left","1.34385609627","3184.69285202","3.65614390373","3188.50392604","5.02183294296","3193.52579689","0.978167057037","3194.5552299","3195.59520888","3195.67270803","3198.6756649","0","3198.68957686","3204.08958697",""
"sujeto_0005719","1","4","7","103","3204.22372198","direct","2","1","2","¿Qué departamento es mas grande?","Cerro Largo","Paysandú","","0","0","0","competitive","right","1.26607394218","3205.48985696","3.73392605782","3209.37878299","2.64698195457","3212.02582383","3.35301804543","3215.41324401","3217.01297283","3217.08147788","3220.08444595","0","3220.09983182","3224.20954585",""
"sujeto_0005719","1","4","8","104","3224.35054398","inverse","2","1","3","¿Quién pintó la Mona Lisa?","Picasso","Da Vinci","right","0","0","1","competitive","right","0.95926618576","3225.30985498","4.04073381424","3229.50770903","2.79108595848","3232.29885983","3.20891404152","3235.54167485","3237.14754891","3237.22641683","3240.22941184","1","3240.24396801","3242.40629101",""
"sujeto_0005719","1","4","9","105","3242.54625988","direct","4","1","3","¿Cuántos litros hay en un galon?","3.54","3.78","","1","1","1","competitive","left","1.23052191734","3243.77685595","3.76947808266","3247.70108891","3.82876682281","3251.52989888","2.17123317719","3253.73529696","3255.25318003","3255.33611202","3258.33910084","1","3258.35395288","3264.14630985",""
"sujeto_0005719","1","4","10","106","3264.28787994","inverse","4","1","1","¿Cuántas teclas tiene
 un piano moderno?","80","88","","0","0","1","individual","right","1.22293591499","3265.51086903","3.77706408501","3269.44575191","2.77608394623","3272.22187996","3.22391605377","3275.478688","3276.48709893","3276.53049183","3279.53351402","0","3279.54821587","3286.34559989",""
"sujeto_0005719","1","4","11","107","3286.51623082","direct","4","1","3","¿Cuántos países hay en África?","54","62","","0","0","1","competitive","right","1.20615792274","3287.72243404","3.79384207726","3291.67297101","3.16083717346","3294.83387494","2.83916282654","3297.70690799","3299.39747691","3299.47546101","3302.47842383","0","3302.49255395","3310.29358983",""
"sujeto_0005719","1","4","12","108","3310.42705202","inverse","1","1","3","¿En qué siglo se crearon
 las primeras pistolas?","XV","XIII","","1","1","1","competitive","left","2.21486711502","3312.64198303","2.78513288498","3315.58445287","3.86441206932","3319.44892597","2.13558793068","3321.62016296","3323.56806993","3323.63852501","3326.64151692","1","3326.65573287","3329.88879395",""
"sujeto_0005719","1","4","13","109","3330.03987384","direct","3","1","4","¿En qué año se estrenó 
la serie friends?","1994","1995","","0","0","1","competitive","left","1.47804188728","3331.51797795","3.52195811272","3335.1956439","3.48423886299","3338.67994189","2.51576113701","3341.24629593","3343.12164783","3343.19802594","3346.19832301","0","3346.21562386","3351.22168589",""
"sujeto_0005719","1","4","14","110","3351.36641598","inverse","3","1","4","¿En qué año nació Hitler?","1889","1887","","0","0","1","competitive","right","1.28948116302","3352.65594697","3.71051883698","3356.52346992","2.12643885612","3358.64996886","3.87356114388","3362.57395601","3363.68832088","3363.75848603","3366.76148391","0","3366.77653599","3371.8035419",""
"sujeto_0005719","1","4","15","111","3371.944417","direct","1","1","4","¿Cuánto pesa un elefante Africano?","6000 kilos","5400 kilos","","0","0","0","competitive","left","1.73045897484","3373.67491889","3.26954102516","3377.10159993","2.88726401329","3379.98892999","3.11273598671","3383.15155101","3384.50744987","3384.58703494","3387.58958387","0","3387.60386896","3394.31093001",""
"sujeto_0005719","1","4","16","112","3394.4390409","inverse","1","1","2","¿Qué porcentaje de 
la población es zurda?","10%","7%","","1","1","0","competitive","right","1.58980202675","3396.02891183","3.41019797325","3399.57951498","3.77133703232","3403.35088897","2.22866296768","3405.63032889","3406.87343788","3406.94788694","3409.950809","1","3409.96534204","3415.94504189",""
"sujeto_0005719","1","4","17","113","3416.08349085","direct","1","1","2","¿En qué año se estrenó
Volver al futuro?","1984","1985","","0","0","1","competitive","right","1.27042984962","3417.35396886","3.72957015038","3421.24021101","3.46068501472","3424.70093584","2.53931498528","3427.27451301","3428.83631086","3428.9090569","3431.90960693","0","3431.92575598","3439.01715899",""
"sujeto_0005719","1","4","18","114","3439.16111183","inverse","3","1","2","¿Cuántos jugadores hay en un 
equipo de baseball?","9","8","","1","1","0","competitive","right","0.990808963776","3440.15199995","4.00919103622","3444.31860304","3.87523913383","3448.19387984","2.12476086617","3450.35318995","3451.96744084","3452.03768802","3455.04068995","1","3455.05456805","3460.03177595",""
"sujeto_0005719","1","4","19","115","3460.17362404","direct","2","1","1","¿Cuántos Oscar ganó
 la película titanic?","13","11","","1","1","1","individual","left","3.53626513481","3463.70995593","1.46373486519","3465.32731485","2.83255791664","3468.15992785","3.16744208336","3471.36349487","3472.66556382","3472.71505904","3475.71803784","1","3475.73266697","3480.33533287",""
"sujeto_0005719","1","4","20","116","3480.46771693","inverse","4","1","4","¿En qué año comenzó
la segunda guerra mundial?","1939","1976","left","0","0","1","competitive","left","1.43021798134","3481.89798284","3.56978201866","3485.62386203","1.43315911293","3487.05706191","4.56684088707","3491.67292094","3493.47272992","3493.54187083","3496.54482484","1","3496.56002784","3500.54558587",""
"sujeto_0005719","1","4","21","117","3500.67789793","direct","2","1","4","¿Cuántos biomas hay en Uruguay?","5","4","","0","0","1","competitive","left","1.86310195923","3502.54104495","3.13689804077","3505.86723304","3.17772698402","3509.04500198","2.82227301598","3511.90103388","3513.69839191","3513.76904583","3516.76957798","0","3516.78677201","3523.03359985",""
"sujeto_0005719","1","4","22","118","3523.18843293","inverse","2","1","3","¿Cuándo murió Pablo Escobar?","1993","1997","","1","1","1","competitive","left","1.01057386398","3524.19911194","3.98942613602","3528.36182189","2.46710991859","3530.82898903","3.53289008141","3534.41187","3536.19472289","3536.28021598","3539.2816","1","3539.29865289","3545.00232601",""
"sujeto_0005719","1","4","23","119","3545.13338995","direct","1","1","4","¿Qué serie ha ganado mas premios?","Friends","Murphy Brown","","1","1","0","competitive","left","1.89761996269","3547.03111386","3.10238003731","3550.32377291","3.22013998032","3553.54395103","2.77986001968","3556.37194395","3557.724365","3557.80695105","3560.80991483","1","3560.82437086","3566.38597989",""
"sujeto_0005719","1","4","24","120","3566.52507496","inverse","4","1","2","¿Cuántas fichas tiene el dominó?","26","28","","1","1","1","competitive","right","0.943953990936","3567.46910596","4.05604600906","3571.68465805","3.06033587456","3574.74505901","2.93966412544","3577.71765304","3578.77294898","3578.85252094","3581.8555119","1","3581.8695519","3587.1126709",""
"sujeto_0005719","1","4","25","121","3587.25500798","direct","2","1","4","¿Cuántos son los dientes de leche?","20","25","","0","0","1","competitive","left","1.16794300079","3588.42299795","3.83205699921","3592.41182399","4.04217410088","3596.45404291","1.95782589912","3598.44611692","3600.15648985","3600.23037291","3603.23334289","0","3603.24793386","3605.39362097",""
"sujeto_0005719","1","4","26","122","3605.53247499","inverse","3","1","3","¿Cuántos gramos son una onza?","22","28","","0","0","1","competitive","left","0.927508115768","3606.46005893","4.07249188423","3610.70380187","3.48619389534","3614.19004083","2.51380610466","3616.75488091","3618.74974585","3618.82346988","3621.82645392","0","3621.84062505","3628.13085699",""
"sujeto_0005719","1","4","27","123","3628.27528","direct","3","1","1","¿Cuándo salió el primer album
 de los Beatles?","1963","1962","","1","1","1","individual","right","2.03778815269","3630.31311083","2.96221184731","3633.43327403","3.62572097778","3637.05905485","2.37427902222","3639.46670485","3640.63029099","3640.66785288","3643.66958785","1","3643.68493295","3647.45359397",""
"sujeto_0005719","1","4","28","124","3647.58674192","inverse","3","1","3","¿Quién fundó la empresa apple?","Carlos Slim","Steve Jobs","","1","1","1","competitive","left","0.619260072708","3648.20604491","4.38073992729","3652.74249291","4.38452291489","3657.12705994","1.61547708511","3658.79392195","3659.90860295","3659.97817492","3662.98110485","1","3662.99555182","3669.29339385",""
"sujeto_0005719","1","4","29","125","3669.43035984","direct","4","1","2","¿Cuántos municipios hay
 en Montevideo?","8","7","","1","1","1","competitive","left","1.14262390137","3670.57304883","3.85737609863","3674.60408998","2.2168970108","3676.82102585","3.7831029892","3680.65377092","3682.56855392","3682.63990092","3685.64153385","1","3685.65674686","3687.73786497",""
"sujeto_0005719","1","4","30","126","3687.90876698","inverse","1","1","1","¿Cuántos kilómetros hay
 de Montevideo a Artigas?","632","599","","0","0","0","individual","right","2.17032504082","3690.07913399","2.82967495918","3693.06419802","3.11777710915","3696.18203282","2.88222289085","3699.11220789","3700.59534097","3700.6475749","3703.64958787","0","3703.66456485","3709.71667194",""
"sujeto_0005719","1","4","31","127","3709.86587","direct","2","1","2","¿En qué año nació 
Leonardo Da Vinci?","1452","1511","","1","1","0","competitive","left","1.12771105766","3710.99363303","3.87228894234","3715.02471495","2.81437778473","3717.83913898","3.18562221527","3721.07513094","3722.92874503","3723.01067591","3726.01367688","1","3726.02815986","3729.17458701",""
"sujeto_0005719","1","4","32","128","3729.31289697","inverse","3","1","1","¿A qué continente
 pertenece el país Gabón?","Africa","Oceanía","","0","0","1","individual","left","1.46116805077","3730.77412987","3.53883194923","3734.48522687","4.05178809166","3738.53708196","1.94821190834","3740.53581595","3742.34749389","3742.38702989","3745.38996601","0","3745.4041779","3750.64159298",""
