"code","nro_aplicante","nro_bloque","nro_trial_bloque","nro_trial_global","show_game_type","choice_order","rival","pay_individual","pay_competitive","question","answer_left_text","answer_right_text","correct_answer","outcome_individual","outcome_competitive","outcome_rival","game_type","answer","social_time","rt_game_type","feedback_delay","show_question","answer_time","rt_answer_global","feedback_delay_2","show_jitter","jitter_time","show_outcome","outcome_time","outcome_participant_real","show_final_jitter","second_jitter_time","inicio_descanso"
"sujeto_151573d2","1","1","1","1","622.467253923","direct","3","1","4","¿Cuántos centímetros corresponden
al talle 36 del calzado?","23","24","","0","0","1","competitive","right","1.99435186386","624.461687088","3.00564813614","627.654435873","4.83623409271","632.490717888","1.16376590729","633.707524061","634.73577404","634.807668924","637.810585976","0","637.824140072","639.98662591",""
"sujeto_151573d2","1","1","2","2","640.121109009","inverse","3","1","2","¿Cuántas metros mide la Intendencia
Municipal de Montevideo? ","84","78","","0","0","1","individual","left","2.81861019135","642.939766884","2.18138980865","645.296444893","4.67528104782","649.971782923","1.32471895218","651.349526882","653.227568865","653.267109871","656.268744946","0","656.284653902","658.376765966",""
"sujeto_151573d2","1","1","3","3","658.536643028","direct","1","1","3","¿Cuántas La Pasiva
 hay en uruguay?","15","11","","1","1","1","competitive","left","1.70924496651","660.24595809","3.29075503349","663.690758944","4.70310282707","668.393920898","1.29689717293","669.742034912","671.352740049","671.425621986","674.428611994","1","674.442843914","678.720753908",""
"sujeto_151573d2","1","1","4","4","678.845480919","inverse","3","1","3","¿De que color es la camiseta de uruguay?","blanca","celeste","right","1","1","1","competitive","right","1.52649903297","680.372024059","3.47350096703","684.001813889","2.63826704025","686.640120983","3.36173295975","690.051616907","691.256392002","691.337114096","694.340054035","1","694.35333395","697.80724597",""
"sujeto_151573d2","1","1","5","5","697.939728022","direct","2","1","1","¿Cuánto metros mide
la torre Eiffel?","333","324","","1","1","1","individual","","3.17840099335","701.11817193","1.82159900665","703.093894005","6","709.09402895","0","709.113372087","710.634772062","710.67985487","713.682831049","0","713.697772026","720.734481096",""
"sujeto_151573d2","1","1","6","6","720.869369984","inverse","3","1","4","¿Cuantas ciudades existen
 en todo el uruguay?","63","72","","0","0","1","competitive","left","1.28091311455","722.150351048","3.71908688545","726.020225048","3.56808876991","729.588356972","2.43191123009","732.07258296","733.127359867","733.207242966","736.208781958","0","736.22397995","743.84877491",""
"sujeto_151573d2","1","1","7","7","743.99239707","direct","1","1","1","¿Cuantos estados tiene África?","52","54","","1","1","0","competitive","left","1.61199402809","745.604454041","3.38800597191","749.134768009","2.67568993568","751.810520887","3.32431006432","755.18453908","757.048564911","757.119642973","760.12263298","1","760.137362003","765.898362875",""
"sujeto_151573d2","1","1","8","8","766.04301405","inverse","4","1","4","¿En qué año nació
 Stephen Hawking?","1952","1942","","0","0","1","competitive","right","1.67151212692","767.714569092","3.32848787308","771.196343899","4.47027206421","775.666673899","1.52972793579","777.24774003","778.692015886","778.765572071","781.768502951","0","781.782717943","787.880759954",""
"sujeto_151573d2","1","1","9","9","788.019448042","direct","2","1","3","¿Cuánto años tenía Artigas
 cuando se fue a Paraguay?","56","57","","1","1","1","competitive","right","1.44031500816","789.459807873","3.55968499184","793.175216913","4.01955103874","797.194828033","1.98044896126","799.225910902","800.77540803","800.843549967","803.846554041","1","803.860533953","809.907835007",""
"sujeto_151573d2","1","1","10","10","810.02879405","inverse","1","1","2","¿Cuantos milímetros 
mide una hoja A2?","420x592","420x594","","0","0","1","competitive","left","3.28013110161","813.308989048","1.71986889839","815.185213089","5.21173000336","820.396982908","0.788269996643","821.221455097","822.789851904","822.871973991","825.872792959","0","825.889719009","832.963358879",""
"sujeto_151573d2","1","1","11","11","833.108622074","direct","3","1","3","¿Cuál es la menor temperatura 
registrada en Uruguay?","-5.4","-7.4","","0","0","1","competitive","right","1.08546209335","834.194129944","3.91453790665","838.262942076","4.9971280098","843.260137081","1.0028719902","844.314795971","845.996833086","846.081542969","849.084519863","0","849.099822998","852.833118916",""
"sujeto_151573d2","1","1","12","12","852.969476938","inverse","2","1","2","¿Cuantos años hace que 
se fundó facebook?","18","17","","0","0","0","competitive","right","2.61171197891","855.581242085","2.38828802109","858.122168064","4.52200603485","862.644212961","1.47799396515","864.176827908","865.548745871","865.627927065","868.628810883","0","868.645096064","871.419739008",""
"sujeto_151573d2","1","1","13","13","871.548789978","direct","1","1","4","¿Cuál animal es más
 pesado en promedio?","Rinoceronte","Hipopotamo","","0","0","0","competitive","right","1.11047101021","872.659322023","3.88952898979","876.700995922","4.92333889008","881.62439394","1.07666110992","882.736056089","883.815270901","883.886108875","886.889113903","0","886.904165983","890.745179892",""
"sujeto_151573d2","1","1","14","14","890.922621965","inverse","1","1","2","¿Qué personaje de dragon ball 
murió más veces?","Chaoz","Krillin","","1","1","0","competitive","right","2.19081902504","893.113539934","2.80918097496","896.078378916","3.54807591438","899.626497984","2.45192408562","902.127525091","903.585346937","903.662612915","906.665597916","1","906.679562092","914.448771",""
"sujeto_151573d2","1","1","15","15","914.581722975","direct","3","1","2","La universidad de oxford. 
existe desde:","1096","1249","","1","1","0","individual","right","3.05385088921","917.635641098","1.94614911079","919.735591888","4.70103192329","924.43672204","1.29896807671","925.774831057","926.823642969","926.859194994","929.862174988","1","929.876427889","936.567277908",""
"sujeto_151573d2","1","1","16","16","936.714895964","inverse","3","1","1","¿Qué escritor latino ganó antes
 el premio nobel?"," García Marquez","Neruda","","0","0","1","individual","","4.07886600494","940.793838978","0.921133995056","941.868999958","6","947.869143963","0","947.887408018","949.627408028","949.671540976","952.672785997","0","952.689119101","956.149651051",""
"sujeto_151573d2","1","1","17","17","956.292283058","direct","4","1","3","¿Cuántos dientes tiene un
 tiburón blanco?","6000","3000","","0","0","1","competitive","right","1.967648983","958.26000309","3.032351017","961.461788893","3.71408295631","965.175930977","2.28591704369","967.49683094","968.535815001","968.615459919","971.618416071","0","971.631460905","976.44114995",""
"sujeto_151573d2","1","1","18","18","976.581909895","inverse","4","1","1","¿Cuánto mide el paralelo Ecuador?","40.000km","70.000km","","0","0","1","individual","left","2.58511996269","979.167084932","2.41488003731","981.750843048","3.62917304039","985.380054951","2.37082695961","987.79043293","989.746556997","989.791579962","992.794550896","0","992.809902906","996.412474871",""
"sujeto_151573d2","1","1","19","19","996.546679974","direct","4","1","2","¿Cuál fue el primer libro 
de Stephen King?","Carrie","The Stand","","1","1","1","individual","left","2.77446103096","999.321247101","2.22553896904","1001.7301929","4.06694197655","1005.79719496","1.93305802345","1007.76803994","1009.51208806","1009.55220699","1012.55280209","1","1012.57005","1017.04080796",""
"sujeto_151573d2","1","1","20","20","1017.1901319","inverse","2","1","3","¿Qué civilización practicaba
 la momificación?","Grecia","Egipto","right","0","0","1","competitive","right","1.19113492966","1018.38131499","3.80886507034","1022.34414005","2.79108595848","1025.13528204","3.20891404152","1028.39418197","1030.33344197","1030.41260409","1033.41280603","1","1033.430094","1037.65888906",""
"sujeto_151573d2","1","1","21","21","1037.79863","direct","4","1","4","¿Cuántos millones de visitas
 recibe google por minuto?","3.0","4.5","","0","0","1","competitive","right","1.0618288517","1038.86052608","3.9381711483","1042.93790007","4.59247803688","1047.53044105","1.40752196312","1048.97303605","1050.48792791","1050.57373095","1053.57672","0","1053.59067893","1060.71087289",""
"sujeto_151573d2","1","1","22","22","1060.8597579","inverse","1","1","3","La máquina de fax. se inventó en:","1843","1960","","0","0","1","competitive","right","1.21081590652","1062.07064891","3.78918409348","1065.99896097","4.88763594627","1070.88665605","1.11236405373","1072.04976702","1073.29187202","1073.367733","1076.37072206","0","1076.3849659","1079.62121797",""
"sujeto_151573d2","1","1","23","23","1079.76791787","direct","2","1","4","En la verdadera historia de los
 300 espartanos. habían:","300 soldados","4300 soldados","","1","1","1","competitive","right","1.23076510429","1080.99875307","3.76923489571","1084.90981889","5.08184909821","1089.99170494","0.918150901794","1090.9618969","1092.22312999","1092.29569697","1095.29865098","1","1095.31298304","1099.11472487",""
"sujeto_151573d2","1","1","24","24","1099.24908304","inverse","1","1","4","¿Cuántos milímetros crece
 el pelo por día?","0.4","0.04","","0","0","0","competitive","left","1.06972503662","1100.31885004","3.93027496338","1104.40324807","4.07976007462","1108.48304701","1.92023992538","1110.43765807","1112.19835901","1112.27229595","1115.27527404","0","1115.29020095","1122.02529788",""
"sujeto_151573d2","1","1","25","25","1122.17455602","direct","4","1","1","¿Cuánto mide la baldosa gris 
clásica de Montevideo?","22x22 cm.","20x20 cm.","","1","1","1","competitive","right","2.55860090256","1124.73327494","2.44139909744","1127.36468101","5.27550506592","1132.64022803","0.724494934082","1133.40174198","1135.39681005","1135.46807194","1138.46877909","1","1138.4857831","1144.02480006",""
"sujeto_151573d2","1","1","26","26","1144.17215896","inverse","2","1","2","¿Cuántas películas de rápidos
 y furiosos hay?","10","11","","1","1","0","competitive","right","1.39324593544","1145.56546807","3.60675406456","1149.32575297","3.61068701744","1152.9364779","2.38931298256","1155.35947704","1156.71673489","1156.7943151","1159.797333","1","1159.81234097","1161.8470521",""
"sujeto_151573d2","1","1","27","27","1161.98068905","direct","3","1","1","¿Cuántos masters 1000
 ganó Del Potro?","1","2","","1","1","1","competitive","left","1.75691008568","1163.73764396","3.24308991432","1167.12049103","4.3782351017","1171.49876499","1.6217648983","1173.154212","1174.90882897","1174.98922992","1177.992208","1","1178.00640893","1185.40078402",""
"sujeto_151573d2","1","1","28","28","1185.541466","inverse","2","1","4","¿Cuántos meses dura el 
embarazo de una leona?","3 meses","4 meses","","0","0","1","competitive","right","0.952549934387","1186.494133","4.04745006561","1190.71486092","4.03412985802","1194.74903488","1.96587014198","1196.76640701","1197.87745595","1197.95090199","1200.95388103","0","1200.96795201","1207.69043899",""
"sujeto_151573d2","1","1","29","29","1207.85293198","direct","1","1","1","¿En qué año fue creado
 el sandwich?","1762","1653","","1","1","0","competitive","left","1.48226690292","1209.33527899","3.51773309708","1213.01059008","3.96163606644","1216.97226787","2.03836393356","1219.04468703","1220.64320087","1220.72960496","1223.73257589","1","1223.74668097","1227.21728992",""
"sujeto_151573d2","1","1","30","30","1227.38255095","inverse","4","1","2","El nombre de la moneda de Vietnam es:","Dinar","Dong","","0","0","1","competitive","right","3.9388358593","1231.32145596","1.0611641407","1232.53757405","3.00991606712","1235.54755092","2.99008393288","1238.56929088","1240.00080895","1240.08712888","1243.09012008","0","1243.10447788","1249.27291298",""
"sujeto_151573d2","1","1","31","31","1249.40945292","direct","2","1","1","¿cuantos aleteos puede dar 
un colibrí por segundo?","120","50","","0","0","0","competitive","left","1.04722690582","1250.45673895","3.95277309418","1254.56528187","4.39742898941","1258.96276999","1.60257101059","1260.61649489","1262.34890509","1262.43476796","1265.43773103","0","1265.45202208","1269.66429996",""
"sujeto_151573d2","1","1","32","32","1269.8029089","inverse","4","1","3","¿Qué altura promedio tienen
 los hombres uruguayos?","1.73 m","1.72 m","","1","1","1","competitive","left","1.18498110771","1270.98793292","3.81501889229","1274.95980906","3.8641140461","1278.82396698","2.1358859539","1281.01021504","1282.27264309","1282.34471607","1285.34771299","1","1285.36269808","1289.83863997",""
"sujeto_151573d2","1","2","1","33","1456.18390799","direct","1","1","1","¿En qué año nació 
el actor Bradd Pitt?","1967","1963","","1","1","1","competitive","left","1.38792800903","1457.57189989","3.61207199097","1461.3236599","3.30226397514","1464.62598991","2.69773602486","1467.37319994","1468.4690609","1468.54194307","1471.54481101","1","1471.55921197","1477.48681402","1289.85327506"
"sujeto_151573d2","1","2","2","34","1477.63053799","inverse","2","1","1","¿Cual es el segundo 
monte más alto?","Kanchenjunga","K2","","1","1","1","competitive","left","1.28253006935","1478.91313601","3.71746993065","1482.78518009","4.78799295425","1487.57322001","1.21200704575","1488.83758307","1490.28999496","1490.37107587","1493.37281489","1","1493.38850307","1496.81839705",""
"sujeto_151573d2","1","2","3","35","1496.95845008","direct","3","1","1","¿Cuándo finalizó la construcción
 del Palacio Legislativo?","1925","1917","","0","0","1","competitive","left","1.22484302521","1498.18333793","3.77515697479","1502.11093593","5.31442689896","1507.42540503","0.685573101044","1508.16391087","1509.80480194","1509.88130403","1512.88425207","0","1512.8982811","1518.59584188",""
"sujeto_151573d2","1","2","4","36","1518.7519269","inverse","3","1","3","¿Cuántos integrantes tenía
 en su inicio  el cuarteto de nos?","3","4","","1","1","1","competitive","right","1.23159384727","1519.98359394","3.76840615273","1523.90707994","3.51445007324","1527.4215889","2.48554992676","1529.95772791","1531.09082103","1531.17544794","1534.17680407","1","1534.1929009","1539.84271789",""
"sujeto_151573d2","1","2","5","37","1539.9946661","direct","2","1","3","¿Qué valor tiene el número pi?","3.14","4.18","left","0","0","1","competitive","left","2.91403198242","1542.90875506","2.08596801758","1545.14997005","2.57775402069","1547.72779107","3.42224597931","1551.18352199","1552.63677406","1552.71825409","1555.72125196","1","1555.73562288","1562.65277195",""
"sujeto_151573d2","1","2","6","38","1562.80740595","inverse","2","1","2","¿Cuál es la esperanza de vida
 en Uruguay?","75","77","","1","1","0","competitive","right","1.27349281311","1564.08094001","3.72650718689","1567.9474051","3.97955799103","1571.92702198","2.02044200897","1573.98089099","1575.63464093","1575.71549487","1578.71845698","1","1578.73295808","1585.1959641",""
"sujeto_151573d2","1","2","7","39","1585.33720899","direct","1","1","2","¿Cuantos pisos tiene la torre 
de las comunicaciones?","26","32","","1","1","0","competitive","left","1.14889979362","1586.48618603","3.85110020638","1590.49193287","3.78324913979","1594.27522206","2.21675086021","1596.543715","1598.37250304","1598.44415498","1601.44480991","1","1601.46219707","1603.60840607",""
"sujeto_151573d2","1","2","8","40","1603.74635196","inverse","2","1","4","¿En qué país sudamericano 
no hay McDonalds?","Bolivia","Venezuela","","0","0","1","competitive","left","0.946977853775","1604.69337702","4.05302214622","1608.90006304","4.94223499298","1613.84233499","1.05776500702","1614.93640804","1616.24577999","1616.32073593","1619.32370996","0","1619.33768797","1625.69737887",""
"sujeto_151573d2","1","2","9","41","1625.83903503","direct","3","1","1","¿En qué año empieza
 la Edad Media?","476","512","","1","1","1","competitive","right","1.43941998482","1627.27850509","3.56058001518","1630.99548197","4.8131480217","1635.80869603","1.1868519783","1637.03189993","1638.43567705","1638.5160501","1641.51904202","1","1641.53319407","1644.52083206",""
"sujeto_151573d2","1","2","10","42","1644.66812587","inverse","3","1","4","¿Hace cuántos años surgió
 el ser humano?","200mil","300mil","","0","0","0","competitive","right","0.932604074478","1645.60077691","4.06739592552","1649.8227489","4.66497397423","1654.48776698","1.33502602577","1655.87496996","1657.76103806","1657.84161401","1660.84460497","0","1660.85983109","1664.17030597",""
"sujeto_151573d2","1","2","11","43","1664.31150293","direct","3","1","4","¿Cuántas cuadras tiene
 actualmente 18 de julio? ","36","33","","0","0","1","competitive","right","0.944403886795","1665.25597596","4.0555961132","1669.46697903","4.19785404205","1673.6648891","1.80214595795","1675.51805592","1677.22031689","1677.30155301","1680.30454206","0","1680.31959701","1685.045892",""
"sujeto_151573d2","1","2","12","44","1685.20538187","inverse","1","1","4","¿Qué juego de equipo se 
considera mas rápido?","Lacrosse","Badminton","","0","0","0","competitive","left","0.952681064606","1686.15812588","4.04731893539","1690.35632586","4.57379102707","1694.93017697","1.42620897293","1696.3921001","1697.63516307","1697.71052003","1700.71350288","0","1700.72767305","1708.72283006",""
"sujeto_151573d2","1","2","13","45","1708.86659908","direct","1","1","3","¿Qué promedio de edad 
vive una jirafa? ","25","20","","0","0","1","competitive","left","1.13068914413","1709.9973619","3.86931085587","1714.02389097","3.58143997192","1717.60537195","2.41856002808","1720.07400703","1721.83552909","1721.90893102","1724.91188598","0","1724.92655396","1730.88226509",""
"sujeto_151573d2","1","2","14","46","1731.06319189","inverse","1","1","2","¿Cuántos grandes lagos hay?","7","5","","0","0","1","competitive","left","2.1102809906","1733.17351794","2.8897190094","1736.21774292","3.84877085686","1740.0665729","2.15122914314","1742.25256395","1743.54471397","1743.62110591","1746.62402987","0","1746.63839006","1754.45977402",""
"sujeto_151573d2","1","2","15","47","1754.58975792","direct","3","1","2","¿Cuántos discos de estudio
 grabó Johhny Cash? ","54","43","","1","1","0","competitive","right","1.03394794464","1755.62375998","3.96605205536","1759.74789691","3.76083087921","1763.50877094","2.23916912079","1765.78157306","1767.0602119","1767.13342309","1770.13642097","1","1770.15069699","1776.80162597",""
"sujeto_151573d2","1","2","16","48","1776.93459296","inverse","4","1","1","¿Cuántos barrios tiene
 Montevideo? ","71","62","","0","0","1","competitive","left","1.57629108429","1778.51093006","3.42370891571","1782.09281707","3.6401181221","1785.73300195","2.3598818779","1788.12611008","1789.1327889","1789.21080089","1792.21283197","0","1792.22783399","1797.68884206",""
"sujeto_151573d2","1","2","17","49","1797.83001208","direct","3","1","3","¿Qué edad tiene Homero Simpson?","36","42","","0","0","1","competitive","right","1.01103806496","1798.84111309","3.98896193504","1802.96603298","2.68210601807","1805.64820099","3.31789398193","1809.00023007","1810.376266","1810.45283008","1813.45581508","0","1813.4701159","1817.85886598",""
"sujeto_151573d2","1","2","18","50","1818.03804994","inverse","4","1","2","¿Cuántos países con monarquía 
hay en europa actualmente? ","6","10","","1","1","1","competitive","left","1.35115385056","1819.38925409","3.64884614944","1823.19712806","4.05014109612","1827.24733686","1.94985890388","1829.24820805","1830.68648887","1830.7660079","1833.76880097","1","1833.78312993","1839.93995595",""
"sujeto_151573d2","1","2","19","51","1840.08480191","direct","2","1","3","¿Cuántos capítulos de
 Friends existen? ","236","228","","1","1","1","competitive","right","1.07656693459","1841.16143489","3.92343306541","1845.24266505","3.36070394516","1848.60342097","2.63929605484","1851.27644205","1852.58201408","1852.66170287","1855.66471195","1","1855.67792702","1858.05277991",""
"sujeto_151573d2","1","2","20","52","1858.18026805","inverse","1","1","3","¿Cuántas óperas compuso Mozart? ","27","22","","1","1","1","competitive","left","1.17028307915","1859.35059905","3.82971692085","1863.35011888","3.8255200386","1867.175699","2.1744799614","1869.38572001","1870.67676592","1870.75313401","1873.75611591","1","1873.77013493","1881.08158398",""
"sujeto_151573d2","1","2","21","53","1881.22470093","direct","4","1","3","¿Cuántos mundiales de fútbol 
femenino ha realizado FIFA? ","9","7","","1","1","1","competitive","right","0.824137926102","1882.04894805","4.1758620739","1886.379215","4.21869897842","1890.59797287","1.78130102158","1892.43084192","1893.67453504","1893.74764705","1896.75065494","1","1896.76489091","1902.86737299",""
"sujeto_151573d2","1","2","22","54","1902.99971008","inverse","3","1","2","¿Cuál es la temperatura 
media anual en Montevideo? ","17.5","16.3","","0","0","1","competitive","left","1.45424699783","1904.45400095","3.54575300217","1908.14226794","3.79171991348","1911.93404698","2.20828008652","1914.19263387","1916.13124895","1916.21012998","1919.21311808","0","1919.22840905","1925.79794598",""
"sujeto_151573d2","1","2","23","55","1925.92962289","direct","2","1","2","¿En qué año se estrenó el
 videojuego The Sims? ","2000","2002","","0","0","0","competitive","right","0.838542938232","1926.76822495","4.16145706177","1931.07058907","3.90758800507","1934.97821498","2.09241199493","1937.10507607","1938.96706295","1939.03928494","1942.04077601","0","1942.05701399","1949.44879603",""
"sujeto_151573d2","1","2","24","56","1949.5938561","inverse","2","1","1","¿Cuál es la canción con 
mas covers? ","Yesterday","Stand by me","","0","0","0","competitive","left","1.02248692513","1950.61638904","3.97751307487","1954.74984598","4.86757302284","1959.61747909","1.13242697716","1960.80107498","1962.1996069","1962.26797509","1965.26878095","0","1965.28579092","1969.45658302",""
"sujeto_151573d2","1","2","25","57","1969.60590887","direct","1","1","4","¿Cuánto duró la guerra
 de los 100 años?","116","123","","0","0","0","competitive","left","0.726629018784","1970.33260798","4.27337098122","1974.7554791","3.89399814606","1978.64953208","2.10600185394","1980.79121304","1982.27202606","1982.3418479","1985.34481287","0","1985.36008286","1987.67985201",""
"sujeto_151573d2","1","2","26","58","1987.8288281","inverse","4","1","4","¿Qué color tiene la  bandera de Brasil?","Amarillo","Naranja","left","0","0","1","competitive","left","1.06887412071","1988.89776492","3.93112587929","1992.98578691","2.91492986679","1995.90077686","3.08507013321","1999.03498793","2000.6015389","2000.68625593","2003.68875289","1","2003.70403099","2006.73675489",""
"sujeto_151573d2","1","2","27","59","2006.89053798","direct","4","1","3","¿Qué carabela de 
Colon no volvió del viaje?","Santa María","La pinta","","0","0","1","competitive","left","0.87130188942","2007.76191187","4.12869811058","2012.04597306","5.72097396851","2017.7669909","0.279026031494","2018.09797406","2019.58874202","2019.66527295","2022.66820693","0","2022.68215203","2024.78081799",""
"sujeto_151573d2","1","2","28","60","2024.91672707","inverse","4","1","4","¿Cuántos huesos tiene
 un adulto humano?","217","206","","0","0","1","competitive","right","0.71330499649","2025.63007689","4.28669500351","2030.06719208","3.91276311874","2033.98001194","2.08723688126","2036.10336494","2037.37437701","2037.45451093","2040.45747304","0","2040.47174287","2048.30876207",""
"sujeto_151573d2","1","2","29","61","2048.43993688","direct","1","1","1","¿Qué país africano fue 
fundado por esclavos?","Liberia","Chad","","0","0","0","competitive","left","1.15424203873","2049.59424305","3.84575796127","2053.60141706","5.7988140583","2059.40029097","0.201185941696","2059.65084505","2061.64080596","2061.71718192","2064.72013807","0","2064.73495007","2072.72580099",""
"sujeto_151573d2","1","2","30","62","2072.90763688","inverse","4","1","2","¿A cuánto asciende la cima
 del monte Everest?","7.990 mts","8.848 mts","","0","0","1","competitive","right","1.02370285988","2073.93138289","3.97629714012","2078.06345987","3.61696910858","2081.68049192","2.38303089142","2084.11484599","2085.29969287","2085.38254809","2088.384794","0","2088.39997387","2095.58401608",""
"sujeto_151573d2","1","2","31","63","2095.73839498","direct","4","1","1","¿Cuál es el país mas chico?","Sealand","Luxemburgo","","1","1","1","competitive","left","1.3372092247","2097.07564807","3.6627907753","2100.87530589","4.29833006859","2105.17367697","1.70166993141","2106.92717791","2108.79070592","2108.87776494","2111.88073802","1","2111.89504409","2115.01732993",""
"sujeto_151573d2","1","2","32","64","2115.18480086","inverse","2","1","4","¿Cuántas pirámides hay en Egipto?","10000","11000","","1","1","1","competitive","left","0.985913991928","2116.17077708","4.01408600807","2120.33660889","3.10314798355","2123.43979597","2.89685201645","2126.38687706","2127.42049193","2127.50516891","2130.50813103","1","2130.52213597","2135.62875009",""
"sujeto_151573d2","1","3","1","65","2260.82538295","direct","2","1","2","¿Cuál es el quinto país con 
mas extensión?","Canadá","Brasil","","1","1","0","competitive","right","1.19156980515","2262.01701498","3.80843019485","2265.97893095","3.91101789474","2269.89000893","2.08898210526","2272.01284003","2273.34611797","2273.43074489","2276.4337399","1","2276.44779205","2284.17418194","2135.64362407"
"sujeto_151573d2","1","3","2","66","2284.33288908","inverse","1","1","2","¿Qué rasgo facial no tiene
 la Mona Lisa?","Cejas","Pómulos","","0","0","1","competitive","left","0.914227962494","2285.24716187","4.08577203751","2289.48872209","4.88539004326","2294.374156","1.11460995674","2295.54219294","2297.29260588","2297.37657499","2300.37680197","0","2300.39375305","2306.66480589",""
"sujeto_151573d2","1","3","3","67","2306.84797692","direct","4","1","3","¿Cuál es el país con 
mayor población?","Esados Unidos","China","right","0","0","1","competitive","right","1.10628390312","2307.95432997","3.89371609688","2312.00195289","4.32333803177","2316.32534909","1.67666196823","2318.05227995","2319.69825792","2319.78719902","2322.79017806","1","2322.80433702","2326.17168093",""
"sujeto_151573d2","1","3","4","68","2326.30646706","inverse","1","1","1","La palabra dinosaurio significa","Lagarto Terrible","Lagarto Dragón","","1","1","0","competitive","left","0.858000040054","2327.16453409","4.14199995995","2331.46271801","3.86273908615","2335.3255229","2.13726091385","2337.51391101","2338.68421507","2338.76439095","2341.7647841","1","2341.78203201","2344.64385986",""
"sujeto_151573d2","1","3","5","69","2344.78558207","direct","2","1","3","¿Qué es el membrillero?","Arbol","Arbusto","","0","0","0","competitive","left","0.963942050934","2345.74959397","4.03605794907","2349.93930197","3.15729403496","2353.09666896","2.84270596504","2355.99024796","2357.94438696","2358.02526498","2361.02824497","0","2361.04234195","2367.50479698",""
"sujeto_151573d2","1","3","6","70","2367.64609194","inverse","3","1","3","¿Alrededor de qué planeta orbita 
el satélite Europa?","Jupiter","Saturno","","1","1","1","competitive","right","0.894614934921","2368.54075193","4.10538506508","2372.79988503","5.30790615082","2378.10783601","0.692093849182","2378.83592606","2380.38072705","2380.45339894","2383.45636201","1","2383.47048497","2385.67566991",""
"sujeto_151573d2","1","3","7","71","2385.82240701","direct","3","1","1","¿Donde fue el mundial de 
fútbol de 1954?","Suiza","Suecia","","1","1","1","competitive","left","1.4875497818","2387.31000495","3.5124502182","2390.97774196","4.62117886543","2395.59899092","1.37882113457","2397.02910709","2398.28173089","2398.36240697","2401.36541605","1","2401.37974501","2405.288872",""
"sujeto_151573d2","1","3","8","72","2405.44812489","inverse","1","1","4","¿Cuál de los 7 enanitos
no tenía barba?","Bashful","Mudito","","1","1","0","competitive","left","0.972898006439","2406.42108488","4.02710199356","2410.60460997","4.31451392174","2414.91916704","1.68548607826","2416.65529203","2418.23540187","2418.30666804","2421.30965304","1","2421.32407808","2426.25316787",""
"sujeto_151573d2","1","3","9","73","2426.3922689","direct","3","1","2","¿Cual red social es
mas utilizada mundialmente?","Instagram","Facebook","","1","1","0","individual","left","1.16993904114","2427.56225801","3.83006095886","2431.54861403","3.8486521244","2435.39730906","2.1513478756","2437.59918499","2439.5165689","2439.56789398","2442.57086205","1","2442.58488989","2445.51939392",""
"sujeto_151573d2","1","3","10","74","2445.67048192","inverse","4","1","1","¿Cuándo se inició la copa
 América de fútbol?","1916","1923","","1","1","1","individual","left","2.18990206718","2447.86043","2.81009793282","2450.82536387","3.69805693626","2454.52348089","2.30194306374","2456.87592196","2458.77333093","2458.81005096","2461.81278396","1","2461.82809091","2464.48425794",""
"sujeto_151573d2","1","3","11","75","2464.62965798","direct","3","1","4","¿Cuántos presidentes de EEUU
han muerto asesinados?","3","4","","0","0","1","competitive","left","1.139772892","2465.76949286","3.860227108","2469.78501487","5.00758695602","2474.79264188","0.992413043976","2475.82046604","2477.30437994","2477.38212705","2480.38511705","0","2480.39915895","2484.04327893",""
"sujeto_151573d2","1","3","12","76","2484.18648791","inverse","2","1","4","¿Cuántas veces participó EEUU
 en la copa América?","4","5","","0","0","1","competitive","right","0.883210897446","2485.06974792","4.11678910255","2489.34536099","4.63430595398","2493.97971106","1.36569404602","2495.39634609","2496.84044909","2496.91427398","2499.91726899","0","2499.93140292","2506.0485971",""
"sujeto_151573d2","1","3","13","77","2506.18336201","direct","4","1","1","¿Cuál de estos países 
no formaba la URSS?","Azeribayán","Afganistán","","0","0","1","individual","left","1.4674539566","2507.65086794","3.5325460434","2511.3388989","5.18995809555","2516.52892208","0.810041904449","2517.3735981","2518.686656","2518.72348404","2521.72645688","0","2521.74187899","2529.72403789",""
"sujeto_151573d2","1","3","14","78","2529.87599993","inverse","1","1","1","¿En qué año se inauguró
 el teatro Solís?","1867","1856","","0","0","0","competitive","right","2.05701398849","2531.93306208","2.94298601151","2535.0333221","3.52071404457","2538.55409288","2.47928595543","2541.08570409","2542.14199996","2542.22088408","2545.22387099","0","2545.23707795","2551.88488507",""
"sujeto_151573d2","1","3","15","79","2552.039397","direct","1","1","4","¿A qué velocidad vuela 
el avión más rápido?","3529","3874","","0","0","0","competitive","right","1.11078310013","2553.1502471","3.88921689987","2557.19780302","3.54836010933","2560.74621606","2.45163989067","2563.24808908","2565.00358391","2565.08350205","2568.08649492","0","2568.10079408","2570.21107006",""
"sujeto_151573d2","1","3","16","80","2570.35464096","inverse","3","1","4","¿De qué año es la primer 
película cinematográfica?","1897","1888","","0","0","0","competitive","right","3.02566194534","2573.38037395","1.97433805466","2575.52178407","5.00658106804","2580.5284071","0.993418931961","2581.575526","2582.70847607","2582.7927289","2585.79570603","0","2585.81005502","2591.21983409",""
"sujeto_151573d2","1","3","17","81","2591.36218095","direct","2","1","3","¿Cuántos países 
tiene nuestro planeta?","191","194","","1","1","1","competitive","left","2.40576386452","2593.76805401","2.59423613548","2596.53398705","4.0455801487","2600.57960796","1.9544198513","2602.56982303","2603.92704701","2604.00405502","2607.00704002","1","2607.02106309","2610.2593689",""
"sujeto_151573d2","1","3","18","82","2610.422822","inverse","2","1","2","¿Cuántos habitantes
 tiene Buenos Aires?","2.9000.000","3650000","","0","0","0","competitive","left","1.40081596375","2611.8237021","3.59918403625","2615.57785702","3.23278307915","2618.81067896","2.76721692085","2621.62859106","2623.02584887","2623.09605289","2626.09903002","0","2626.11430597","2631.94366288",""
"sujeto_151573d2","1","3","19","83","2632.08551002","direct","2","1","1","¿Cuántos kilos forman una tonelada?","1000","1500","left","1","1","1","competitive","left","1.46724414825","2633.55279708","3.53275585175","2637.23941994","3.98137497902","2641.22083402","2.01862502098","2643.29050994","2645.17783689","2645.25817394","2648.26115298","1","2648.27519202","2654.23263288",""
"sujeto_151573d2","1","3","20","84","2654.3766129","inverse","4","1","4","¿Cuántos estados tiene la 
República del Perú? ","24","23","","0","0","1","competitive","right","0.992367982864","2655.36905289","4.00763201714","2659.53407001","3.45992302895","2662.99403787","2.54007697105","2665.56848907","2666.59065795","2666.67010999","2669.67309093","0","2669.68708205","2674.63239503",""
"sujeto_151573d2","1","3","21","85","2674.77148008","direct","3","1","3","¿En qué año nació Cristóbal Colón? ","1451","1447","","0","0","1","competitive","left","0.979602098465","2675.75116491","4.02039790154","2679.92718792","3.81995201111","2683.74720907","2.18004798889","2685.97750401","2687.82342005","2687.89541888","2690.898386","0","2690.91272306","2695.14072704",""
"sujeto_151573d2","1","3","22","86","2695.29842091","inverse","4","1","4","¿Cuánto mide la 
Montaña Aconcagua? ","6234","6962","","0","0","1","competitive","right","0.683847904205","2695.98233104","4.31615209579","2700.47237301","3.38789796829","2703.86031199","2.61210203171","2706.52353287","2707.81291199","2707.89110303","2710.89410496","0","2710.90838408","2718.09200406",""
"sujeto_151573d2","1","3","23","87","2718.24651599","direct","2","1","4","¿Cuánto mide el punto
 más profundo del océano? ","12508","11003","","0","0","1","competitive","right","2.93196797371","2721.17853904","2.06803202629","2723.41695094","4.5185379982","2727.935534","1.4814620018","2729.46971488","2730.7212069","2730.80396605","2733.80696201","0","2733.82020187","2738.02645588",""
"sujeto_151573d2","1","3","24","88","2738.22099209","inverse","1","1","3","¿Cuántos álbumes ha publicado 
el cantante Jaime Roos? ","41","34","","0","0","1","competitive","left","0.981586933136","2739.2026279","4.01841306686","2743.37790895","5.03868484497","2748.41665196","0.961315155029","2749.42962694","2750.91946006","2750.99649096","2753.99949789","0","2754.01447201","2760.20881391",""
"sujeto_151573d2","1","3","25","89","2760.40282202","direct","4","1","3","¿En qué año nació el 
ex-presidente Jorge Battle? ","1921","1927","","1","1","1","competitive","right","0.941940069199","2761.34483194","4.0580599308","2765.569278","4.28956890106","2769.85891795","1.71043109894","2771.62173986","2773.35243607","2773.438694","2776.44169593","1","2776.45601988","2779.94207191",""
"sujeto_151573d2","1","3","26","90","2780.07440591","inverse","1","1","3","¿Cuántas presidencias 
constitucionales  hubo en Uruguay? ","41","42","","0","0","1","competitive","right","1.12352204323","2781.19800091","3.87647795677","2785.21676588","4.5132329464","2789.73004699","1.4867670536","2791.26781392","2792.47158003","2792.5517199","2795.5547049","0","2795.56902194","2801.34881592",""
"sujeto_151573d2","1","3","27","91","2801.49009204","direct","1","1","2","¿Quién escribió mas sinfonías?","Mozart","Haydn","","1","1","0","competitive","left","1.22604012489","2802.71620798","3.77395987511","2806.64443493","3.76175999641","2810.40624309","2.23824000359","2812.67823195","2813.89569092","2813.98038888","2816.98338294","1","2816.99758101","2820.74901795",""
"sujeto_151573d2","1","3","28","92","2820.89863706","inverse","4","1","2","¿En qué año nació Michael Jackson?","1958","1953","","1","1","1","individual","left","1.17460608482","2822.07331991","3.82539391518","2826.05495501","3.39730596542","2829.45230389","2.60269403458","2832.10502005","2834.08324289","2834.12295198","2837.12592506","1","2837.14041901","2843.00274706",""
"sujeto_151573d2","1","3","29","93","2843.13965702","direct","3","1","2","¿En qué año entró en vigencia 
la ley antitabaco en Uruguay?","2005","2006","","1","1","1","competitive","left","0.987774133682","2844.1274941","4.01222586632","2848.29908895","5.80738401413","2854.10651898","0.19261598587","2854.33494091","2855.92970896","2856.00108504","2859.00403309","1","2859.01939797","2864.35339308",""
"sujeto_151573d2","1","3","30","94","2864.4873271","inverse","3","1","1","¿Cuándo se subió el 
primer video a youtube?","2004","2005","","0","0","1","individual","left","1.3842010498","2865.87156892","3.6157989502","2869.64401507","4.51259994507","2874.15667391","1.48740005493","2875.67883801","2876.98450589","2877.02992702","2880.03286695","0","2880.04615688","2887.80177402",""
"sujeto_151573d2","1","3","31","95","2887.93182302","direct","2","1","1","¿Cuántos habitantes tiene India?","1200 millones","1300 millones","","0","0","0","competitive","right","1.12690997124","2889.05880499","3.87309002876","2893.07336402","3.16838121414","2896.24178791","2.83161878586","2899.12355089","2901.09318805","2901.17512608","2904.17812204","0","2904.1922369","2910.23972392",""
"sujeto_151573d2","1","3","32","96","2910.39359593","inverse","4","1","2","¿A qué edad murió Bob Marley?","36","37","","0","0","1","individual","left","2.98345685005","2913.37713289","2.01654314995","2915.56540108","2.98152804375","2918.54698801","3.01847195625","2921.60226798","2923.50012708","2923.53741002","2926.54038191","0","2926.55447602","2929.65681005",""
"sujeto_151573d2","1","4","1","97","3052.23362207","direct","2","1","1","¿Cuantos años dirigió la selección 
uruguaya Tabarez?","15 años","13 años","","0","0","0","individual","left","2.39838910103","3054.63205791","2.60161089897","3057.39024806","3.86773514748","3061.25802708","2.13226485252","3063.44296789","3064.6340971","3064.67767787","3067.68065906","0","3067.69476199","3074.76680994","2929.67184901"
"sujeto_151573d2","1","4","2","98","3074.91286802","inverse","4","1","1","¿Cuantas teclas tiene un teclado 
de computadora generalmente? ","Entre 99 y 108","Entre 109 y 113","","1","1","1","individual","right","1.37132000923","3076.28426504","3.62867999077","3080.082937","5.07421898842","3085.15722203","0.925781011581","3086.118541","3087.12075686","3087.16926789","3090.17222691","1","3090.18647909","3092.55792308",""
"sujeto_151573d2","1","4","3","99","3092.68785691","direct","1","1","1","¿Cuál Departamento tiene
 mayor superficie?","Río Negro","Soriano","","0","0","0","competitive","right","1.4684510231","3094.1563549","3.5315489769","3097.82978702","3.88155007362","3101.7113781","2.11844992638","3103.88036299","3105.59279609","3105.66511488","3108.66807294","0","3108.68242598","3113.00849509",""
"sujeto_151573d2","1","4","4","100","3113.13378286","inverse","3","1","2","¿Cuál es el apellido de las 
hermanastras  de  cenicienta?","Tremaine","Truman","","0","0","1","individual","left","1.85458397865","3114.98843288","3.14541602135","3118.30718207","5.2053091526","3123.51255298","0.794690847397","3124.358742","3126.22830701","3126.27589488","3129.27885008","0","3129.2939229","3131.98985887",""
"sujeto_151573d2","1","4","5","101","3132.16177702","direct","4","1","4","¿Cuál película ganó un
 Oscar a mejor película?","Alto Impacto","Cache","","0","0","1","competitive","left","0.870933055878","3133.03283095","4.12906694412","3137.3497479","4.75376105309","3142.10354304","1.24623894691","3143.40172601","3144.52104187","3144.60296202","3147.60594487","0","3147.62006402","3149.88470602",""
"sujeto_151573d2","1","4","6","102","3150.03862906","inverse","1","1","3","¿A cuántos centímetros
equivale la medida pié?","25","30","","0","0","1","competitive","right","1.34615492821","3151.38485193","3.65384507179","3155.19295788","5.08383393288","3160.27683187","0.916166067123","3161.24508309","3162.28477502","3162.36191702","3165.36489987","0","3165.37841201","3170.77937603",""
"sujeto_151573d2","1","4","7","103","3170.9131999","direct","2","1","2","¿Qué departamento es mas grande?","Cerro Largo","Paysandú","","0","0","0","competitive","left","1.25168395042","3172.16492605","3.74831604958","3176.05381298","2.88620185852","3178.94007492","3.11379814148","3182.10413003","3183.70384288","3183.78974104","3186.79273391","0","3186.80685186","3190.91684699",""
"sujeto_151573d2","1","4","8","104","3191.05813408","inverse","2","1","3","¿Quién pintó la Mona Lisa?","Picasso","Da Vinci","right","0","0","1","competitive","right","1.00613999367","3192.06435704","3.99386000633","3196.21352887","2.67871904373","3198.89228797","3.32128095627","3202.24847102","3203.85429907","3203.93294406","3206.93593287","1","3206.95100188","3209.11331797",""
"sujeto_151573d2","1","4","9","105","3209.268682","direct","4","1","3","¿Cuántos litros hay en un galon?","3.54","3.78","","1","1","1","competitive","left","1.01974916458","3210.28853106","3.98025083542","3214.4415319","3.8699491024","3218.31154203","2.1300508976","3220.49206996","3222.00878501","3222.09268188","3225.09566689","1","3225.10993505","3230.90229607",""
"sujeto_151573d2","1","4","10","106","3231.04488707","inverse","4","1","1","¿Cuántas teclas tiene
 un piano moderno?","80","88","","0","0","1","competitive","right","3.19676995277","3234.24169993","1.80323004723","3236.20240402","3.73527503014","3239.9377389","2.26472496986","3242.25294399","3243.26143193","3243.33779287","3246.34078908","0","3246.35427999","3253.15202904",""
"sujeto_151573d2","1","4","11","107","3253.30647492","direct","4","1","3","¿Cuántos países hay en África?","54","62","","0","0","1","competitive","left","0.757446050644","3254.06400108","4.24255394936","3258.46079588","3.26018404961","3261.72104597","2.73981595039","3264.49566293","3266.18619108","3266.26459002","3269.26480389","0","3269.28228998","3277.08703899",""
"sujeto_151573d2","1","4","12","108","3277.21663499","inverse","1","1","3","¿En qué siglo se crearon
 las primeras pistolas?","XV","XIII","","1","1","1","competitive","right","1.21947789192","3278.43615699","3.78052210808","3282.3768971","4.70534110069","3287.08228302","1.29465889931","3288.42778397","3290.37567806","3290.46190596","3293.46490693","1","3293.4798739","3296.71285987",""
"sujeto_151573d2","1","4","13","109","3296.84813499","direct","3","1","4","¿En qué año se estrenó 
la serie friends?","1994","1995","","0","0","1","competitive","right","1.03119492531","3297.87937593","3.96880507469","3302.00148201","3.79091405869","3305.79245806","2.20908594131","3308.05345392","3309.92879796","3310.00371909","3313.00523686","0","3313.02206898","3318.02813888",""
"sujeto_151573d2","1","4","14","110","3318.17263699","inverse","3","1","4","¿En qué año nació Hitler?","1889","1887","","0","0","1","competitive","right","1.01893687248","3319.19164109","3.98106312752","3323.31505394","3.59658098221","3326.911695","2.40341901779","3329.34893298","3330.46333694","3330.53369498","3333.53664303","0","3333.54986405","3338.57687187",""
"sujeto_151573d2","1","4","15","111","3338.71833396","direct","1","1","4","¿Cuánto pesa un elefante Africano?","6000 kilos","5400 kilos","","0","0","0","competitive","left","1.3514149189","3340.06981301","3.6485850811","3343.87523293","3.59054303169","3347.46584105","2.40945696831","3349.92602801","3351.2819519","3351.36108708","3354.36404705","0","3354.37807298","3361.08514595",""
"sujeto_151573d2","1","4","16","112","3361.23003793","inverse","1","1","2","¿Qué porcentaje de 
la población es zurda?","10%","7%","","1","1","0","competitive","left","1.40989899635","3362.63998389","3.59010100365","3366.38588691","4.54716706276","3370.93309593","1.45283293724","3372.42153001","3373.664608","3373.73906398","3376.74202895","1","3376.75613093","3382.73588109",""
"sujeto_151573d2","1","4","17","113","3382.87418103","direct","1","1","2","¿En qué año se estrenó
Volver al futuro?","1984","1985","","0","0","1","competitive","right","0.983021020889","3383.85724902","4.01697897911","3388.03024197","4.39400982857","3392.42428994","1.60599017143","3394.0657599","3395.62755394","3395.69995403","3398.70294809","0","3398.71732807","3405.80879188",""
"sujeto_151573d2","1","4","18","114","3405.95220399","inverse","3","1","2","¿Cuántos jugadores hay en un 
equipo de baseball?","9","8","","1","1","0","competitive","left","1.46719002724","3407.4194541","3.53280997276","3411.11104488","4.21543884277","3415.32652092","1.78456115723","3417.16204405","3418.77631807","3418.86237597","3421.8648181","1","3421.88016891","3426.8574121",""
"sujeto_151573d2","1","4","19","115","3427.0145731","direct","2","1","1","¿Cuántos Oscar ganó
 la película titanic?","13","11","","1","1","1","individual","left","3.91910099983","3430.93373895","1.08089900017","3432.17240095","4.00233602524","3436.17479992","1.99766397476","3438.22337008","3439.52545905","3439.57452893","3442.57751203","1","3442.59100699","3447.19279194",""
"sujeto_151573d2","1","4","20","116","3447.34263587","inverse","4","1","4","¿En qué año comenzó
la segunda guerra mundial?","1939","1976","left","0","0","1","competitive","left","0.880227088928","3448.22290707","4.11977291107","3452.49768901","3.224173069","3455.72192788","2.775826931","3458.54959607","3460.34946299","3460.43438196","3463.43736506","1","3463.45142603","3467.43857694",""
"sujeto_151573d2","1","4","21","117","3467.5869689","direct","2","1","4","¿Cuántos biomas hay en Uruguay?","5","4","","0","0","1","competitive","left","1.00308799744","3468.590101","3.99691200256","3472.74156189","3.21552705765","3475.95713305","2.78447294235","3478.775738","3480.57308698","3480.6431849","3483.64617991","0","3483.66145897","3489.91084695",""
"sujeto_151573d2","1","4","22","118","3490.04633689","inverse","2","1","3","¿Cuándo murió Pablo Escobar?","1993","1997","","1","1","1","competitive","right","1.53695011139","3491.5833559","3.46304988861","3495.18810391","3.19421601295","3498.38237691","2.80578398705","3501.21813107","3503.00096297","3503.06920505","3506.072191","1","3506.08748698","3511.78877091",""
"sujeto_151573d2","1","4","23","119","3511.92227006","direct","1","1","4","¿Qué serie ha ganado mas premios?","Friends","Murphy Brown","","1","1","0","competitive","left","0.92518901825","3512.84751701","4.07481098175","3517.08316493","4.0893368721","3521.17254305","1.9106631279","3523.13429999","3524.48671794","3524.56789708","3527.57087398","1","3527.58521199","3533.146842",""
"sujeto_151573d2","1","4","24","120","3533.28708887","inverse","4","1","2","¿Cuántas fichas tiene el dominó?","26","28","","1","1","1","individual","right","1.86852908134","3535.15566206","3.13147091866","3538.44493508","4.54276394844","3542.98776102","1.45723605156","3544.47869205","3545.53401995","3545.57974291","3548.58270097","1","3548.59634399","3553.83944488",""
"sujeto_151573d2","1","4","25","121","3553.98176694","direct","2","1","4","¿Cuántos son los dientes de leche?","20","25","","0","0","1","competitive","right","0.882043838501","3554.86387491","4.1179561615","3559.15292096","3.90997695923","3563.06295896","2.09002304077","3565.18806195","3566.89843106","3566.97210288","3569.972785","0","3569.99020886","3572.13590002",""
"sujeto_151573d2","1","4","26","122","3572.27520108","inverse","3","1","3","¿Cuántos gramos son una onza?","22","28","","0","0","1","competitive","left","0.807842969894","3573.08309007","4.19215703011","3577.43137288","3.55172991753","3580.983145","2.44827008247","3583.48193502","3585.47676086","3585.54996204","3588.55288291","0","3588.56713796","3594.85679507",""
"sujeto_151573d2","1","4","27","123","3595.00289607","direct","3","1","1","¿Cuándo salió el primer album
 de los Beatles?","1963","1962","","1","1","1","individual","right","1.27738404274","3596.28032494","3.72261595726","3600.15917492","4.91606688499","3605.07528496","1.08393311501","3606.21105003","3607.37467599","3607.41211009","3610.412817","1","3610.42899799","3614.20077991",""
"sujeto_151573d2","1","4","28","124","3614.330374","inverse","3","1","3","¿Quién fundó la empresa apple?","Carlos Slim","Steve Jobs","","1","1","1","","","","","","","","","","","","","","","3619.35258293","3625.65040708",""
"sujeto_151573d2","1","4","29","125","3625.78434706","direct","4","1","2","¿Cuántos municipios hay
 en Montevideo?","8","7","","1","1","1","competitive","left","1.52313113213","3627.30752087","3.47686886787","3630.94255996","3.54598689079","3634.48859096","2.45401310921","3636.97713995","3638.89191604","3638.97773695","3641.98073101","1","3641.99603295","3644.0771811",""
"sujeto_151573d2","1","4","30","126","3644.21372104","inverse","1","1","1","¿Cuántos kilómetros hay
 de Montevideo a Artigas?","632","599","","0","0","0","competitive","left","1.66899108887","3645.88277507","3.33100891113","3649.3847971","3.97394609451","3653.35879087","2.02605390549","3655.435956","3656.91911006","3657.00309205","3660.00527906","0","3660.02025795","3666.07237291",""
"sujeto_151573d2","1","4","31","127","3666.2224319","direct","2","1","2","¿En qué año nació 
Leonardo Da Vinci?","1452","1511","","1","1","0","competitive","left","0.753487110138","3666.97599101","4.24651288986","3671.39558101","4.26837992668","3675.66400409","1.73162007332","3677.44553804","3679.29914594","3679.3796711","3682.38080692","1","3682.39708805","3685.54349494",""
"sujeto_151573d2","1","4","32","128","3685.68214989","inverse","3","1","1","¿A qué continente
 pertenece el país Gabón?","Africa","Oceanía","","0","0","1","individual","left","1.19297289848","3686.87520504","3.80702710152","3690.84011793","3.94294691086","3694.78312898","2.05705308914","3696.87438798","3698.68476796","3698.72549009","3701.72846007","0","3701.74381399","3706.98171687",""
