"code","nro_aplicante","nro_bloque","nro_trial_bloque","nro_trial_global","show_game_type","choice_order","rival","pay_individual","pay_competitive","question","answer_left_text","answer_right_text","correct_answer","outcome_individual","outcome_competitive","outcome_rival","game_type","answer","social_time","rt_game_type","feedback_delay","show_question","answer_time","rt_answer_global","feedback_delay_2","show_jitter","jitter_time","show_outcome","outcome_time","outcome_participant_real","show_final_jitter","second_jitter_time","inicio_descanso"
"sujeto_0028207","1","1","1","1","731.483127117","direct","3","1","4","¿Cuántos centímetros corresponden
al talle 36 del calzado?","23","24","","0","0","1","individual","right","2.87057995796","734.353748083","2.12942004204","736.656417131","5.10621714592","741.762696981","0.89378285408","742.689815998","743.718106031","743.757107973","746.760076046","0","746.774216175","748.93675518",""
"sujeto_0028207","1","1","2","2","749.093101025","inverse","3","1","2","¿Cuántas metros mide la Intendencia
Municipal de Montevideo? ","84","78","","0","0","1","individual","left","2.67857289314","751.771741152","2.32142710686","754.262960196","2.50867700577","756.771673203","3.49132299423","760.31615901","762.192608118","762.234592199","765.236613035","0","765.251626015","767.344383001",""
"sujeto_0028207","1","1","3","3","767.470581055","direct","1","1","3","¿Cuántas La Pasiva
 hay en uruguay?","15","11","","1","1","1","individual","left","1.26619005203","768.736816168","3.73380994797","772.625368118","2.89438414574","775.519811153","3.10561585426","778.65884614","780.270484209","780.310029984","783.313000202","1","783.327875137","787.604641199",""
"sujeto_0028207","1","1","4","4","787.779139996","inverse","3","1","3","¿De que color es la camiseta de uruguay?","blanca","celeste","right","1","1","1","competitive","right","2.67459106445","790.453805208","2.32540893555","792.934131145","1.84461116791","794.778783083","4.15538883209","798.966907024","800.17162919","800.253043175","803.256021976","1","803.27021718","806.724097013",""
"sujeto_0028207","1","1","5","5","806.854737043","direct","2","1","1","¿Cuánto metros mide
la torre Eiffel?","333","324","","1","1","1","individual","right","1.71803593636","808.572822094","3.28196406364","812.012919188","2.01078510284","814.02374506","3.98921489716","818.045791149","819.567176104","819.61442709","822.617408037","1","822.631525993","829.664648056",""
"sujeto_0028207","1","1","6","6","829.816738129","inverse","3","1","4","¿Cuantas ciudades existen
 en todo el uruguay?","63","72","","0","0","1","individual","left","3.15396213531","832.97074604","1.84603786469","834.971393108","2.80634617805","837.777798176","3.19365382195","841.024304152","842.079059124","842.126302004","845.129253149","0","845.143654108","852.770237207",""
"sujeto_0028207","1","1","7","7","852.910933018","direct","1","1","1","¿Cuantos estados tiene África?","52","54","","1","1","0","competitive","left","1.77982902527","854.690809011","3.22017097473","858.070135117","2.56370902061","860.633888006","3.43629097939","864.102725983","865.966749191","866.038295984","869.04126811","1","869.055579185","874.816590071",""
"sujeto_0028207","1","1","8","8","874.990296125","inverse","4","1","4","¿En qué año nació
 Stephen Hawking?","1952","1942","","0","0","1","","","","","","","","","","","","","","","880.014370203","886.112637043",""
"sujeto_0028207","1","1","9","9","886.249178171","direct","2","1","3","¿Cuánto años tenía Artigas
 cuando se fue a Paraguay?","56","57","","1","1","1","competitive","left","1.4166021347","887.665825129","3.5833978653","891.403423071","2.35639500618","893.759881973","3.64360499382","897.453163147","899.002643108","899.07162714","902.072646141","1","902.089550018","908.136864185",""
"sujeto_0028207","1","1","10","10","908.27337718","inverse","1","1","2","¿Cuantos milímetros 
mide una hoja A2?","420x592","420x594","","0","0","1","competitive","right","1.95747494698","910.230905056","3.04252505302","913.431855202","2.88984203339","916.321753025","3.11015796661","919.481081009","921.048674107","921.132483006","924.13548708","0","924.149343014","931.220650196",""
"sujeto_0028207","1","1","11","11","931.368194103","direct","3","1","3","¿Cuál es la menor temperatura 
registrada en Uruguay?","-5.4","-7.4","","0","0","1","individual","left","2.4474978447","933.815731049","2.5525021553","936.52288413","3.51794099808","940.040884972","2.48205900192","942.57526803","944.256635189","944.293500185","947.296466112","0","947.310643196","951.043940067",""
"sujeto_0028207","1","1","12","12","951.19611907","inverse","2","1","2","¿Cuantos años hace que 
se fundó facebook?","18","17","","0","0","0","competitive","left","2.02172994614","953.21789813","2.97827005386","956.351673126","3.13310408592","959.484815121","2.86689591408","962.386816025","963.759551048","963.839357138","966.842344046","0","966.855576992","969.630218029",""
"sujeto_0028207","1","1","13","13","969.774429083","direct","1","1","4","¿Cuál animal es más
 pesado en promedio?","Rinoceronte","Hipopotamo","","0","0","0","competitive","left","2.03241991997","971.806891203","2.96758008003","974.928951025","3.25491786003","978.183910131","2.74508213997","980.979711056","982.058954","982.131929159","985.134912014","0","985.14893508","988.989940166",""
"sujeto_0028207","1","1","14","14","989.183891058","inverse","1","1","2","¿Qué personaje de dragon ball 
murió más veces?","Chaoz","Krillin","","1","1","0","competitive","right","1.09697985649","990.280938148","3.90302014351","994.335971117","1.7569000721","996.092941999","4.2430999279","1000.3873651","1001.84519219","1001.92236018","1004.92534304","1","1004.93998909","1012.7129302",""
"sujeto_0028207","1","1","15","15","1012.8416431","direct","3","1","2","La universidad de oxford. 
existe desde:","1096","1249","","1","1","0","competitive","right","2.06620287895","1014.90791011","2.93379712105","1018.00063205","3.20222210884","1021.20291901","2.79777789116","1024.05199313","1025.10062313","1025.17066312","1028.17365503","1","1028.18779302","1034.8786552",""
"sujeto_0028207","1","1","16","16","1035.02273512","inverse","3","1","1","¿Qué escritor latino ganó antes
 el premio nobel?"," García Marquez","Neruda","","0","0","1","competitive","left","3.47908115387","1038.50188613","1.52091884613","1040.17971206","3.27914595604","1043.45890307","2.72085404396","1046.21390104","1047.95391107","1048.03145313","1051.03443503","0","1051.04961014","1054.51013803",""
"sujeto_0028207","1","1","17","17","1054.65087605","direct","4","1","3","¿Cuántos dientes tiene un
 tiburón blanco?","6000","3000","","0","0","1","individual","left","2.431016922","1057.08195806","2.568983078","1059.83824611","2.65564799309","1062.4939642","3.34435200691","1065.89081311","1066.92980099","1066.97588205","1069.97884202","0","1069.99280715","1074.80247998",""
"sujeto_0028207","1","1","18","18","1074.97718","inverse","4","1","1","¿Cuánto mide el paralelo Ecuador?","40.000km","70.000km","","0","0","1","individual","left","1.68668699265","1076.66393518","3.31331300735","1080.11728311","3.48363018036","1083.60097718","2.51636981964","1086.16512918","1088.12124705","1088.16733098","1091.17030406","0","1091.18469","1094.78726006",""
"sujeto_0028207","1","1","19","19","1094.93656611","direct","4","1","2","¿Cuál fue el primer libro 
de Stephen King?","Carrie","The Stand","","1","1","1","competitive","right","1.91438508034","1096.85102606","3.08561491966","1100.11120319","3.45271396637","1103.56395817","2.54728603363","1106.161443","1107.90474606","1107.97983718","1110.98069","1","1110.9968791","1115.4713192",""
"sujeto_0028207","1","1","20","20","1115.61487603","inverse","2","1","3","¿Qué civilización practicaba
 la momificación?","Grecia","Egipto","right","0","0","1","competitive","right","2.00005292892","1117.61497808","2.99994707108","1120.77015305","1.92475986481","1122.69495702","4.07524013519","1126.82204413","1128.76134419","1128.83990502","1131.84284806","1","1131.85810518","1136.08687401",""
"sujeto_0028207","1","1","21","21","1136.25966406","direct","4","1","4","¿Cuántos millones de visitas
 recibe google por minuto?","3.0","4.5","","0","0","1","competitive","left","2.3482439518","1138.60798216","2.6517560482","1141.432441","3.75649499893","1145.1889782","2.24350500107","1147.48319101","1148.99807215","1149.06690121","1152.06981516","0","1152.08391809","1159.20661211",""
"sujeto_0028207","1","1","22","22","1159.35288811","inverse","1","1","3","La máquina de fax. se inventó en:","1843","1960","","0","0","1","competitive","right","1.64109778404","1160.99405408","3.35890221596","1164.4943912","4.12856507301","1168.62300014","1.87143492699","1170.52795815","1171.77002001","1171.84624505","1174.849231","0","1174.8631351","1178.09669304",""
"sujeto_0028207","1","1","23","23","1178.23189211","direct","2","1","4","En la verdadera historia de los
 300 espartanos. habían:","300 soldados","4300 soldados","","1","1","1","competitive","left","1.60104799271","1179.83298302","3.39895200729","1183.387357","5.04254603386","1188.42994618","0.957453966141","1189.43878317","1190.70001101","1190.77151799","1193.77450013","1","1193.78973103","1197.59149408",""
"sujeto_0028207","1","1","24","24","1197.7244072","inverse","1","1","4","¿Cuántos milímetros crece
 el pelo por día?","0.4","0.04","","0","0","0","competitive","right","1.74850893021","1199.472965","3.25149106979","1202.89580703","3.19813203812","1206.09399915","2.80186796188","1208.94764805","1210.70837903","1210.78267503","1213.78564906","0","1213.79968715","1220.53476405",""
"sujeto_0028207","1","1","25","25","1220.71818113","direct","4","1","1","¿Cuánto mide la baldosa gris 
clásica de Montevideo?","22x22 cm.","20x20 cm.","","1","1","1","individual","right","4.23380017281","1224.95202804","0.766199827194","1225.87424517","4.57775712013","1230.45204306","1.42224287987","1231.91026306","1233.90549803","1233.9445641","1236.94753218","1","1236.96155405","1242.50435519",""
"sujeto_0028207","1","1","26","26","1242.66307616","inverse","2","1","2","¿Cuántas películas de rápidos
 y furiosos hay?","10","11","","1","1","0","competitive","right","2.09491705894","1244.75805497","2.90508294106","1247.81974316","2.55820608139","1250.37801003","3.44179391861","1253.868963","1255.226933","1255.3035152","1258.30648708","1","1258.320575","1260.35528517",""
"sujeto_0028207","1","1","27","27","1260.48881006","direct","3","1","1","¿Cuántos masters 1000
 ganó Del Potro?","1","2","","1","1","1","competitive","left","1.65315294266","1262.14202619","3.34684705734","1265.62940216","3.6485080719","1269.27794909","2.3514919281","1271.67964816","1273.43267107","1273.514117","1276.51709318","1","1276.53252316","1283.92888713",""
"sujeto_0028207","1","1","28","28","1284.066998","inverse","2","1","4","¿Cuántos meses dura el 
embarazo de una leona?","3 meses","4 meses","","0","0","1","competitive","left","1.94378805161","1286.01096821","3.05621194839","1289.22503901","2.6888859272","1291.91398406","3.3111140728","1295.2753861","1296.38646603","1296.45998406","1299.46069503","0","1299.47768497","1306.19669199",""
"sujeto_0028207","1","1","29","29","1306.32896399","direct","1","1","1","¿En qué año fue creado
 el sandwich?","1762","1653","","1","1","0","individual","right","2.67705607414","1309.00608706","2.32294392586","1311.50192618","2.72807693481","1314.23006201","3.27192306519","1317.55385113","1319.15236521","1319.18808699","1322.19100499","1","1322.20598221","1325.676615",""
"sujeto_0028207","1","1","30","30","1325.82394004","inverse","4","1","2","El nombre de la moneda de Vietnam es:","Dinar","Dong","","0","0","1","competitive","right","3.37302780151","1329.19701099","1.62697219849","1330.97977209","3.71719002724","1334.69702315","2.28280997276","1337.02804208","1338.46003318","1338.52973914","1341.53267717","0","1341.54688811","1347.71525812",""
"sujeto_0028207","1","1","31","31","1347.84801221","direct","2","1","1","¿cuantos aleteos puede dar 
un colibrí por segundo?","120","50","","0","0","0","individual","right","1.89904808998","1349.7471242","3.10095191002","1353.02292013","2.96212410927","1355.98510408","3.03787589073","1359.05824208","1360.79063511","1360.82593012","1363.82885814","0","1363.84402108","1368.0526731",""
"sujeto_0028207","1","1","32","32","1368.19575405","inverse","4","1","3","¿Qué altura promedio tienen
 los hombres uruguayos?","1.73 m","1.72 m","","1","1","1","individual","right","1.44227004051","1369.63808703","3.55772995949","1373.3519361","3.41901707649","1376.77099109","2.58098292351","1379.4018352","1380.66425419","1380.70305014","1383.706002","1","1383.72004199","1388.19595408",""
"sujeto_0028207","1","2","1","33","1583.88963103","direct","1","1","1","¿En qué año nació 
el actor Bradd Pitt?","1967","1963","","1","1","1","competitive","left","2.33912801743","1586.22882819","2.66087198257","1589.04875708","3.69940495491","1592.74822116","2.30059504509","1595.09706712","1596.1926682","1596.26496315","1599.2679441","1","1599.28119206","1605.2087822","1388.21103501"
"sujeto_0028207","1","2","2","34","1605.34995914","inverse","2","1","1","¿Cual es el segundo 
monte más alto?","Kanchenjunga","K2","","1","1","1","competitive","right","1.49624300003","1606.84627414","3.50375699997","1610.50624514","3.32381105423","1613.83011913","2.67618894577","1616.55750299","1618.00992799","1618.09209013","1621.09505415","1","1621.10946512","1624.53936815",""
"sujeto_0028207","1","2","3","35","1624.67761707","direct","3","1","1","¿Cuándo finalizó la construcción
 del Palacio Legislativo?","1925","1917","","0","0","1","individual","right","2.00657296181","1626.68426108","2.99342703819","1629.83354402","2.91758489609","1632.75118804","3.08241510391","1635.88306117","1637.52476716","1637.5682621","1640.57123518","0","1640.58579206","1646.28335619",""
"sujeto_0028207","1","2","4","36","1646.42014098","inverse","3","1","3","¿Cuántos integrantes tenía
 en su inicio  el cuarteto de nos?","3","4","","1","1","1","competitive","right","2.710034132","1649.13023901","2.289965868","1651.57716799","3.18204498291","1654.75925708","2.81795501709","1657.61177301","1658.7448802","1658.830199","1661.83316517","1","1661.84710002","1667.49692106",""
"sujeto_0028207","1","2","5","37","1667.6324122","direct","2","1","3","¿Qué valor tiene el número pi?","3.14","4.18","left","0","0","1","competitive","left","1.60778093338","1669.24025607","3.39221906662","1672.788239","1.72895598412","1674.51725411","4.27104401588","1678.81979108","1680.27397609","1680.355865","1683.35884404","1","1683.37343597","1690.28868198",""
"sujeto_0028207","1","2","6","38","1690.44084001","inverse","2","1","2","¿Cuál es la esperanza de vida
 en Uruguay?","75","77","","1","1","0","competitive","left","2.03035497665","1692.47123718","2.96964502335","1695.59843302","2.7018020153","1698.30028009","3.2981979847","1701.65053511","1703.30433106","1703.385818","1706.3888092","1","1706.40390301","1712.86686802",""
"sujeto_0028207","1","2","7","39","1713.02178407","direct","1","1","2","¿Cuantos pisos tiene la torre 
de las comunicaciones?","26","32","","1","1","0","competitive","right","2.04346585274","1715.06529307","2.95653414726","1718.17961121","1.90056610107","1720.08024502","4.09943389893","1724.22932601","1726.05809402","1726.13125801","1729.13423109","1","1729.14838314","1731.29259515",""
"sujeto_0028207","1","2","8","40","1731.43422318","inverse","2","1","4","¿En qué país sudamericano 
no hay McDonalds?","Bolivia","Venezuela","","0","0","1","competitive","right","1.60001516342","1733.03428316","3.39998483658","1736.58678198","3.3324201107","1739.91926503","2.6675798893","1742.63896108","1743.94833112","1744.02429914","1747.0247252","0","1747.04099107","1753.40071797",""
"sujeto_0028207","1","2","9","41","1753.54270911","direct","3","1","1","¿En qué año empieza
 la Edad Media?","476","512","","1","1","1","individual","right","1.71749711037","1755.26026917","3.28250288963","1758.69536304","3.52187800407","1762.21728802","2.47812199593","1764.74708104","1766.15082002","1766.19844103","1769.20142508","1","1769.21546221","1772.20401502",""
"sujeto_0028207","1","2","10","42","1772.35139203","inverse","3","1","4","¿Hace cuántos años surgió
 el ser humano?","200mil","300mil","","0","0","0","competitive","right","1.9789018631","1774.33036518","3.0210981369","1777.50713515","3.264108181","1780.77131104","2.735891819","1783.5425272","1785.4285841","1785.51039815","1788.51339316","0","1788.5285852","1791.83905816",""
"sujeto_0028207","1","2","11","43","1791.9805491","direct","3","1","4","¿Cuántas cuadras tiene
 actualmente 18 de julio? ","36","33","","0","0","1","competitive","","2.37670111656","1794.35731316","2.62329888344","1797.15377617","6","1803.15393519","0","1803.17047119","1804.87273502","1804.95472503","1807.95665216","0","1807.97271299","1812.69664001",""
"sujeto_0028207","1","2","12","44","1812.84180713","inverse","1","1","4","¿Qué juego de equipo se 
considera mas rápido?","Lacrosse","Badminton","","0","0","0","competitive","left","1.34046411514","1814.18233418","3.65953588486","1817.99505901","3.14724397659","1821.14234805","2.85275602341","1824.04603505","1825.2891171","1825.36458421","1828.36754107","0","1828.38156319","1836.37666607",""
"sujeto_0028207","1","2","13","45","1836.516222","direct","1","1","3","¿Qué promedio de edad 
vive una jirafa? ","25","20","","0","0","1","competitive","right","1.92213201523","1838.43842316","3.07786798477","1841.69223404","2.28996300697","1843.98223805","3.71003699303","1847.74254608","1849.50407505","1849.5780921","1852.58108997","0","1852.59538913","1858.55108619",""
"sujeto_0028207","1","2","14","46","1858.68038797","inverse","1","1","2","¿Cuántos grandes lagos hay?","7","5","","0","0","1","competitive","left","1.24589300156","1859.92632413","3.75410699844","1863.83682919","1.90547513962","1865.74234509","4.09452486038","1869.88709211","1871.17920208","1871.25612211","1874.25910211","0","1874.27338409","1882.09264803",""
"sujeto_0028207","1","2","15","47","1882.22499919","direct","3","1","2","¿Cuántos discos de estudio
 grabó Johhny Cash? ","54","43","","1","1","0","individual","right","1.81329894066","1884.03836012","3.18670105934","1887.38300014","3.40532708168","1890.78836608","2.59467291832","1893.43408704","1894.71273017","1894.75167704","1897.75466013","1","1897.76886821","1904.41978002",""
"sujeto_0028207","1","2","16","48","1904.57060218","inverse","4","1","1","¿Cuántos barrios tiene
 Montevideo? ","71","62","","0","0","1","individual","left","1.40774106979","1905.97838712","3.59225893021","1909.72757316","1.9736931324","1911.70133209","4.0263068676","1915.77757812","1916.78466201","1916.82948518","1919.8324492","0","1919.84638405","1925.30839109",""
"sujeto_0028207","1","2","17","49","1925.4479661","direct","3","1","3","¿Qué edad tiene Homero Simpson?","36","42","","0","0","1","competitive","right","2.52334308624","1927.97135901","2.47665691376","1930.60493398","1.71439790726","1932.31937313","4.28560209274","1936.63738012","1938.013376","1938.08934212","1941.09230018","0","1941.10646701","1945.49516916",""
"sujeto_0028207","1","2","18","50","1945.65814114","inverse","4","1","2","¿Cuántos países con monarquía 
hay en europa actualmente? ","6","10","","1","1","1","individual","left","1.60414099693","1947.26233006","3.39585900307","1950.81401205","2.86331796646","1953.67737103","3.13668203354","1956.84921813","1958.28747106","1958.33455515","1961.33748913","1","1961.35157204","1967.50834799",""
"sujeto_0028207","1","2","19","51","1967.65378499","direct","2","1","3","¿Cuántos capítulos de
 Friends existen? ","236","228","","1","1","1","competitive","right","1.55050992966","1969.20433807","3.44949007034","1972.8266561","2.82672691345","1975.65342307","3.17327308655","1978.86022615","1980.16576099","1980.24582005","1983.24863505","1","1983.2627821","1985.63838816",""
"sujeto_0028207","1","2","20","52","1985.78116703","inverse","1","1","3","¿Cuántas óperas compuso Mozart? ","27","22","","1","1","1","competitive","right","1.49814486504","1987.27935719","3.50185513496","1990.93607616","2.58726501465","1993.52340102","3.41273498535","1996.98604798","1998.27811003","1998.35469317","2001.35662508","1","2001.37147903","2008.6806221",""
"sujeto_0028207","1","2","21","53","2008.823807","direct","4","1","3","¿Cuántos mundiales de fútbol 
femenino ha realizado FIFA? ","9","7","","1","1","1","individual","right","2.46909809113","2011.2929821","2.53090190887","2013.99770308","2.59062004089","2016.58835816","3.40937995911","2020.04747701","2021.29117703","2021.33244705","2024.33537102","1","2024.34953713","2030.45196915",""
"sujeto_0028207","1","2","22","54","2030.60471416","inverse","3","1","2","¿Cuál es la temperatura 
media anual en Montevideo? ","17.5","16.3","","0","0","1","competitive","left","2.41957902908","2033.0243752","2.58042097092","2035.77311611","2.88324904442","2038.65642619","3.11675095558","2041.80945897","2043.74809003","2043.82808304","2046.83108902","0","2046.84532714","2053.4148581",""
"sujeto_0028207","1","2","23","55","2053.54752111","direct","2","1","2","¿En qué año se estrenó el
 videojuego The Sims? ","2000","2002","","0","0","0","competitive","left","2.00886917114","2055.5564611","2.99113082886","2058.71920419","2.21820402145","2060.93744802","3.78179597855","2064.769871","2066.63177204","2066.70507312","2069.70805311","0","2069.72308612","2077.11680007",""
"sujeto_0028207","1","2","24","56","2077.25825906","inverse","2","1","1","¿Cuál es la canción con 
mas covers? ","Yesterday","Stand by me","","0","0","0","competitive","right","1.13815402985","2078.39646602","3.86184597015","2082.41679215","2.88660502434","2085.30346203","3.11339497566","2088.46620512","2089.86476302","2089.95176315","2092.95474005","0","2092.96877503","2097.13960814",""
"sujeto_0028207","1","2","25","57","2097.28653097","direct","1","1","4","¿Cuánto duró la guerra
 de los 100 años?","116","123","","0","0","0","competitive","right","1.41693305969","2098.70353198","3.58306694031","2102.44416213","2.77527809143","2105.21948314","3.22472190857","2108.47701502","2109.95668221","2110.0282011","2113.03118014","0","2113.04611206","2115.36589718",""
"sujeto_0028207","1","2","26","58","2115.51465511","inverse","4","1","4","¿Qué color tiene la  bandera de Brasil?","Amarillo","Naranja","left","0","0","1","competitive","left","1.13275694847","2116.64747715","3.86724305153","2120.66948605","1.70791196823","2122.3774631","4.29208803177","2126.71948814","2128.28601003","2128.3714242","2131.37439704","1","2131.38864517","2134.42144513",""
"sujeto_0028207","1","2","27","59","2134.59054112","direct","4","1","3","¿Qué carabela de 
Colon no volvió del viaje?","Santa María","La pinta","","0","0","1","competitive","right","1.713793993","2136.3043952","3.286206007","2139.74688411","3.67852687836","2143.42545199","2.32147312164","2145.797122","2147.28815603","2147.36466098","2150.36757803","0","2150.38155699","2152.48102713",""
"sujeto_0028207","1","2","28","60","2152.63356519","inverse","4","1","4","¿Cuántos huesos tiene
 un adulto humano?","217","206","","0","0","1","competitive","left","1.17886400223","2153.8125","3.82113599777","2157.80445099","1.80498385429","2159.60954213","4.19501614571","2163.85508013","2165.12606001","2165.20715499","2168.21013713","0","2168.22410703","2176.05809903",""
"sujeto_0028207","1","2","29","61","2176.19251513","direct","1","1","1","¿Qué país africano fue 
fundado por esclavos?","Liberia","Chad","","0","0","0","competitive","right","0.875928163528","2177.06851721","4.12407183647","2181.34970117","2.86067605019","2184.21041512","3.13932394981","2187.38375401","2189.37532306","2189.45279717","2192.45576","0","2192.47005916","2200.46062112",""
"sujeto_0028207","1","2","30","62","2200.60526919","inverse","4","1","2","¿A cuánto asciende la cima
 del monte Everest?","7.990 mts","8.848 mts","","0","0","1","individual","left","1.93129014969","2202.53666711","3.06870985031","2205.78086019","2.81363391876","2208.59453416","3.18636608124","2211.83015919","2213.01500916","2213.06605816","2216.0690341","0","2216.08221602","2223.26626706",""
"sujeto_0028207","1","2","31","63","2223.41800618","direct","4","1","1","¿Cuál es el país mas chico?","Sealand","Luxemburgo","","1","1","1","individual","right","1.46948409081","2224.88755417","3.53051590919","2228.57441306","2.06711792946","2230.64159298","3.93288207054","2234.62448502","2236.48801112","2236.52690506","2239.52987504","1","2239.54467511","2242.66696715",""
"sujeto_0028207","1","2","32","64","2242.81272006","inverse","2","1","4","¿Cuántas pirámides hay en Egipto?","10000","11000","","1","1","1","competitive","left","1.6837618351","2244.49657416","3.3162381649","2247.96648717","2.41499304771","2250.38154316","3.58500695229","2254.00136805","2255.03495717","2255.12013221","2258.12065005","1","2258.13741612","2263.24466705",""
"sujeto_0028207","1","3","1","65","2392.42187905","direct","2","1","2","¿Cuál es el quinto país con 
mas extensión?","Canadá","Brasil","","1","1","0","competitive","left","1.41468000412","2393.83661413","3.58531999588","2397.59497213","2.60857605934","2400.20360518","3.39142394066","2403.644871","2404.9781661","2405.064255","2408.06724811","1","2408.08045697","2415.80683708","2263.25982618"
"sujeto_0028207","1","3","2","66","2415.94867611","inverse","1","1","2","¿Qué rasgo facial no tiene
 la Mona Lisa?","Cejas","Pómulos","","0","0","1","competitive","left","2.51592302322","2418.46465802","2.48407697678","2421.1071341","3.44945001602","2424.55662799","2.55054998398","2427.15791512","2428.90834713","2428.9934442","2431.9963932","0","2432.01047015","2438.28062201",""
"sujeto_0028207","1","3","3","67","2438.42817307","direct","4","1","3","¿Cuál es el país con 
mayor población?","Esados Unidos","China","right","0","0","1","individual","right","1.64337396622","2440.07160902","3.35662603378","2443.58716798","1.91138696671","2445.49862218","4.08861303329","2449.65223217","2451.29821706","2451.33659506","2454.33954501","1","2454.35460711","2457.7219131",""
"sujeto_0028207","1","3","4","68","2457.85587502","inverse","1","1","1","La palabra dinosaurio significa","Lagarto Terrible","Lagarto Dragón","","1","1","0","competitive","right","1.62977910042","2459.48569918","3.37022089958","2463.0127492","4.04888892174","2467.06168199","1.95111107826","2469.06361604","2470.23394799","2470.31510115","2473.31809807","1","2473.33126616","2476.19309402",""
"sujeto_0028207","1","3","5","69","2476.31690717","direct","2","1","3","¿Qué es el membrillero?","Arbol","Arbusto","","0","0","0","competitive","right","2.49291801453","2478.80993104","2.50708198547","2481.48934317","2.42925810814","2483.91866708","3.57074189186","2487.52167106","2489.47576213","2489.55662918","2492.55959415","0","2492.57503915","2499.03906107",""
"sujeto_0028207","1","3","6","70","2499.17585611","inverse","3","1","3","¿Alrededor de qué planeta orbita 
el satélite Europa?","Jupiter","Saturno","","1","1","1","competitive","left","1.96278500557","2501.13875413","3.03721499443","2504.34886718","1.31767606735","2505.66660905","4.68232393265","2510.39723921","2511.94205403","2512.016752","2515.01967907","1","2515.03383899","2517.239007",""
"sujeto_0028207","1","3","7","71","2517.36980009","direct","3","1","1","¿Donde fue el mundial de 
fútbol de 1954?","Suiza","Suecia","","1","1","1","competitive","left","1.60987687111","2518.97975206","3.39012312889","2522.51927519","3.17034101486","2525.68965602","2.82965898514","2528.57126403","2529.823879","2529.90569711","2532.90866804","1","2532.9230082","2536.83478999",""
"sujeto_0028207","1","3","8","72","2536.97521114","inverse","1","1","4","¿Cuál de los 7 enanitos
no tenía barba?","Bashful","Mudito","","1","1","0","competitive","right","1.76040506363","2538.73566008","3.23959493637","2542.117419","3.4661719799","2545.58365297","2.5338280201","2548.16905904","2549.74920416","2549.82098007","2552.82396007","1","2552.83769703","2557.76467299",""
"sujeto_0028207","1","3","9","73","2557.90651107","direct","3","1","2","¿Cual red social es
mas utilizada mundialmente?","Instagram","Facebook","","1","1","0","competitive","left","1.885160923","2559.79172206","3.114839077","2563.0981431","2.77448987961","2565.87267613","3.22551012039","2569.14749098","2571.06465507","2571.149719","2574.15270209","1","2574.16669607","2577.10118818",""
"sujeto_0028207","1","3","10","74","2577.23565912","inverse","4","1","1","¿Cuándo se inició la copa
 América de fútbol?","1916","1923","","1","1","1","competitive","left","1.46995711327","2578.70568013","3.53004288673","2582.390589","3.48407793045","2585.87473011","2.51592206955","2588.43846416","2590.33587909","2590.40673709","2593.4086132","1","2593.4237771","2596.07986116",""
"sujeto_0028207","1","3","11","75","2596.22585917","direct","3","1","4","¿Cuántos presidentes de EEUU
han muerto asesinados?","3","4","","0","0","1","competitive","left","1.43278717995","2597.65871119","3.56721282005","2601.38340807","2.8272497654","2604.21069717","3.1727502346","2607.41644001","2608.900419","2608.98582602","2611.98863602","0","2612.00285411","2615.64692307",""
"sujeto_0028207","1","3","12","76","2615.77146506","inverse","2","1","4","¿Cuántas veces participó EEUU
 en la copa América?","4","5","","0","0","1","competitive","left","1.03267192841","2616.80419111","3.96732807159","2620.92643309","2.85728001595","2623.78377318","3.14271998405","2626.96003819","2628.40415215","2628.47881317","2631.48180008","0","2631.49585104","2637.613029",""
"sujeto_0028207","1","3","13","77","2637.7471242","direct","4","1","1","¿Cuál de estos países 
no formaba la URSS?","Azeribayán","Afganistán","","0","0","1","competitive","left","1.42558813095","2639.17275715","3.57441186905","2642.90526509","3.28841686249","2646.19374919","2.71158313751","2648.95500708","2650.26808119","2650.33931208","2653.34229302","0","2653.35662508","2661.33663321",""
"sujeto_0028207","1","3","14","78","2661.47497821","inverse","1","1","1","¿En qué año se inauguró
 el teatro Solís?","1867","1856","","0","0","0","competitive","right","2.55068302155","2664.02570701","2.44931697845","2666.66295409","2.55577802658","2669.21878219","3.44422197342","2672.71809006","2673.77443409","2673.85263419","2676.85557914","0","2676.8696661","2683.51749015",""
"sujeto_0028207","1","3","15","79","2683.65496707","direct","1","1","4","¿A qué velocidad vuela 
el avión más rápido?","3529","3874","","0","0","0","competitive","left","1.65172100067","2685.30676317","3.34827899933","2688.82712603","3.34060287476","2692.16778803","2.65939712524","2694.8796742","2696.63516402","2696.71408105","2699.71708012","0","2699.73128819","2701.84064007",""
"sujeto_0028207","1","3","16","80","2701.98352718","inverse","3","1","4","¿De qué año es la primer 
película cinematográfica?","1897","1888","","0","0","0","competitive","left","1.7691590786","2703.75275517","3.2308409214","2707.13654518","2.82412409782","2709.96073604","3.17587590218","2713.1883471","2714.3213501","2714.40739703","2717.41038418","0","2717.42440319","2722.83417201",""
"sujeto_0028207","1","3","17","81","2722.97623205","direct","2","1","3","¿Cuántos países 
tiene nuestro planeta?","191","194","","1","1","1","competitive","left","1.26256394386","2724.23886704","3.73743605614","2728.13199806","2.80776286125","2730.93982005","3.19223713875","2734.18278909","2735.54000998","2735.6180191","2738.62063503","1","2738.63451099","2741.87264299",""
"sujeto_0028207","1","3","18","82","2742.01977706","inverse","2","1","2","¿Cuántos habitantes
 tiene Buenos Aires?","2.9000.000","3650000","","0","0","0","competitive","left","1.28594899178","2743.30577111","3.71405100822","2747.17494011","3.63078188896","2750.80578399","2.36921811104","2753.22631121","2754.6235652","2754.69391298","2757.69664216","0","2757.71074605","2763.54015207",""
"sujeto_0028207","1","3","19","83","2763.67890811","direct","2","1","1","¿Cuántos kilos forman una tonelada?","1000","1500","left","1","1","1","competitive","left","1.4048409462","2765.08381104","3.5951590538","2768.81955504","1.81522703171","2770.63485003","4.18477296829","2774.86989117","2776.75725603","2776.83835602","2779.84060812","1","2779.85578203","2785.81317306",""
"sujeto_0028207","1","3","20","84","2785.97420907","inverse","4","1","4","¿Cuántos estados tiene la 
República del Perú? ","24","23","","0","0","1","competitive","right","1.30047488213","2787.27472115","3.69952511787","2791.13222408","1.76145911217","2792.89373708","4.23854088783","2797.16397119","2798.18609118","2798.26648498","2801.26862717","0","2801.28362513","2806.2286191",""
"sujeto_0028207","1","3","21","85","2806.36923003","direct","3","1","3","¿En qué año nació Cristóbal Colón? ","1451","1447","","0","0","1","competitive","right","0.949547052383","2807.31882","4.05045294762","2811.53976512","2.34802412987","2813.88785005","3.65197587013","2817.57502913","2819.42064309","2819.51064301","2822.5135901","0","2822.5275712","2826.75556397",""
"sujeto_0028207","1","3","22","86","2826.89590216","inverse","4","1","4","¿Cuánto mide la 
Montaña Aconcagua? ","6234","6962","","0","0","1","competitive","right","0.838329076767","2827.73429513","4.16167092323","2832.05208707","2.4116859436","2834.46381497","3.5883140564","2838.08567905","2839.37503219","2839.45438814","2842.4573772","0","2842.47164297","2849.6526401",""
"sujeto_0028207","1","3","23","87","2849.80586219","direct","2","1","4","¿Cuánto mide el punto
 más profundo del océano? ","12508","11003","","0","0","1","competitive","left","2.29189515114","2852.09780908","2.70810484886","2854.9978931","2.28079605103","2857.27874517","3.71920394897","2861.04830599","2862.29981399","2862.38300419","2865.38466001","0","2865.39995098","2869.60622621",""
"sujeto_0028207","1","3","24","88","2869.75191998","inverse","1","1","3","¿Cuántos álbumes ha publicado 
el cantante Jaime Roos? ","41","34","","0","0","1","competitive","right","1.51388812065","2871.26585102","3.48611187935","2874.90793109","2.36678481102","2877.27474904","3.63321518898","2880.95804405","2882.4479022","2882.52650404","2885.52866602","0","2885.54358315","2891.73663616",""
"sujeto_0028207","1","3","25","89","2891.8787632","direct","4","1","3","¿En qué año nació el 
ex-presidente Jorge Battle? ","1921","1927","","1","1","1","competitive","left","1.23200798035","2893.11083603","3.76799201965","2897.03606915","3.12672901154","2900.16286111","2.87327098846","2903.06995916","2904.80068898","2904.87076402","2907.873703","1","2907.88885212","2911.3749001",""
"sujeto_0028207","1","3","26","90","2911.52348304","inverse","1","1","3","¿Cuántas presidencias 
constitucionales  hubo en Uruguay? ","41","42","","0","0","1","competitive","left","1.54634189606","2913.06988811","3.45365810394","2916.67941999","2.86143302917","2919.54091406","3.13856697083","2922.71283317","2923.91661716","2923.99771619","2927.00067806","0","2927.01482201","2932.79846907",""
"sujeto_0028207","1","3","27","91","2932.95008302","direct","1","1","2","¿Quién escribió mas sinfonías?","Mozart","Haydn","","1","1","0","competitive","left","0.752804994583","2933.70295811","4.24719500542","2938.10716105","2.63466286659","2940.74189115","3.36533713341","2944.15691304","2945.37440419","2945.45848918","2948.46146917","1","2948.47575617","2952.22716999",""
"sujeto_0028207","1","3","28","92","2952.37712407","inverse","4","1","2","¿En qué año nació Michael Jackson?","1958","1953","","1","1","1","competitive","left","1.81173706055","2954.18892407","3.18826293945","2957.56761098","2.83121204376","2960.39886713","3.16878795624","2963.61644912","2965.59465504","2965.66800499","2968.67097902","1","2968.68596101","2974.54828906",""
"sujeto_0028207","1","3","29","93","2974.68738818","direct","3","1","2","¿En qué año entró en vigencia 
la ley antitabaco en Uruguay?","2005","2006","","1","1","1","competitive","left","1.27950501442","2975.96693707","3.72049498558","2979.84386706","4.07500886917","2983.91891503","1.92499113083","2985.87965107","2987.47440815","2987.5468452","2990.54866719","1","2990.5648272","2995.89881206",""
"sujeto_0028207","1","3","30","94","2996.06603503","inverse","3","1","1","¿Cuándo se subió el 
primer video a youtube?","2004","2005","","0","0","1","competitive","right","1.11187195778","2997.17795801","3.88812804222","3001.22212601","2.32376790047","3003.54595399","3.67623209953","3007.27326798","3008.57893014","3008.65765214","3011.66065812","0","3011.67475605","3019.42868209",""
"sujeto_0028207","1","3","31","95","3019.57716799","direct","2","1","1","¿Cuántos habitantes tiene India?","1200 millones","1300 millones","","0","0","0","competitive","right","0.992696046829","3020.56992817","4.00730395317","3024.75163317","3.60925602913","3028.36094999","2.39074397087","3030.78580713","3032.75544119","3032.83717108","3035.84015203","0","3035.85430503","3041.90068316",""
"sujeto_0028207","1","3","32","96","3042.03955317","inverse","4","1","2","¿A qué edad murió Bob Marley?","36","37","","0","0","1","competitive","left","1.94440317154","3043.98402905","3.05559682846","3047.21371007","1.43115878105","3048.64493108","4.56884121895","3053.24665713","3055.14449501","3055.23254299","3058.23553014","0","3058.24956417","3061.35203314",""
"sujeto_0028207","1","4","1","97","3197.78727317","direct","2","1","1","¿Cuantos años dirigió la selección 
uruguaya Tabarez?","15 años","13 años","","0","0","0","competitive","right","2.53666591644","3200.32398105","2.46333408356","3202.97657609","1.90940284729","3204.88604403","4.09059715271","3209.02661109","3210.21773314","3210.29564714","3213.2986331","0","3213.31286812","3220.38487101","3061.36688209"
"sujeto_0028207","1","4","2","98","3220.53126216","inverse","4","1","1","¿Cuantas teclas tiene un teclado 
de computadora generalmente? ","Entre 99 y 108","Entre 109 y 113","","1","1","1","competitive","left","0.818765163422","3221.35009599","4.18123483658","3225.70491505","3.812073946","3229.51705003","2.187926054","3231.75603199","3232.75880909","3232.840482","3235.84356999","1","3235.8577621","3238.22868919",""
"sujeto_0028207","1","4","3","99","3238.35931516","direct","1","1","1","¿Cuál Departamento tiene
 mayor superficie?","Río Negro","Soriano","","0","0","0","competitive","left","0.858684062958","3239.21804404","4.14131593704","3243.51405811","3.10693097115","3246.62105107","2.89306902885","3249.56477118","3251.2782042","3251.34977007","3254.35267615","0","3254.36655807","3258.69265509",""
"sujeto_0028207","1","4","4","100","3258.83528209","inverse","3","1","2","¿Cuál es el apellido de las 
hermanastras  de  cenicienta?","Tremaine","Truman","","0","0","1","competitive","left","2.23270797729","3261.06803799","2.76729202271","3264.00880599","3.70610690117","3267.71497512","2.29389309883","3270.05767417","3271.92721415","3272.0077641","3275.00866318","0","3275.02595305","3277.72188616",""
"sujeto_0028207","1","4","5","101","3277.8605082","direct","4","1","4","¿Cuál película ganó un
 Oscar a mejor película?","Alto Impacto","Cache","","0","0","1","competitive","left","0.979608058929","3278.84022713","4.02039194107","3283.05064011","3.16933488846","3286.22002006","2.83066511154","3289.10144711","3290.2207942","3290.30317307","3293.30616903","0","3293.32039309","3295.58499813",""
"sujeto_0028207","1","4","6","102","3295.72160316","inverse","1","1","3","¿A cuántos centímetros
equivale la medida pié?","25","30","","0","0","1","individual","left","0.916491031647","3296.63814616","4.08350896835","3300.87644219","3.13860702515","3304.015095","2.86139297485","3306.92805004","3307.96805","3308.01234198","3311.01531601","0","3311.0294311","3316.43040013",""
"sujeto_0028207","1","4","7","103","3316.58076906","direct","2","1","2","¿Qué departamento es mas grande?","Cerro Largo","Paysandú","","0","0","0","competitive","left","0.973358869553","3317.55420208","4.02664113045","3321.75283504","2.75120806694","3324.5041101","3.24879193306","3327.80434513","3329.40410805","3329.4892571","3332.49223804","0","3332.50720501","3336.6171782",""
"sujeto_0028207","1","4","8","104","3336.75844407","inverse","2","1","3","¿Quién pintó la Mona Lisa?","Picasso","Da Vinci","right","0","0","1","competitive","right","0.832653045654","3337.59114313","4.16734695435","3341.91411614","1.37388205528","3343.28805614","4.62611794472","3347.96405506","3349.5695312","3349.64962101","3352.65261412","1","3352.66772199","3354.83003807",""
"sujeto_0028207","1","4","9","105","3354.96979308","direct","4","1","3","¿Cuántos litros hay en un galon?","3.54","3.78","","1","1","1","competitive","left","0.670239925385","3355.64007902","4.32976007462","3360.1399641","3.64804792404","3363.7880702","2.35195207596","3366.17486811","3367.69275403","3367.7761991","3370.77918005","1","3370.79331112","3376.58566403",""
"sujeto_0028207","1","4","10","106","3376.76191306","inverse","4","1","1","¿Cuántas teclas tiene
 un piano moderno?","80","88","","0","0","1","competitive","right","0.879100799561","3377.641078","4.12089920044","3381.91898513","2.95406699181","3384.87309504","3.04593300819","3387.96883202","3388.97667313","3389.05429602","3392.05667019","0","3392.07058811","3398.86834598",""
"sujeto_0028207","1","4","11","107","3399.02310705","direct","4","1","3","¿Cuántos países hay en África?","54","62","","0","0","1","competitive","left","1.61496281624","3400.63811302","3.38503718376","3404.18061399","3.06148695946","3407.24216914","2.93851304054","3410.21424198","3411.9047842","3411.98225117","3414.98524714","0","3415.00025702","3422.80068898",""
"sujeto_0028207","1","4","12","108","3422.9511621","inverse","1","1","3","¿En qué siglo se crearon
 las primeras pistolas?","XV","XIII","","1","1","1","competitive","left","0.736988782883","3423.68819618","4.26301121712","3428.12556815","2.51443910599","3430.64004612","3.48556089401","3434.17558813","3436.12350416","3436.19478607","3439.19667101","1","3439.21194601","3442.44503117",""
"sujeto_0028207","1","4","13","109","3442.58022904","direct","3","1","4","¿En qué año se estrenó 
la serie friends?","1994","1995","","0","0","1","competitive","left","0.879890918732","3443.46022511","4.12010908127","3447.75288415","3.16220498085","3450.91514707","2.83779501915","3453.7864182","3455.66063905","3455.73780918","3458.74063897","0","3458.75594997","3463.76198602",""
"sujeto_0028207","1","4","14","110","3463.90739512","inverse","3","1","4","¿En qué año nació Hitler?","1889","1887","","0","0","1","competitive","right","1.14573597908","3465.05317616","3.85426402092","3469.06382704","3.26828789711","3472.33215618","2.73171210289","3475.11467409","3476.22863603","3476.29945111","3479.30243802","0","3479.31651521","3484.34352899",""
"sujeto_0028207","1","4","15","111","3484.48484898","direct","1","1","4","¿Cuánto pesa un elefante Africano?","6000 kilos","5400 kilos","","0","0","0","competitive","right","0.856261014938","3485.3411622","4.14373898506","3489.65448308","2.11566519737","3491.77021408","3.88433480263","3495.70614505","3497.0620451","3497.14191103","3500.14488101","0","3500.15901709","3506.86606717",""
"sujeto_0028207","1","4","16","112","3507.01075602","inverse","1","1","2","¿Qué porcentaje de 
la población es zurda?","10%","7%","","1","1","0","competitive","right","0.86438202858","3507.87520719","4.13561797142","3512.18603516","2.22110819817","3514.4072082","3.77889180183","3518.23542905","3519.47853804","3519.55438805","3522.55738902","1","3522.57172704","3528.55146313",""
"sujeto_0028207","1","4","17","113","3528.6899972","direct","1","1","2","¿En qué año se estrenó
Volver al futuro?","1984","1985","","0","0","1","competitive","right","0.808142900467","3529.49820709","4.19185709953","3533.8464241","3.37369990349","3537.22016621","2.62630009651","3539.89765501","3541.45949411","3541.53281498","3544.53580499","0","3544.55002117","3551.64066315",""
"sujeto_0028207","1","4","18","114","3551.78462005","inverse","3","1","2","¿Cuántos jugadores hay en un 
equipo de baseball?","9","8","","1","1","0","individual","right","1.32652592659","3553.11119008","3.67347407341","3556.94230318","2.73483800888","3559.67718601","3.26516199112","3562.99212098","3564.60639811","3564.64430118","3567.64727116","1","3567.66189504","3572.6391201",""
"sujeto_0028207","1","4","19","115","3572.78007102","direct","2","1","1","¿Cuántos Oscar ganó
 la película titanic?","13","11","","1","1","1","competitive","left","0.760097980499","3573.54021502","4.2399020195","3577.93404198","2.96306085587","3580.89714098","3.03693914413","3583.96933699","3585.27134013","3585.35420799","3588.35719609","1","3588.37209511","3592.9747541",""
"sujeto_0028207","1","4","20","116","3593.12374997","inverse","4","1","4","¿En qué año comenzó
la segunda guerra mundial?","1939","1976","left","0","0","1","competitive","left","0.974448919296","3594.0982542","4.0255510807","3598.27987909","2.80432486534","3601.08426809","3.19567513466","3604.33069921","3606.13050604","3606.21600413","3609.21900606","1","3609.23319507","3613.21668005",""
"sujeto_0028207","1","4","21","117","3613.35107398","direct","2","1","4","¿Cuántos biomas hay en Uruguay?","5","4","","0","0","1","competitive","right","1.15611791611","3614.50727105","3.84388208389","3618.52349806","1.624573946","3620.14810514","4.375426054","3624.57336807","3626.37072802","3626.44238114","3629.44536018","0","3629.45981216","3635.70866203",""
"sujeto_0028207","1","4","22","118","3635.86164308","inverse","2","1","3","¿Cuándo murió Pablo Escobar?","1993","1997","","1","1","1","competitive","right","0.964583158493","3636.82629609","4.03541684151","3641.01866913","2.34349513054","3643.36222315","3.65650486946","3647.06943417","3648.85223818","3648.9207902","3651.92376518","1","3651.93839717","3657.64206004",""
"sujeto_0028207","1","4","23","119","3657.78978419","direct","1","1","4","¿Qué serie ha ganado mas premios?","Friends","Murphy Brown","","1","1","0","competitive","left","1.84442710876","3659.63425803","3.15557289124","3662.94565201","2.66751289368","3665.61320305","3.33248710632","3668.99707699","3670.34862709","3670.43175912","3673.43474197","1","3673.44946313","3679.01105714",""
"sujeto_0028207","1","4","24","120","3679.18450308","inverse","4","1","2","¿Cuántas fichas tiene el dominó?","26","28","","1","1","1","competitive","left","0.828724145889","3680.01330113","4.17127585411","3684.34046221","2.18873810768","3686.52924013","3.81126189232","3690.39122009","3691.44650507","3691.52629113","3694.52862716","1","3694.54384708","3699.78467107",""
"sujeto_0028207","1","4","25","121","3699.9281671","direct","2","1","4","¿Cuántos son los dientes de leche?","20","25","","0","0","1","competitive","left","0.706065177917","3700.63429618","4.29393482208","3705.10174417","1.78152298927","3706.88332701","4.21847701073","3711.1350081","3712.844625","3712.92017508","3715.92310119","0","3715.93829298","3718.08400202",""
"sujeto_0028207","1","4","26","122","3718.23971009","inverse","3","1","3","¿Cuántos gramos son una onza?","22","28","","0","0","1","competitive","right","0.870079994202","3719.1098392","4.1299200058","3723.39460206","2.82861399651","3726.22325516","3.17138600349","3729.42857099","3731.42343807","3731.49666119","3734.49964404","0","3734.51458001","3740.80483818",""
"sujeto_0028207","1","4","27","123","3740.94878316","direct","3","1","1","¿Cuándo salió el primer album
 de los Beatles?","1963","1962","","1","1","1","competitive","left","1.21150898933","3742.16039515","3.78849101067","3746.10292315","2.54732012749","3748.65028715","3.45267987251","3752.13814807","3753.30174899","3753.37343121","3756.37639213","1","3756.39040518","3760.1624372",""
"sujeto_0028207","1","4","28","124","3760.2920742","inverse","3","1","3","¿Quién fundó la empresa apple?","Carlos Slim","Steve Jobs","","1","1","1","competitive","right","0.715217113495","3761.00734305","4.28478288651","3765.4487381","1.55350899696","3767.00230908","4.44649100304","3771.49875808","3772.61343718","3772.68431211","3775.68730497","1","3775.70158911","3781.9994452",""
"sujeto_0028207","1","4","29","125","3782.13741899","direct","4","1","2","¿Cuántos municipios hay
 en Montevideo?","8","7","","1","1","1","competitive","right","0.811841964722","3782.94930506","4.18815803528","3787.32733917","2.00993514061","3789.33731914","3.99006485939","3793.37787509","3795.2926681","3795.3630352","3798.36602402","1","3798.3802011","3800.46134806",""
"sujeto_0028207","1","4","30","126","3800.59877801","inverse","1","1","1","¿Cuántos kilómetros hay
 de Montevideo a Artigas?","632","599","","0","0","0","competitive","right","0.80085682869","3801.39968801","4.19914317131","3805.75366902","3.29959201813","3809.05332804","2.70040798187","3811.80471706","3813.28784108","3813.37310004","3816.37606812","0","3816.39019918","3822.442312",""
"sujeto_0028207","1","4","31","127","3822.57502103","direct","2","1","2","¿En qué año nació 
Leonardo Da Vinci?","1452","1511","","1","1","0","competitive","right","1.6152639389","3824.19032907","3.3847360611","3827.731915","3.340321064","3831.07227707","2.659678936","3833.78247213","3835.63607216","3835.71697116","3838.71994901","1","3838.73503113","3841.88144708",""
"sujeto_0028207","1","4","32","128","3842.03593016","inverse","3","1","1","¿A qué continente
 pertenece el país Gabón?","Africa","Oceanía","","0","0","1","competitive","right","0.776324033737","3842.81231904","4.22367596626","3847.22439599","2.79789209366","3850.02235007","3.20210790634","3853.27560806","3855.0872612","3855.16020918","3858.16316319","0","3858.17735004","3863.41522598",""
