"code","nro_aplicante","nro_bloque","nro_trial_bloque","nro_trial_global","show_game_type","choice_order","rival","pay_individual","pay_competitive","question","answer_left_text","answer_right_text","correct_answer","outcome_individual","outcome_competitive","outcome_rival","game_type","answer","social_time","rt_game_type","feedback_delay","show_question","answer_time","rt_answer_global","feedback_delay_2","show_jitter","jitter_time","show_outcome","outcome_time","outcome_participant_real","show_final_jitter","second_jitter_time","inicio_descanso"
"sujeto_66362819","1","1","1","1","35.2240760326","direct","3","1","4","¿Cuántos centímetros corresponden
al talle 36 del calzado?","23","24","","0","0","1","competitive","right","1.91645884514","37.140597105","3.08354115486","40.3798220158","5.39885091782","45.7787201405","0.601149082184","46.4306659698","47.4589660168","47.531028986","50.534003973","0","50.5490701199","52.7116081715",""
"sujeto_66362819","1","1","2","2","52.8513810635","inverse","3","1","2","¿Cuántas metros mide la Intendencia
Municipal de Montevideo? ","84","78","","0","0","1","competitive","left","2.6661760807","55.517635107","2.3338239193","58.0061881542","5.02552008629","63.0317749977","0.974479913712","64.0583331585","65.9363741875","66.0085201263","69.0114569664","0","69.0271852016","71.1199581623",""
"sujeto_66362819","1","1","3","3","71.260445118","direct","1","1","3","¿Cuántas La Pasiva
 hay en uruguay?","15","11","","1","1","1","competitive","right","3.44820189476","74.7086911201","1.55179810524","76.4130141735","4.90357208252","81.3166480064","1.09642791748","82.4680821896","84.0797691345","84.1528100967","87.15371418","1","87.1700131893","91.4483599663",""
"sujeto_66362819","1","1","4","4","91.5723440647","inverse","3","1","3","¿De que color es la camiseta de uruguay?","blanca","celeste","right","1","1","1","competitive","left","2.76524591446","94.3376400471","2.23475408554","96.7400741577","3.95056200027","100.690706968","2.04943799973","102.793035984","103.997799158","104.076672077","107.07965517","0","107.094097137","110.548007965",""
"sujeto_66362819","1","1","5","5","110.68088913","direct","2","1","1","¿Cuánto metros mide
la torre Eiffel?","333","324","","1","1","1","competitive","left","2.70970821381","113.390655994","2.29029178619","115.85037303","3.64327287674","119.49368906","2.35672712326","121.905174971","123.426525116","123.505393028","126.508380175","1","126.523070097","133.55974102",""
"sujeto_66362819","1","1","6","6","133.694495201","inverse","3","1","4","¿Cuantas ciudades existen
 en todo el uruguay?","63","72","","0","0","1","competitive","right","2.52020001411","136.214764118","2.47979998589","138.864014149","5.51957607269","144.383664131","0.480423927307","144.917706966","145.972520113","146.050891161","149.053879023","0","149.068048","156.69464016",""
"sujeto_66362819","1","1","7","7","156.836938143","direct","1","1","1","¿Cuantos estados tiene África?","52","54","","1","1","0","competitive","left","2.5487010479","159.385706186","2.4512989521","161.992640972","4.35694503784","166.349629164","1.64305496216","168.045506001","169.90951705","169.996973038","172.999956131","1","173.014257193","178.775302172",""
"sujeto_66362819","1","1","8","8","178.931328058","inverse","4","1","4","¿En qué año nació
 Stephen Hawking?","1952","1942","","0","0","1","competitive","left","2.6403439045","181.571717024","2.3596560955","184.086839199","4.92379212379","189.01069212","1.07620787621","190.14056015","191.58489418","191.657018185","194.659999132","0","194.675191164","200.774538994",""
"sujeto_66362819","1","1","9","9","200.910365105","direct","2","1","3","¿Cuánto años tenía Artigas
 cuando se fue a Paraguay?","56","57","","1","1","1","competitive","left","2.27424001694","203.184678078","2.72575998306","206.066426039","5.06319689751","211.129665136","0.936803102493","212.101627111","213.650636196","213.735460997","216.738424063","1","216.752843142","222.800161123",""
"sujeto_66362819","1","1","10","10","222.938513994","inverse","1","1","2","¿Cuantos milímetros 
mide una hoja A2?","420x592","420x594","","0","0","1","competitive","right","1.58313703537","224.521720171","3.41686296463","228.095163107","5.28244185448","233.377645969","0.717558145523","234.146109104","235.713654041","235.797167063","238.800152063","0","238.813929081","245.887545109",""
"sujeto_66362819","1","1","11","11","246.035070181","direct","3","1","3","¿Cuál es la menor temperatura 
registrada en Uruguay?","-5.4","-7.4","","0","0","1","competitive","left","2.08856916428","248.123720169","2.91143083572","251.206614971","5.71394610405","256.920636177","0.28605389595","257.242079973","258.924122095","259.009361982","262.012327194","0","262.026684999","265.759984016",""
"sujeto_66362819","1","1","12","12","265.894705057","inverse","2","1","2","¿Cuantos años hace que 
se fundó facebook?","18","17","","0","0","0","competitive","left","1.77095198631","267.665699005","3.22904801369","271.050147057","3.86248803139","274.912676096","2.13751196861","277.083954096","278.456652164","278.534908056","281.537865162","0","281.552175045","284.326776028",""
"sujeto_66362819","1","1","13","13","284.455423117","direct","1","1","4","¿Cuál animal es más
 pesado en promedio?","Rinoceronte","Hipopotamo","","0","0","0","competitive","right","2.19522213936","286.650712013","2.80477786064","289.6264081","4.95525789261","294.581711054","1.04474210739","295.728036165","296.807314157","296.878664017","299.881658077","0","299.896131039","303.737140179",""
"sujeto_66362819","1","1","14","14","303.866225004","inverse","1","1","2","¿Qué personaje de dragon ball 
murió más veces?","Chaoz","Krillin","","1","1","0","competitive","right","2.30341386795","306.169706106","2.69658613205","309.035583019","5.36008787155","314.395720005","0.639912128448","315.071923971","316.52976799","316.604580164","319.607555151","1","319.622121096","327.395070076",""
"sujeto_66362819","1","1","15","15","327.524932146","direct","3","1","2","La universidad de oxford. 
existe desde:","1096","1249","","1","1","0","competitive","left","2.25271606445","329.777714968","2.74728393555","332.696670055","4.02998805046","336.726722002","1.97001194954","338.732832193","339.78166008","339.867627144","342.870604038","1","342.884893179","349.575713158",""
"sujeto_66362819","1","1","16","16","349.705513","inverse","3","1","1","¿Qué escritor latino ganó antes
 el premio nobel?"," García Marquez","Neruda","","0","0","1","competitive","left","2.4551820755","352.160814047","2.5448179245","354.875369072","3.93026781082","358.805678129","2.06973218918","360.911535025","362.65065217","362.728839159","365.731779099","0","365.746035099","369.206504107",""
"sujeto_66362819","1","1","17","17","369.349958181","direct","4","1","3","¿Cuántos dientes tiene un
 tiburón blanco?","6000","3000","","0","0","1","competitive","right","1.84569811821","371.195723057","3.15430188179","374.503132105","4.50655293465","379.009747028","1.49344706535","380.533965111","381.572962046","381.65184617","384.654682159","0","384.669531107","389.479226112",""
"sujeto_66362819","1","1","18","18","389.623131037","inverse","4","1","1","¿Cuánto mide el paralelo Ecuador?","40.000km","70.000km","","0","0","1","competitive","right","2.43651390076","392.059689045","2.56348609924","394.796138048","4.45144486427","399.247658014","1.54855513573","400.848797083","402.804708004","402.882794142","405.885776997","0","405.900243998","409.502839088",""
"sujeto_66362819","1","1","19","19","409.651300192","direct","4","1","2","¿Cuál fue el primer libro 
de Stephen King?","Carrie","The Stand","","1","1","1","competitive","right","2.9028699398","412.554222107","2.0971300602","414.821360111","3.78728413582","418.608708143","2.21271586418","420.875380993","422.619449139","422.692821026","425.695805073","1","425.711004019","430.185434103",""
"sujeto_66362819","1","1","20","20","430.311961174","inverse","2","1","3","¿Qué civilización practicaba
 la momificación?","Grecia","Egipto","right","0","0","1","competitive","right","1.86669397354","432.178730011","3.13330602646","435.483390093","4.67827582359","440.161707163","1.32172417641","441.534279108","443.473549128","443.551655054","446.554601192","1","446.571274996","450.8000772",""
"sujeto_66362819","1","1","21","21","450.939720154","direct","4","1","4","¿Cuántos millones de visitas
 recibe google por minuto?","3.0","4.5","","0","0","1","competitive","right","1.94397711754","452.883772135","3.05602288246","456.111891031","3.75679683685","459.868729115","2.24320316315","462.162268162","463.677150011","463.764299154","466.767306089","0","466.780864","473.9035151",""
"sujeto_66362819","1","1","22","22","474.035130024","inverse","1","1","3","La máquina de fax. se inventó en:","1843","1960","","0","0","1","competitive","right","2.31358885765","476.34882617","2.68641114235","479.205273151","3.37731909752","482.582636118","2.62268090248","485.257882118","486.499996185","486.576228142","489.579190016","0","489.593535185","492.829851151",""
"sujeto_66362819","1","1","23","23","492.974689007","direct","2","1","4","En la verdadera historia de los
 300 espartanos. habían:","300 soldados","4300 soldados","","1","1","1","competitive","left","2.1990070343","495.17376399","2.8009929657","498.132992983","4.75362992287","502.886666059","1.24637007713","504.185360193","505.446547985","505.518761158","508.521705151","1","508.536911964","512.33864212",""
"sujeto_66362819","1","1","24","24","512.473810196","inverse","1","1","4","¿Cuántos milímetros crece
 el pelo por día?","0.4","0.04","","0","0","0","competitive","right","2.19884896278","514.672703028","2.80115103722","517.64218998","4.89345502853","522.535717964","1.10654497147","523.678734064","525.439418077","525.512211084","528.515220165","0","528.529817104","535.264898062",""
"sujeto_66362819","1","1","25","25","535.398872137","direct","4","1","1","¿Cuánto mide la baldosa gris 
clásica de Montevideo?","22x22 cm.","20x20 cm.","","1","1","1","competitive","right","2.53380203247","537.932718992","2.46619796753","540.568628073","5.04407691956","545.612771034","0.955923080444","546.605661154","548.600919008","548.673590183","551.676553011","1","551.691060066","557.233690023",""
"sujeto_66362819","1","1","26","26","557.392351151","inverse","2","1","2","¿Cuántas películas de rápidos
 y furiosos hay?","10","11","","1","1","0","competitive","right","1.81533002853","559.207749128","3.18466997147","562.567065001","3.0456058979","565.612713099","2.9543941021","568.600687027","569.958718061","570.035575151","573.038542032","1","573.052623987","575.087337017",""
"sujeto_66362819","1","1","27","27","575.235448122","direct","3","1","1","¿Cuántos masters 1000
 ganó Del Potro?","1","2","","1","1","1","competitive","right","2.09519410133","577.330710173","2.90480589867","580.391487122","5.45913100243","585.850679159","0.540868997574","586.426747084","588.181377172","588.261277199","591.263666153","1","591.278275013","598.674597979",""
"sujeto_66362819","1","1","28","28","598.816352129","inverse","2","1","4","¿Cuántos meses dura el 
embarazo de una leona?","3 meses","4 meses","","0","0","1","competitive","left","2.06834220886","600.884739161","2.93165779114","603.970120192","5.90653800964","609.876698017","0.0934619903564","610.023005009","611.133589029","611.206362009","614.209370136","0","614.223996162","620.946436167",""
"sujeto_66362819","1","1","29","29","621.076021194","direct","1","1","1","¿En qué año fue creado
 el sandwich?","1762","1653","","1","1","0","competitive","left","1.90366911888","622.979757071","3.09633088112","626.249969006","4.11369299889","630.363700151","1.88630700111","632.300005198","633.898550987","633.984872103","636.987863064","1","637.002453089","640.473100185",""
"sujeto_66362819","1","1","30","30","640.603631973","inverse","4","1","2","El nombre de la moneda de Vietnam es:","Dinar","Dong","","0","0","1","competitive","right","2.46809697151","643.071807146","2.53190302849","645.773682117","5.37192821503","651.14567709","0.628071784973","651.828279018","653.260288","653.344642162","656.34763217","0","656.362934113","662.531378984",""
"sujeto_66362819","1","1","31","31","662.663776159","direct","2","1","1","¿cuantos aleteos puede dar 
un colibrí por segundo?","120","50","","0","0","0","competitive","left","2.59990906715","665.263753176","2.40009093285","667.835527182","4.97010207176","672.80569005","1.02989792824","673.889230013","675.621631145","675.707081079","678.71006608","0","678.724332094","682.936617136",""
"sujeto_66362819","1","1","32","32","683.075335026","inverse","4","1","3","¿Qué altura promedio tienen
 los hombres uruguayos?","1.73 m","1.72 m","","1","1","1","competitive","","2.63831186295","685.713696003","2.36168813705","688.245490074","6","694.24563098","0","694.265948057","695.528418064","695.599333048","698.602336168","0","698.617418051","703.093394995",""
"sujeto_66362819","1","2","1","33","828.415456057","direct","1","1","1","¿En qué año nació 
el actor Bradd Pitt?","1967","1963","","1","1","1","competitive","left","2.3733420372","830.788850069","2.6266579628","833.572034121","5.67058300972","839.24268198","0.32941699028","839.622033119","840.71790719","840.78888917","843.79183507","1","843.806507111","849.734109163","703.105175018"
"sujeto_66362819","1","2","2","34","849.877493143","inverse","2","1","1","¿Cual es el segundo 
monte más alto?","Kanchenjunga","K2","","1","1","1","competitive","right","1.60918498039","851.486744165","3.39081501961","855.017194033","3.67648887634","858.693742037","2.32351112366","861.046867132","862.499302149","862.581200123","865.584185123","1","865.598911047","869.028805971",""
"sujeto_66362819","1","2","3","35","869.167598009","direct","3","1","1","¿Cuándo finalizó la construcción
 del Palacio Legislativo?","1925","1917","","0","0","1","competitive","right","1.59909796715","870.766765118","3.40090203285","874.327389002","5.27925801277","879.606687069","0.720741987228","880.379183054","882.020856142","882.095421076","885.098446131","0","885.113954067","890.811478138",""
"sujeto_66362819","1","2","4","36","890.951493979","inverse","3","1","3","¿Cuántos integrantes tenía
 en su inicio  el cuarteto de nos?","3","4","","1","1","1","competitive","right","1.30117201805","892.252712011","3.69882798195","896.104712009","4.22691607475","900.331668139","1.77308392525","902.139214039","903.272336006","903.357379198","906.360388994","1","906.374797106","912.024553061",""
"sujeto_66362819","1","2","5","37","912.158688068","direct","2","1","3","¿Qué valor tiene el número pi?","3.14","4.18","left","0","0","1","competitive","left","1.96606898308","914.124806166","3.03393101692","917.326750994","3.60388898849","920.93068409","2.39611101151","923.382665157","924.836892128","924.917581081","927.920545101","1","927.935024023","934.85601902",""
"sujeto_66362819","1","2","6","38","934.988788128","inverse","2","1","2","¿Cuál es la esperanza de vida
 en Uruguay?","75","77","","1","1","0","competitive","right","1.50387716293","936.492735147","3.49612283707","940.144894123","4.32474708557","944.469685078","1.67525291443","946.17860198","947.831716061","947.912896156","950.915881157","1","950.930477142","957.393481016",""
"sujeto_66362819","1","2","7","39","957.53502512","direct","1","1","2","¿Cuantos pisos tiene la torre 
de las comunicaciones?","26","32","","1","1","0","competitive","right","1.67265820503","959.207733154","3.32734179497","962.688767195","3.75797009468","966.446802139","2.24202990532","968.740127087","970.568928003","970.640786171","973.643764973","1","973.659353971","975.805497169",""
"sujeto_66362819","1","2","8","40","975.940950155","inverse","2","1","4","¿En qué país sudamericano 
no hay McDonalds?","Bolivia","Venezuela","","0","0","1","competitive","right","1.90382003784","977.84484601","3.09617996216","981.11501503","5.07666087151","986.191718102","0.923339128494","987.149788141","988.459172964","988.533895969","991.536838055","0","991.551217079","997.910919189",""
"sujeto_66362819","1","2","9","41","998.035987139","direct","3","1","1","¿En qué año empieza
 la Edad Media?","476","512","","1","1","1","competitive","left","1.6156899929","999.651744127","3.3843100071","1003.19310713","3.95754098892","1007.15070701","2.04245901108","1009.2437551","1010.64744711","1010.72738314","1013.73039103","1","1013.74505901","1016.73358417",""
"sujeto_66362819","1","2","10","42","1016.86441708","inverse","3","1","4","¿Hace cuántos años surgió
 el ser humano?","200mil","300mil","","0","0","0","competitive","right","1.37628483772","1018.24076819","3.62371516228","1022.01972413","4.26898002625","1026.28874612","1.73101997375","1028.07094502","1029.95698619","1030.03805208","1033.041044","0","1033.05578017","1036.36331511",""
"sujeto_66362819","1","2","11","43","1036.50581312","direct","3","1","4","¿Cuántas cuadras tiene
 actualmente 18 de julio? ","36","33","","0","0","1","competitive","right","1.73491001129","1038.24079609","3.26508998871","1041.66325903","4.91439890862","1046.57770014","1.08560109138","1047.71494412","1049.41721106","1049.49812603","1052.50111914","0","1052.51633906","1057.24262214",""
"sujeto_66362819","1","2","12","44","1057.38700604","inverse","1","1","4","¿Qué juego de equipo se 
considera mas rápido?","Lacrosse","Badminton","","0","0","0","competitive","left","2.34665703773","1059.73372912","2.65334296227","1062.55546308","4.34627485275","1066.90178204","1.65372514725","1068.59223318","1069.8353641","1069.90978312","1072.91269803","0","1072.92712402","1080.92227507",""
"sujeto_66362819","1","2","13","45","1081.0611341","direct","1","1","3","¿Qué promedio de edad 
vive una jirafa? ","25","20","","0","0","1","competitive","left","1.67553186417","1082.73673201","3.32446813583","1086.2011292","4.30954909325","1090.51072216","1.69045090675","1092.23559713","1093.99712205","1094.07037497","1097.07337308","0","1097.08851004","1103.044245",""
"sujeto_66362819","1","2","14","46","1103.17199516","inverse","1","1","2","¿Cuántos grandes lagos hay?","7","5","","0","0","1","competitive","left","1.32366013527","1104.49572897","3.67633986473","1108.31448817","3.82919001579","1112.14372015","2.17080998421","1114.34827709","1115.64044905","1115.71602917","1118.71901798","0","1118.73355007","1126.55495715",""
"sujeto_66362819","1","2","15","47","1126.70572805","direct","3","1","2","¿Cuántos discos de estudio
 grabó Johhny Cash? ","54","43","","1","1","0","competitive","right","2.23994898796","1128.94572806","2.76005101204","1131.85969615","4.21701598167","1136.07677317","1.78298401833","1137.91099","1139.18961","1139.26200604","1142.264992","1","1142.27950907","1148.9304502",""
"sujeto_66362819","1","2","16","48","1149.08115816","inverse","4","1","1","¿Cuántos barrios tiene
 Montevideo? ","71","62","","0","0","1","competitive","right","2.00154709816","1151.08274913","2.99845290184","1154.25529313","3.95042204857","1158.20575404","2.04957795143","1160.30608606","1161.31316519","1161.39018106","1164.39317417","0","1164.40759802","1169.86960816",""
"sujeto_66362819","1","2","17","49","1170.01213002","direct","3","1","3","¿Qué edad tiene Homero Simpson?","36","42","","0","0","1","competitive","right","2.11766695976","1172.12984204","2.88233304024","1175.18254709","4.23417210579","1179.41678309","1.76582789421","1181.23327804","1182.6093812","1182.68397808","1185.68694401","0","1185.70151019","1190.09027505",""
"sujeto_66362819","1","2","18","50","1190.219136","inverse","4","1","2","¿Cuántos países con monarquía 
hay en europa actualmente? ","6","10","","1","1","1","competitive","right","2.97054600716","1193.18972611","2.02945399284","1195.38926816","4.19044613838","1199.57978415","1.80955386162","1201.44351602","1202.88183808","1202.96122599","1205.964221","1","1205.97887301","1212.13569808",""
"sujeto_66362819","1","2","19","51","1212.26364398","direct","2","1","3","¿Cuántos capítulos de
 Friends existen? ","236","228","","1","1","1","competitive","left","2.12008285522","1214.38379502","2.87991714478","1217.43576503","3.49688196182","1220.9326911","2.50311803818","1223.470752","1224.77634716","1224.85614514","1227.85911107","1","1227.87260604","1230.2482512",""
"sujeto_66362819","1","2","20","52","1230.37502718","inverse","1","1","3","¿Cuántas óperas compuso Mozart? ","27","22","","1","1","1","competitive","right","1.41967511177","1231.79474616","3.58032488823","1235.52754617","3.21015501022","1238.73774099","2.78984498978","1241.56304812","1242.85470104","1242.93055105","1245.93354106","1","1245.94877315","1253.26025605",""
"sujeto_66362819","1","2","21","53","1253.40369797","direct","4","1","3","¿Cuántos mundiales de fútbol 
femenino ha realizado FIFA? ","9","7","","1","1","1","competitive","right","1.69701004028","1255.10075307","3.30298995972","1258.57347012","4.87527108192","1263.44878602","1.12472891808","1264.60847807","1265.85221004","1265.94245505","1268.94544911","1","1268.96011615","1275.05773902",""
"sujeto_66362819","1","2","22","54","1275.19492507","inverse","3","1","2","¿Cuál es la temperatura 
media anual en Montevideo? ","17.5","16.3","","0","0","1","competitive","left","1.37380290031","1276.56877112","3.62619709969","1280.33607602","4.40067887306","1284.73681712","1.59932112694","1286.38676405","1288.32539511","1288.4046042","1291.40754199","0","1291.42213297","1297.99167609",""
"sujeto_66362819","1","2","23","55","1298.12638712","direct","2","1","2","¿En qué año se estrenó el
 videojuego The Sims? ","2000","2002","","0","0","0","competitive","left","1.61234617233","1299.73877597","3.38765382767","1303.28084016","4.50890803337","1307.78979206","1.49109196663","1309.31571198","1311.1776762","1311.24980211","1314.25039101","0","1314.2668972","1321.66051316",""
"sujeto_66362819","1","2","24","56","1321.80522418","inverse","2","1","1","¿Cuál es la canción con 
mas covers? ","Yesterday","Stand by me","","0","0","0","competitive","left","2.30058407784","1324.10587907","2.69941592216","1326.97661018","3.88914394379","1330.86579704","2.11085605621","1333.02818418","1334.42675805","1334.51219511","1337.51518512","0","1337.52966499","1341.70047498",""
"sujeto_66362819","1","2","25","57","1341.83063197","direct","1","1","4","¿Cuánto duró la guerra
 de los 100 años?","116","123","","0","0","0","competitive","left","2.52508211136","1344.35578108","2.47491788864","1346.98492599","3.68679094315","1350.67175817","2.31320905685","1353.03837514","1354.51923704","1354.58875799","1357.59173417","0","1357.60608006","1359.92587399",""
"sujeto_66362819","1","2","26","58","1360.05825114","inverse","4","1","4","¿Qué color tiene la  bandera de Brasil?","Amarillo","Naranja","left","0","0","1","competitive","left","2.13545417786","1362.19377208","2.86454582214","1365.22832417","3.21837902069","1368.44677114","2.78162097931","1371.28042912","1372.84695101","1372.93185616","1375.93480802","1","1375.9494791","1378.98228312",""
"sujeto_66362819","1","2","27","59","1379.1172111","direct","4","1","3","¿Qué carabela de 
Colon no volvió del viaje?","Santa María","La pinta","","0","0","1","individual","right","1.26249289513","1380.37977004","3.73750710487","1384.27315211","3.70351409912","1387.97670698","2.29648590088","1390.32383013","1391.81484008","1391.85862017","1394.86153698","0","1394.87592316","1396.97543097",""
"sujeto_66362819","1","2","28","60","1397.10504103","inverse","4","1","4","¿Cuántos huesos tiene
 un adulto humano?","217","206","","0","0","1","competitive","left","1.57965302467","1398.68473911","3.42034697533","1402.26535606","3.15731287003","1405.42272902","2.84268712997","1408.31350017","1409.58449912","1409.66476607","1412.66776419","0","1412.68242311","1420.52014208",""
"sujeto_66362819","1","2","29","61","1420.67162013","direct","1","1","1","¿Qué país africano fue 
fundado por esclavos?","Liberia","Chad","","0","0","0","competitive","left","1.6211271286","1422.29281306","3.3788728714","1425.82699418","3.89473700523","1429.72180104","2.10526299477","1431.86164498","1433.85330915","1433.92912006","1436.93210816","0","1436.94731116","1444.9381671",""
"sujeto_66362819","1","2","30","62","1445.08204603","inverse","4","1","2","¿A cuánto asciende la cima
 del monte Everest?","7.990 mts","8.848 mts","","0","0","1","competitive","right","1.55068898201","1446.63277912","3.44931101799","1450.23988509","4.33386087418","1454.5738101","1.66613912582","1456.29003","1457.47490001","1457.55708718","1460.56009316","0","1460.57459211","1467.75862813",""
"sujeto_66362819","1","2","31","63","1467.9121542","direct","4","1","1","¿Cuál es el país mas chico?","Sealand","Luxemburgo","","1","1","1","competitive","right","2.35858201981","1470.27080417","2.64141798019","1473.06916213","3.69169306755","1476.7609241","2.30830693245","1479.12009215","1480.98362017","1481.0713551","1484.07431102","1","1484.08792996","1487.21022701",""
"sujeto_66362819","1","2","32","64","1487.33982515","inverse","2","1","4","¿Cuántas pirámides hay en Egipto?","10000","11000","","1","1","1","competitive","left","1.20689988136","1488.54677415","3.79310011864","1492.49562097","4.45004892349","1496.945714","1.54995107651","1498.54679799","1499.5804081","1499.66402817","1502.66701603","1","1502.68146801","1507.79053116",""
"sujeto_66362819","1","3","1","65","1614.02186418","direct","2","1","2","¿Cuál es el quinto país con 
mas extensión?","Canadá","Brasil","","1","1","0","competitive","right","1.78180909157","1615.80371499","3.21819090843","1619.17662311","4.79412889481","1623.97081709","1.20587110519","1625.2115581","1626.54482913","1626.628793","1629.63165998","1","1629.64640808","1637.37275815","1507.80221605"
"sujeto_66362819","1","3","2","66","1637.49887204","inverse","1","1","2","¿Qué rasgo facial no tiene
 la Mona Lisa?","Cejas","Pómulos","","0","0","1","competitive","right","1.58488488197","1639.08382297","3.41511511803","1642.65581608","5.06389284134","1647.71975017","0.936107158661","1648.70745015","1650.4578321","1650.5416081","1653.54454517","0","1653.55921912","1659.83053112",""
"sujeto_66362819","1","3","3","67","1659.97661805","direct","4","1","3","¿Cuál es el país con 
mayor población?","Esados Unidos","China","right","0","0","1","competitive","right","1.58011889458","1661.55680418","3.41988110542","1665.13379812","3.17192006111","1668.30576301","2.82807993889","1671.184443","1672.83047009","1672.919626","1675.92260408","1","1675.93682599","1679.30416107",""
"sujeto_66362819","1","3","4","68","1679.46917701","inverse","1","1","1","La palabra dinosaurio significa","Lagarto Terrible","Lagarto Dragón","","1","1","0","competitive","left","1.92069888115","1681.38993597","3.07930111885","1684.63064313","5.69105601311","1690.32176614","0.308943986893","1690.67714405","1691.84749317","1691.92765999","1694.93063998","1","1694.94525599","1697.80709219",""
"sujeto_66362819","1","3","5","69","1697.9469142","direct","2","1","3","¿Qué es el membrillero?","Arbol","Arbusto","","0","0","0","competitive","left","1.31183695793","1699.25879407","3.68816304207","1703.10341311","4.03328895569","1707.13676906","1.96671104431","1709.15386415","1711.10799217","1711.1889081","1714.19190001","0","1714.2064631","1720.67049599",""
"sujeto_66362819","1","3","6","70","1720.80788398","inverse","3","1","3","¿Alrededor de qué planeta orbita 
el satélite Europa?","Jupiter","Saturno","","1","1","1","competitive","left","1.34180998802","1722.14974308","3.65819001198","1725.94823909","5.2704679966","1731.21874809","0.729532003403","1732.0002532","1733.54507518","1733.61644912","1736.61944604","1","1736.63476801","1738.83994198",""
"sujeto_66362819","1","3","7","71","1738.96923018","direct","3","1","1","¿Donde fue el mundial de 
fútbol de 1954?","Suiza","Suecia","","1","1","1","competitive","right","1.32152414322","1740.29082298","3.67847585678","1744.12302113","4.93172001839","1749.05480218","1.06827998161","1750.17592216","1751.428514","1751.50952911","1754.51251101","1","1754.52685499","1758.43510604",""
"sujeto_66362819","1","3","8","72","1758.5804801","inverse","1","1","4","¿Cuál de los 7 enanitos
no tenía barba?","Bashful","Mudito","","1","1","0","competitive","right","1.06728696823","1759.64781117","3.93271303177","1763.73424506","3.91553997993","1767.64982915","2.08446002007","1769.78565812","1771.36581111","1771.43638301","1774.43938112","1","1774.45400119","1779.38309598",""
"sujeto_66362819","1","3","9","73","1779.54061604","direct","3","1","2","¿Cual red social es
mas utilizada mundialmente?","Instagram","Facebook","","1","1","0","competitive","left","1.2251868248","1780.76587701","3.7748131752","1784.6952281","3.66356611252","1788.3588531","2.33643388748","1790.74664617","1792.66401911","1792.74755716","1795.75055218","1","1795.76522708","1798.69972897",""
"sujeto_66362819","1","3","10","74","1798.84964418","inverse","4","1","1","¿Cuándo se inició la copa
 América de fútbol?","1916","1923","","1","1","1","competitive","right","1.13713312149","1799.98683119","3.86286687851","1804.00609112","5.26962900162","1809.27576709","0.730370998383","1810.05675507","1811.95420003","1812.04088902","1815.04387712","1","1815.05824304","1817.71370101",""
"sujeto_66362819","1","3","11","75","1817.86094308","direct","3","1","4","¿Cuántos presidentes de EEUU
han muerto asesinados?","3","4","","0","0","1","competitive","left","1.42681598663","1819.28782797","3.57318401337","1823.01568198","3.50004792213","1826.51579118","2.49995207787","1829.0663352","1830.55031204","1830.63395309","1833.63690209","0","1833.65145802","1837.29553914",""
"sujeto_66362819","1","3","12","76","1837.43604517","inverse","2","1","4","¿Cuántas veces participó EEUU
 en la copa América?","4","5","","0","0","1","competitive","left","1.14068698883","1838.57677507","3.85931301117","1842.57542419","4.01328897476","1846.58875418","1.98671102524","1848.62616205","1850.07028508","1850.14398503","1853.14665008","0","1853.16151714","1859.27863717",""
"sujeto_66362819","1","3","13","77","1859.43152714","direct","4","1","1","¿Cuál de estos países 
no formaba la URSS?","Azeribayán","Afganistán","","0","0","1","competitive","right","1.86047816277","1861.29208612","3.13952183723","1864.63665009","5.18410491943","1869.82079911","0.815895080566","1870.68791699","1872.00100803","1872.08858109","1875.09155297","0","1875.10584211","1883.08797717",""
"sujeto_66362819","1","3","14","78","1883.21846509","inverse","1","1","1","¿En qué año se inauguró
 el teatro Solís?","1867","1856","","0","0","0","competitive","left","1.3123087883","1884.53082418","3.6876912117","1888.36609101","4.09363293648","1892.45978308","1.90636706352","1894.39945507","1895.45578599","1895.53447318","1898.53746915","0","1898.55093503","1905.19875407",""
"sujeto_66362819","1","3","15","79","1905.33992314","direct","1","1","4","¿A qué velocidad vuela 
el avión más rápido?","3529","3874","","0","0","0","competitive","left","1.24884700775","1906.58883715","3.75115299225","1910.49257398","4.48317694664","1914.97580099","1.51682305336","1916.54333019","1918.29862809","1918.37730217","1921.38029504","0","1921.39507318","1923.50536513",""
"sujeto_66362819","1","3","16","80","1923.64625311","inverse","3","1","4","¿De qué año es la primer 
película cinematográfica?","1897","1888","","0","0","0","competitive","right","1.61052083969","1925.25681806","3.38947916031","1928.80352807","3.38020801544","1932.18377709","2.61979198456","1934.85384917","1935.98681211","1936.07048106","1939.07347512","0","1939.08731508","1944.497082",""
"sujeto_66362819","1","3","17","81","1944.63826704","direct","2","1","3","¿Cuántos países 
tiene nuestro planeta?","191","194","","1","1","1","competitive","right","1.66951394081","1946.30784702","3.33048605919","1949.79698801","3.00574994087","1952.80278206","2.99425005913","1955.84754205","1957.2047472","1957.28288412","1960.28589106","1","1960.30010915","1963.53843498",""
"sujeto_66362819","1","3","18","82","1963.66808105","inverse","2","1","2","¿Cuántos habitantes
 tiene Buenos Aires?","2.9000.000","3650000","","0","0","0","competitive","right","1.63475680351","1965.30290318","3.36524319649","1968.83840108","4.7963488102","1973.63479614","1.2036511898","1974.88984203","1976.28710914","1976.3588562","1979.36182714","0","1979.37606716","1985.20170498",""
"sujeto_66362819","1","3","19","83","1985.34495902","direct","2","1","1","¿Cuántos kilos forman una tonelada?","1000","1500","left","1","1","1","competitive","right","1.65681695938","1987.00181818","3.34318304062","1990.50203109","3.63178992271","1994.13386416","2.36821007729","1996.5525341","1998.43991899","1998.51961207","2001.52262616","0","2001.53719902","2007.49459219",""
"sujeto_66362819","1","3","20","84","2007.63920403","inverse","4","1","4","¿Cuántos estados tiene la 
República del Perú? ","24","23","","0","0","1","competitive","left","1.62757086754","2009.2668252","3.37242913246","2012.79620099","4.32555007935","2017.12181711","1.67444992065","2018.83024716","2019.85244417","2019.94999909","2022.95296001","0","2022.96567798","2027.91099215",""
"sujeto_66362819","1","3","21","85","2028.05047417","direct","3","1","3","¿En qué año nació Cristóbal Colón? ","1451","1447","","0","0","1","competitive","right","1.91936612129","2029.96992302","3.08063387871","2033.22305202","3.35565400124","2036.57877207","2.64434599876","2039.27381802","2041.11973715","2041.19181705","2044.19480205","0","2044.20910907","2048.43710804",""
"sujeto_66362819","1","3","22","86","2048.5790112","inverse","4","1","4","¿Cuánto mide la 
Montaña Aconcagua? ","6234","6962","","0","0","1","competitive","right","1.93186497688","2050.51095605","3.06813502312","2053.74830103","3.75844693184","2057.5068121","2.24155306816","2059.80118418","2061.09053206","2061.16832709","2064.17131901","0","2064.18578005","2071.369452",""
"sujeto_66362819","1","3","23","87","2071.52088499","direct","2","1","4","¿Cuánto mide el punto
 más profundo del océano? ","12508","11003","","0","0","1","competitive","left","1.90098690987","2073.42192316","3.09901309013","2076.7128582","4.31287503242","2081.02577806","1.68712496758","2082.76349711","2084.01501608","2084.09739113","2087.10036111","0","2087.11497211","2091.321244",""
"sujeto_66362819","1","3","24","88","2091.46686316","inverse","1","1","3","¿Cuántos álbumes ha publicado 
el cantante Jaime Roos? ","41","34","","0","0","1","competitive","right","3.07594299316","2094.54285502","1.92405700684","2096.6227231","4.20908689499","2100.83186102","1.79091310501","2102.67421508","2104.16403913","2104.24231815","2107.24531507","0","2107.25878906","2113.4549551",""
"sujeto_66362819","1","3","25","89","2113.59405208","direct","4","1","3","¿En qué año nació el 
ex-presidente Jorge Battle? ","1921","1927","","1","1","1","competitive","right","2.47181081772","2116.06596613","2.52818918228","2118.76541901","4.82547903061","2123.59096718","1.17452096939","2124.81912804","2126.54978418","2126.63635397","2129.639359","1","2129.65368605","2133.1397121",""
"sujeto_66362819","1","3","26","90","2133.27165103","inverse","1","1","3","¿Cuántas presidencias 
constitucionales  hubo en Uruguay? ","41","42","","0","0","1","competitive","left","1.30011701584","2134.57181215","3.69988298416","2138.426054","5.83168792725","2144.2578032","0.168312072754","2144.47797608","2145.68170619","2145.76114798","2148.76414299","0","2148.77870107","2154.56235504",""
"sujeto_66362819","1","3","27","91","2154.69678497","direct","1","1","2","¿Quién escribió mas sinfonías?","Mozart","Haydn","","1","1","0","competitive","left","1.70501613617","2156.40184402","3.29498386383","2159.8548162","3.68798804283","2163.54284716","2.31201195717","2165.90562201","2167.12262607","2167.20685005","2170.20986414","1","2170.22441912","2173.97585917",""
"sujeto_66362819","1","3","28","92","2174.10871601","inverse","4","1","2","¿En qué año nació Michael Jackson?","1958","1953","","1","1","1","competitive","right","1.42405700684","2175.53283906","3.57594299316","2179.26526618","5.17350411415","2184.43883014","0.826495885849","2185.29967213","2187.27791905","2187.35036802","2190.35334706","1","2190.36783409","2196.23016",""
"sujeto_66362819","1","3","29","93","2196.36935019","direct","3","1","2","¿En qué año entró en vigencia 
la ley antitabaco en Uruguay?","2005","2006","","1","1","1","competitive","left","1.78244113922","2198.1518681","3.21755886078","2201.543607","5.20821809769","2206.75189209","0.791781902313","2207.578264","2209.17300105","2209.24521208","2212.24817204","1","2212.26341414","2217.59741402",""
"sujeto_66362819","1","3","30","94","2217.73134017","inverse","3","1","1","¿Cuándo se subió el 
primer video a youtube?","2004","2005","","0","0","1","competitive","left","1.57650113106","2219.30790997","3.42349886894","2222.88661408","4.2141828537","2227.10085917","1.7858171463","2228.93759298","2230.24324608","2230.32175803","2233.32475114","0","2233.33842707","2241.09404707",""
"sujeto_66362819","1","3","31","95","2241.22555304","direct","2","1","1","¿Cuántos habitantes tiene India?","1200 millones","1300 millones","","0","0","0","competitive","right","1.4012298584","2242.62684798","3.5987701416","2246.38326001","4.2245490551","2250.60784912","1.7754509449","2252.43443108","2254.40408301","2254.48478007","2257.48776317","0","2257.50229502","2263.54980397",""
"sujeto_66362819","1","3","32","96","2263.68783402","inverse","4","1","2","¿A qué edad murió Bob Marley?","36","37","","0","0","1","competitive","left","1.32391405106","2265.01182318","3.67608594894","2268.84383798","3.56892800331","2272.41281414","2.43107199669","2274.89541698","2276.79327202","2276.87977409","2279.88274908","0","2279.8972342","2282.99970198",""
"sujeto_66362819","1","4","1","97","2423.41885805","direct","2","1","1","¿Cuantos años dirigió la selección 
uruguaya Tabarez?","15 años","13 años","","0","0","0","competitive","left","1.57292294502","2424.99184704","3.42707705498","2428.59337807","4.16839003563","2432.761832","1.83160996437","2434.64454007","2435.83570313","2435.9127152","2438.91567707","0","2438.92993116","2446.00196409","2283.01170206"
"sujeto_66362819","1","4","2","98","2446.14699101","inverse","4","1","1","¿Cuantas teclas tiene un teclado 
de computadora generalmente? ","Entre 99 y 108","Entre 109 y 113","","1","1","1","competitive","left","1.04579901695","2447.19285917","3.95420098305","2451.30278111","5.08898687363","2456.39183497","0.911013126373","2457.33906698","2458.34183908","2458.42291713","2461.42589808","1","2461.44027901","2463.81170607",""
"sujeto_66362819","1","4","3","99","2463.94154716","direct","1","1","1","¿Cuál Departamento tiene
 mayor superficie?","Río Negro","Soriano","","0","0","0","competitive","left","1.58322191238","2465.52483511","3.41677808762","2469.09788418","5.3408780098","2474.43882203","0.659121990204","2475.13312101","2476.84661508","2476.93336701","2479.93636107","0","2479.95085502","2484.27695107",""
"sujeto_66362819","1","4","4","100","2484.40231204","inverse","3","1","2","¿Cuál es el apellido de las 
hermanastras  de  cenicienta?","Tremaine","Truman","","0","0","1","competitive","left","1.90058898926","2486.3029542","3.09941101074","2489.57475519","4.99899697304","2494.57381797","1.00100302696","2495.6267941","2497.49634218","2497.57695413","2500.57989907","0","2500.59418011","2503.29011917",""
"sujeto_66362819","1","4","5","101","2503.429672","direct","4","1","4","¿Cuál película ganó un
 Oscar a mejor película?","Alto Impacto","Cache","","0","0","1","competitive","left","2.32513093948","2505.75486898","2.67486906052","2508.58636713","5.65741205215","2514.24383998","0.342587947845","2514.63576198","2515.75513506","2515.83610702","2518.83906913","0","2518.85336113","2521.11795902",""
"sujeto_66362819","1","4","6","102","2521.25599217","inverse","1","1","3","¿A cuántos centímetros
equivale la medida pié?","25","30","","0","0","1","competitive","right","1.0088789463","2522.26493716","3.9911210537","2526.4096632","5.12811303139","2531.53781605","0.871886968613","2532.44486117","2533.48482704","2533.56193018","2536.56464005","0","2536.57716298","2541.97812104",""
"sujeto_66362819","1","4","7","103","2542.12796712","direct","2","1","2","¿Qué departamento es mas grande?","Cerro Largo","Paysandú","","0","0","0","competitive","right","1.53387403488","2543.66190815","3.46612596512","2547.28786206","3.84792780876","2551.13585114","2.15207219124","2553.33887005","2554.93859696","2555.02298307","2558.02592802","0","2558.04037714","2562.15035415",""
"sujeto_66362819","1","4","8","104","2562.2924521","inverse","2","1","3","¿Quién pintó la Mona Lisa?","Picasso","Da Vinci","right","0","0","1","competitive","right","1.03535890579","2563.32786202","3.96464109421","2567.44797802","3.37180495262","2570.8198452","2.62819504738","2573.49867916","2575.10364819","2575.18381405","2578.186759","1","2578.20099902","2580.3633461",""
"sujeto_66362819","1","4","9","105","2580.50276518","direct","4","1","3","¿Cuántos litros hay en un galon?","3.54","3.78","","1","1","1","competitive","right","1.03605103493","2581.53889298","3.96394896507","2585.65673304","4.51411795616","2590.17091417","1.48588204384","2591.70771813","2593.22555804","2593.30872798","2596.31170702","1","2596.32501101","2602.11732006",""
"sujeto_66362819","1","4","10","106","2602.2579782","inverse","4","1","1","¿Cuántas teclas tiene
 un piano moderno?","80","88","","0","0","1","competitive","right","1.2678630352","2603.52590704","3.7321369648","2607.41919708","3.52758383751","2610.94682217","2.47241616249","2613.45215201","2614.46061802","2614.5376761","2617.54064798","0","2617.55423808","2624.35201406",""
"sujeto_66362819","1","4","11","107","2624.48907113","direct","4","1","3","¿Cuántos países hay en África?","54","62","","0","0","1","competitive","left","1.20773816109","2625.69685507","3.79226183891","2629.63022304","4.38555598259","2634.01581907","1.61444401741","2635.68130708","2637.37187219","2637.44934297","2640.45240498","0","2640.46675801","2648.27154708",""
"sujeto_66362819","1","4","12","108","2648.41803312","inverse","1","1","3","¿En qué siglo se crearon
 las primeras pistolas?","XV","XIII","","1","1","1","competitive","right","1.92788815498","2650.34598804","3.07211184502","2653.59211302","4.72874689102","2658.32090116","1.27125310898","2659.62695909","2661.57483506","2661.66074419","2664.66368008","1","2664.67906117","2667.912148",""
"sujeto_66362819","1","4","13","109","2668.04703999","direct","3","1","4","¿En qué año se estrenó 
la serie friends?","1994","1995","","0","0","1","competitive","right","1.56378889084","2669.61087298","3.43621110916","2673.2023592","3.45154190063","2676.65396309","2.54845809937","2679.25297618","2681.12765098","2681.20480108","2684.20774913","0","2684.222471","2689.22860217",""
"sujeto_66362819","1","4","14","110","2689.37379003","inverse","3","1","4","¿En qué año nació Hitler?","1889","1887","","0","0","1","competitive","right","1.16507101059","2690.53890705","3.83492898941","2694.52999711","4.60681414604","2699.13685107","1.39318585396","2700.5807631","2701.69515419","2701.78160119","2704.78461099","0","2704.79920006","2709.82620406",""
"sujeto_66362819","1","4","15","111","2709.9671042","direct","1","1","4","¿Cuánto pesa un elefante Africano?","6000 kilos","5400 kilos","","0","0","0","competitive","left","1.82571697235","2711.79289699","3.17428302765","2715.14104104","5.37074995041","2720.51183605","0.629250049591","2721.19218397","2722.5476861","2722.62613916","2725.62912202","0","2725.64349198","2732.35057497",""
"sujeto_66362819","1","4","16","112","2732.49519801","inverse","1","1","2","¿Qué porcentaje de 
la población es zurda?","10%","7%","","1","1","0","competitive","right","1.83364892006","2734.32890105","3.16635107994","2737.66900706","3.32082486153","2740.98989105","2.67917513847","2743.71891618","2744.96202612","2745.03613615","2748.03911901","1","2748.05338907","2754.03314519",""
"sujeto_66362819","1","4","17","113","2754.17114997","direct","1","1","2","¿En qué año se estrenó
Volver al futuro?","1984","1985","","0","0","1","competitive","right","1.11270403862","2755.28390312","3.88729596138","2759.32897615","4.52683711052","2763.85587406","1.47316288948","2765.36359","2766.92541599","2766.99750304","2770.00051618","0","2770.01520705","2777.10662508",""
"sujeto_66362819","1","4","18","114","2777.25021911","inverse","3","1","2","¿Cuántos jugadores hay en un 
equipo de baseball?","9","8","","1","1","0","competitive","right","1.24961495399","2778.49987817","3.75038504601","2782.40836215","4.78549814224","2787.19392109","1.21450185776","2788.46042705","2790.07467103","2790.16106701","2793.16401815","1","2793.17870116","2798.15590715",""
"sujeto_66362819","1","4","19","115","2798.29625201","direct","2","1","1","¿Cuántos Oscar ganó
 la película titanic?","13","11","","1","1","1","competitive","right","1.73762202263","2800.03391719","3.26237797737","2803.4366281","4.73619890213","2808.17289209","1.26380109787","2809.4879241","2810.7899642","2810.8721962","2813.875144","1","2813.88911605","2818.49175",""
"sujeto_66362819","1","4","20","116","2818.64076519","inverse","4","1","4","¿En qué año comenzó
la segunda guerra mundial?","1939","1976","left","0","0","1","competitive","right","1.17809104919","2819.818923","3.82190895081","2823.79651809","4.50433778763","2828.30089712","1.49566221237","2829.84772611","2831.64762807","2831.73196101","2834.73491216","0","2834.74929214","2838.73645496",""
"sujeto_66362819","1","4","21","117","2838.86795998","direct","2","1","4","¿Cuántos biomas hay en Uruguay?","5","4","","0","0","1","competitive","right","1.09487605095","2839.96290302","3.90512394905","2844.00581908","5.61798095703","2849.62386298","0.382019042969","2850.05766106","2851.85462117","2851.94097304","2854.9439261","0","2854.95864701","2861.20801401",""
"sujeto_66362819","1","4","22","118","2861.3437531","inverse","2","1","3","¿Cuándo murió Pablo Escobar?","1993","1997","","1","1","1","competitive","right","1.58215999603","2862.925982","3.41784000397","2866.50241518","3.46038293839","2869.96283913","2.53961706161","2872.53659511","2874.31943798","2874.40475607","2877.4077282","1","2877.42226219","2883.12122297",""
"sujeto_66362819","1","4","23","119","2883.25750208","direct","1","1","4","¿Qué serie ha ganado mas premios?","Friends","Murphy Brown","","1","1","0","competitive","left","1.86338114738","2885.120924","3.13661885262","2888.43014216","4.11572813988","2892.54590917","1.88427186012","2894.48101401","2895.83337307","2895.9116292","2898.91462612","1","2898.92896318","2904.49060798",""
"sujeto_66362819","1","4","24","120","2904.63011408","inverse","4","1","2","¿Cuántas fichas tiene el dominó?","26","28","","1","1","1","competitive","right","1.58676600456","2906.21692419","3.41323399544","2909.79103518","4.46383309364","2914.25493312","1.53616690636","2915.84233618","2916.89764905","2916.97635603","2919.97935319","1","2919.99376512","2925.23687315",""
"sujeto_66362819","1","4","25","121","2925.37875104","direct","2","1","4","¿Cuántos son los dientes de leche?","20","25","","0","0","1","competitive","right","1.56210398674","2926.94090605","3.43789601326","2930.53447104","4.4023668766","2934.93688607","1.5976331234","2936.58639908","2938.29675508","2938.37075114","2941.37373805","0","2941.388309","2943.53402209",""
"sujeto_66362819","1","4","26","122","2943.67255807","inverse","3","1","3","¿Cuántos gramos son una onza?","22","28","","0","0","1","competitive","left","1.88342690468","2945.55606699","3.11657309532","2948.844836","4.68001508713","2953.52491808","1.31998491287","2954.87992597","2956.87476707","2956.95747519","2959.96046114","0","2959.97479105","2966.26504517",""
"sujeto_66362819","1","4","27","123","2966.39482403","direct","3","1","1","¿Cuándo salió el primer album
 de los Beatles?","1963","1962","","1","1","1","individual","left","1.8820848465","2968.27701402","3.1179151535","2971.57356215","4.37330007553","2975.94690299","1.62669992447","2977.62366605","2978.7872932","2978.82452917","2981.82750607","1","2981.84181809","2985.61385798",""
"sujeto_66362819","1","4","28","124","2985.74330997","inverse","3","1","3","¿Quién fundó la empresa apple?","Carlos Slim","Steve Jobs","","1","1","1","competitive","left","1.41951799393","2987.16289711","3.58048200607","2990.91334915","5.23745918274","2996.15086913","0.762540817261","2996.96693611","2998.08162403","2998.16725516","3001.17024398","1","3001.18455815","3007.48243403",""
"sujeto_66362819","1","4","29","125","3007.61916113","direct","4","1","2","¿Cuántos municipios hay
 en Montevideo?","8","7","","1","1","1","competitive","right","2.34473919868","3009.96396613","2.65526080132","3012.77666712","3.92815804482","3016.7048862","2.07184195518","3018.81186819","3020.72665","3020.812392","3023.815382","1","3023.830024","3025.91118217",""
"sujeto_66362819","1","4","30","126","3026.04901218","inverse","1","1","1","¿Cuántos kilómetros hay
 de Montevideo a Artigas?","632","599","","0","0","0","individual","left","2.23783993721","3028.28691912","2.76216006279","3031.21909618","4.725730896","3035.94486809","1.274269104","3037.25528598","3038.73844099","3038.78896308","3041.79190803","0","3041.80648708","3047.85863614",""
"sujeto_66362819","1","4","31","127","3048.00794315","direct","2","1","2","¿En qué año nació 
Leonardo Da Vinci?","1452","1511","","1","1","0","competitive","right","1.4669110775","3049.47492003","3.5330889225","3053.16544008","4.35238385201","3057.51788616","1.64761614799","3059.21579719","3061.069417","3061.14991498","3064.15289617","1","3064.16818118","3067.31456304",""
"sujeto_66362819","1","4","32","128","3067.45317507","inverse","3","1","1","¿A qué continente
 pertenece el país Gabón?","Africa","Oceanía","","0","0","1","individual","right","1.37969589233","3068.83291507","3.62030410767","3072.60654497","5.67431998253","3078.28092909","0.325680017471","3078.64026499","3080.45193601","3080.49033713","3083.49331617","0","3083.50761914","3088.74553919",""
