"code","nro_aplicante","nro_bloque","nro_trial_bloque","nro_trial_global","show_game_type","choice_order","rival","pay_individual","pay_competitive","question","answer_left_text","answer_right_text","correct_answer","outcome_individual","outcome_competitive","outcome_rival","game_type","answer","social_time","rt_game_type","feedback_delay","show_question","answer_time","rt_answer_global","feedback_delay_2","show_jitter","jitter_time","show_outcome","outcome_time","outcome_participant_real","show_final_jitter","second_jitter_time","inicio_descanso"
"sujeto_5fc6b519","2","1","1","1","31.6417710781","direct","3","1","4","¿Cuántos centímetros corresponden
al talle 36 del calzado?","23","24","","0","0","1","competitive","right","1.16515088081","32.8069939613","3.83484911919","36.7970509529","3.2909078598","40.0880329609","2.7090921402","42.8466961384","43.8749599457","43.9635920525","46.9665710926","0","46.981276989","49.1437830925",""
"sujeto_5fc6b519","2","1","2","2","49.2824990749","inverse","3","1","2","¿Cuántas metros mide la Intendencia
Municipal de Montevideo? ","84","78","","0","0","1","competitive","left","0.90944480896","50.1919910908","4.09055519104","54.4392139912","2.67182397842","57.1111030579","3.32817602158","60.4897401333","62.3677749634","62.4416940212","65.4446771145","0","65.4589481354","67.5517270565",""
"sujeto_5fc6b519","2","1","3","3","67.6776721478","direct","1","1","3","¿Cuántas La Pasiva
 hay en uruguay?","15","11","","1","1","1","competitive","left","0.949332952499","68.6270821095","4.0506670475","72.8441691399","1.74377608299","74.5880110264","4.25622391701","78.8790900707","80.4907450676","80.5645530224","83.5675561428","1","83.5821521282","87.8605079651",""
"sujeto_5fc6b519","2","1","4","4","88.0002081394","inverse","3","1","3","¿De que color es la camiseta de uruguay?","blanca","celeste","right","1","1","1","competitive","right","0.727766990662","88.7280399799","4.27223300934","93.1589810848","1.48190402985","94.6409449577","4.51809597015","99.208242178","100.413021088","100.494745016","103.497722149","1","103.510323048","106.964244127",""
"sujeto_5fc6b519","2","1","5","5","107.111588001","direct","2","1","1","¿Cuánto metros mide
la torre Eiffel?","333","324","","1","1","1","competitive","right","1.50245904922","108.614125013","3.49754095078","112.269891024","1.29012799263","113.560045958","4.70987200737","118.319264174","119.84068203","119.920866013","122.923797131","1","122.93927002","129.975931168",""
"sujeto_5fc6b519","2","1","6","6","130.123825073","inverse","3","1","4","¿Cuantas ciudades existen
 en todo el uruguay?","63","72","","0","0","1","competitive","right","0.841140031815","130.965029001","4.15885996819","135.280620098","2.68932795525","137.969989061","3.31067204475","141.33176899","142.38657999","142.466439962","145.469431162","0","145.483708143","153.110310078",""
"sujeto_5fc6b519","2","1","7","7","153.235553026","direct","1","1","1","¿Cuantos estados tiene África?","52","54","","1","1","0","competitive","right","1.1783759594","154.413975954","3.8216240406","158.390758038","2.04218888283","160.432986975","3.95781111717","164.441987038","166.30598402","166.377068043","169.380050182","1","169.394303083","175.155330181",""
"sujeto_5fc6b519","2","1","8","8","175.296399117","inverse","4","1","4","¿En qué año nació
 Stephen Hawking?","1952","1942","","0","0","1","competitive","right","0.919595003128","176.216037989","4.08040499687","180.470883131","2.34706997871","182.817993164","3.65293002129","186.520957947","187.965260983","188.039769173","191.042747021","0","191.057306051","197.15668416",""
"sujeto_5fc6b519","2","1","9","9","197.291907072","direct","2","1","3","¿Cuánto años tenía Artigas
 cuando se fue a Paraguay?","56","57","","1","1","1","competitive","right","1.07611083984","198.368061066","3.92388916016","202.448583126","2.58934617043","205.037973166","3.41065382957","208.498672962","210.048186064","210.133950949","213.136916161","1","213.15157795","219.198865175",""
"sujeto_5fc6b519","2","1","10","10","219.335656166","inverse","1","1","2","¿Cuantos milímetros 
mide una hoja A2?","420x592","420x594","","0","0","1","competitive","left","1.10642004013","220.442139149","3.89357995987","224.477061987","1.5968708992","226.073976994","4.4031291008","230.526942968","232.095380068","232.178802013","235.181770086","0","235.195976973","242.269628048",""
"sujeto_5fc6b519","2","1","11","11","242.415002108","direct","3","1","3","¿Cuál es la menor temperatura 
registrada en Uruguay?","-5.4","-7.4","","0","0","1","competitive","right","0.787994146347","243.203071117","4.21200585365","247.572100163","1.75889897346","249.331042051","4.24110102654","253.621932983","255.304044962","255.390681982","258.393639088","0","258.408895969","262.142196178",""
"sujeto_5fc6b519","2","1","12","12","262.276226044","inverse","2","1","2","¿Cuantos años hace que 
se fundó facebook?","18","17","","0","0","0","competitive","right","0.793787956238","263.070065022","4.20621204376","267.432322025","1.92762494087","269.360013962","4.07237505913","273.465799093","274.838557005","274.917272091","277.920248032","0","277.934981108","280.709634066",""
"sujeto_5fc6b519","2","1","13","13","280.853482962","direct","1","1","4","¿Cuál animal es más
 pesado en promedio?","Rinoceronte","Hipopotamo","","0","0","0","competitive","left","0.838526964188","281.692058086","4.16147303581","286.025328159","1.17960596085","287.204976082","4.82039403915","292.107411146","293.186666012","293.259957075","296.262922049","0","296.277126074","300.118137121",""
"sujeto_5fc6b519","2","1","14","14","300.262119055","inverse","1","1","2","¿Qué personaje de dragon ball 
murió más veces?","Chaoz","Krillin","","1","1","0","competitive","right","0.572925806046","300.835114956","4.42707419395","305.435585022","1.34343600273","306.779059172","4.65656399727","311.485229015","312.943061113","313.020491123","316.023484945","1","316.037750006","323.808704138",""
"sujeto_5fc6b519","2","1","15","15","323.939644098","direct","3","1","2","La universidad de oxford. 
existe desde:","1096","1249","","1","1","0","competitive","right","0.875386953354","324.815085173","4.12461304665","329.094344139","1.31068515778","330.40507412","4.68931484222","335.14517498","336.193994999","336.264412165","339.267390013","1","339.281780958","345.972635031",""
"sujeto_5fc6b519","2","1","16","16","346.100331068","inverse","3","1","1","¿Qué escritor latino ganó antes
 el premio nobel?"," García Marquez","Neruda","","0","0","1","competitive","left","0.950704813004","347.051102161","4.049295187","351.258882046","0.909112930298","352.16803813","5.0908870697","357.308233976","359.048235178","359.127356052","362.130331993","0","362.144814968","365.605327129",""
"sujeto_5fc6b519","2","1","17","17","365.746966124","direct","4","1","3","¿Cuántos dientes tiene un
 tiburón blanco?","6000","3000","","0","0","1","competitive","left","1.0630171299","366.810058117","3.9369828701","370.902482033","1.57952404022","372.482069016","4.42047595978","376.934587002","377.973613024","378.05457902","381.057595968","0","381.071020126","385.880702972",""
"sujeto_5fc6b519","2","1","18","18","386.022482157","inverse","4","1","1","¿Cuánto mide el paralelo Ecuador?","40.000km","70.000km","","0","0","1","individual","left","1.37953805923","387.402062178","3.62046194077","391.180155039","2.13779902458","393.318014145","3.86220097542","397.229917049","399.185984135","399.23194313","402.234841108","0","402.249969959","405.852552176",""
"sujeto_5fc6b519","2","1","19","19","406.000483036","direct","4","1","2","¿Cuál fue el primer libro 
de Stephen King?","Carrie","The Stand","","1","1","1","competitive","right","1.86150979996","407.862066984","3.13849020004","411.188138962","1.64585208893","412.834032059","4.35414791107","417.237857103","418.981964111","419.05697298","422.059923172","1","422.074530125","426.548975945",""
"sujeto_5fc6b519","2","1","20","20","426.693495989","inverse","2","1","3","¿Qué civilización practicaba
 la momificación?","Grecia","Egipto","right","0","0","1","competitive","right","1.06949090958","427.76305604","3.93050909042","431.866317987","1.14663600922","433.01299715","4.85336399078","437.916197062","439.855509996","439.935492992","442.938496113","1","442.953165054","447.181939125",""
"sujeto_5fc6b519","2","1","21","21","447.321676016","direct","4","1","4","¿Cuántos millones de visitas
 recibe google por minuto?","3.0","4.5","","0","0","1","competitive","left","1.08436083794","448.406118155","3.91563916206","452.478001118","1.90601015091","454.384049177","4.09398984909","458.527120113","460.041999102","460.129793167","463.132769108","0","463.141865969","470.264569998",""
"sujeto_5fc6b519","2","1","22","22","470.392591","inverse","1","1","3","La máquina de fax. se inventó en:","1843","1960","","0","0","1","competitive","left","1.15540981293","471.548067093","3.84459018707","475.556565046","2.7983880043","478.354997158","3.2016119957","481.606604099","482.848720074","482.924810171","485.927773952","0","485.941889048","489.178192139",""
"sujeto_5fc6b519","2","1","23","23","489.327422142","direct","2","1","4","En la verdadera historia de los
 300 espartanos. habían:","300 soldados","4300 soldados","","1","1","1","competitive","left","1.02756595612","490.355035067","3.97243404388","494.480901957","1.16514396667","495.646088123","4.83485603333","500.530476093","501.791670084","501.865834951","504.868788004","1","504.884250164","508.686020136",""
"sujeto_5fc6b519","2","1","24","24","508.835849047","inverse","1","1","4","¿Cuántos milímetros crece
 el pelo por día?","0.4","0.04","","0","0","0","competitive","left","0.91113781929","509.7470541","4.08886218071","514.008878946","2.13309311867","516.142032146","3.86690688133","520.059039116","521.819781065","521.892774105","524.895779133","0","524.910624981","531.645773172",""
"sujeto_5fc6b519","2","1","25","25","531.777822971","direct","4","1","1","¿Cuánto mide la baldosa gris 
clásica de Montevideo?","22x22 cm.","20x20 cm.","","1","1","1","individual","right","1.49517893791","533.273071051","3.50482106209","536.938099146","3.2149181366","540.153058052","2.7850818634","542.987912178","544.98310709","545.023326159","548.026283979","1","548.040658951","553.583467007",""
"sujeto_5fc6b519","2","1","26","26","553.725782156","inverse","2","1","2","¿Cuántas películas de rápidos
 y furiosos hay?","10","11","","1","1","0","competitive","left","1.47323298454","555.199079037","3.52676701546","558.865487099","2.6235461235","561.489093065","3.3764538765","564.916329145","566.274322033","566.351343155","569.354314089","1","569.368605137","571.403290033",""
"sujeto_5fc6b519","2","1","27","27","571.53622818","direct","3","1","1","¿Cuántos masters 1000
 ganó Del Potro?","1","2","","1","1","1","individual","left","1.06083106995","572.597131968","3.93916893005","576.691427946","3.28657913208","579.978048086","2.71342086792","582.741410017","584.496030092","584.541738987","587.544728041","1","587.559303999","594.955662012",""
"sujeto_5fc6b519","2","1","28","28","595.110430002","inverse","2","1","4","¿Cuántos meses dura el 
embarazo de una leona?","3 meses","4 meses","","0","0","1","competitive","left","1.01162290573","596.122097969","3.98837709427","600.269782066","2.9561882019","603.226029158","3.0438117981","606.320404053","607.431487083","607.505604982","610.508609056","0","610.523139954","617.245625019",""
"sujeto_5fc6b519","2","1","29","29","617.374068975","direct","1","1","1","¿En qué año fue creado
 el sandwich?","1762","1653","","1","1","0","individual","right","0.97496008873","618.349094152","4.02503991127","622.531324148","2.90566802025","625.437052965","3.09433197975","628.581979036","630.180551052","630.21631217","633.21924901","1","633.234457016","636.705044985",""
"sujeto_5fc6b519","2","1","30","30","636.836189032","inverse","4","1","2","El nombre de la moneda de Vietnam es:","Dinar","Dong","","0","0","1","competitive","left","1.17681288719","638.013066053","3.82318711281","641.992041111","3.43592309952","645.428025961","2.56407690048","648.042602062","649.474637032","649.560726166","652.563739061","0","652.57834506","658.746799946",""
"sujeto_5fc6b519","2","1","31","31","658.896465063","direct","2","1","1","¿cuantos aleteos puede dar 
un colibrí por segundo?","120","50","","0","0","0","competitive","left","1.21257185936","660.109100103","3.78742814064","664.052072048","3.64093589783","667.693072081","2.35906410217","670.102216959","671.834594965","671.920164108","674.923083067","0","674.938253164","679.150563955",""
"sujeto_5fc6b519","2","1","32","32","679.289471149","inverse","4","1","3","¿Qué altura promedio tienen
 los hombres uruguayos?","1.73 m","1.72 m","","1","1","1","competitive","left","1.14958810806","680.439110994","3.85041189194","684.447720051","2.54528784752","686.993070126","3.45471215248","690.496505022","691.758893967","691.832391977","694.835356951","1","694.84999299","699.325869083",""
"sujeto_5fc6b519","2","2","1","33","813.812159061","direct","1","1","1","¿En qué año nació 
el actor Bradd Pitt?","1967","1963","","1","1","1","competitive","right","0.997892141342","814.810091972","4.00210785866","818.966406107","3.01553702354","821.981981039","2.98446297646","825.016561985","826.112419128","826.184369087","829.18733716","1","829.201862097","835.129466057","699.337480068"
"sujeto_5fc6b519","2","2","2","34","835.270151138","inverse","2","1","1","¿Cual es el segundo 
monte más alto?","Kanchenjunga","K2","","1","1","1","competitive","left","0.910853147507","836.181066036","4.08914685249","840.425810099","3.00317716599","843.429044962","2.99682283401","846.477884054","847.93027997","848.011933088","851.014866114","1","851.030199051","854.460041046",""
"sujeto_5fc6b519","2","2","3","35","854.598077059","direct","3","1","1","¿Cuándo finalizó la construcción
 del Palacio Legislativo?","1925","1917","","0","0","1","competitive","left","0.902976989746","855.501098156","4.09702301025","859.753539085","3.46049404144","863.214071035","2.53950595856","865.787184954","867.428833961","867.50582099","870.508823156","0","870.5233531","876.220855951",""
"sujeto_5fc6b519","2","2","4","36","876.375087976","inverse","3","1","3","¿Cuántos integrantes tenía
 en su inicio  el cuarteto de nos?","3","4","","1","1","1","competitive","right","1.48392295837","877.859055996","3.51607704163","881.531756163","3.10230398178","884.63412118","2.89769601822","887.581418037","888.714487076","888.799731016","891.802751064","1","891.817422152","897.467190027",""
"sujeto_5fc6b519","2","2","5","37","897.602121115","direct","2","1","3","¿Qué valor tiene el número pi?","3.14","4.18","left","0","0","1","competitive","left","0.903972148895","898.5061481","4.0960278511","902.759166956","2.40685009956","905.166074991","3.59314990044","908.809113979","910.263312101","910.344238043","913.347182989","1","913.361577034","920.282559156",""
"sujeto_5fc6b519","2","2","6","38","920.413923979","inverse","2","1","2","¿Cuál es la esperanza de vida
 en Uruguay?","75","77","","1","1","0","competitive","left","1.15309500694","921.567063093","3.84690499306","925.569400072","2.91767191887","928.487137079","3.08232808113","931.621032","933.274824142","933.356462002","936.359472036","1","936.373805046","942.836810112",""
"sujeto_5fc6b519","2","2","7","39","942.977949142","direct","1","1","2","¿Cuantos pisos tiene la torre 
de las comunicaciones?","26","32","","1","1","0","competitive","right","1.59906196594","944.577059031","3.40093803406","948.132231951","3.35075092316","951.483042002","2.64924907684","954.181200027","956.009976149","956.082437038","959.083681107","1","959.100200176","961.244738102",""
"sujeto_5fc6b519","2","2","8","40","961.384829044","inverse","2","1","4","¿En qué país sudamericano 
no hay McDonalds?","Bolivia","Venezuela","","0","0","1","competitive","right","1.02022814751","962.405121088","3.97977185249","966.541584969","2.80440402031","969.34602499","3.19559597969","972.592643023","973.901992083","973.977292061","976.980236053","0","976.99488306","983.354609013",""
"sujeto_5fc6b519","2","2","9","41","983.496366024","direct","3","1","1","¿En qué año empieza
 la Edad Media?","476","512","","1","1","1","individual","right","1.44764184952","984.944050074","3.55235815048","988.654116154","2.66281199455","991.316964149","3.33718800545","994.687402964","996.091137171","996.138739109","999.141740084","1","999.156033993","1002.14458895",""
"sujeto_5fc6b519","2","2","10","42","1002.26857805","inverse","3","1","4","¿Hace cuántos años surgió
 el ser humano?","200mil","300mil","","0","0","0","competitive","left","0.950454950333","1003.21907711","4.04954504967","1007.42697001","2.52701091766","1009.95403814","3.47298908234","1013.47898912","1015.36500216","1015.44669318","1018.44971299","0","1018.46439314","1021.77484298",""
"sujeto_5fc6b519","2","2","11","43","1021.91660905","direct","3","1","4","¿Cuántas cuadras tiene
 actualmente 18 de julio? ","36","33","","0","0","1","competitive","left","1.07042503357","1022.98710108","3.92957496643","1027.07278705","3.32119989395","1030.39402509","2.67880010605","1033.12407112","1034.82632709","1034.90853095","1037.91155195","0","1037.92611313","1042.65237808",""
"sujeto_5fc6b519","2","2","12","44","1042.79390907","inverse","1","1","4","¿Qué juego de equipo se 
considera mas rápido?","Lacrosse","Badminton","","0","0","0","competitive","left","0.910060167313","1043.70401216","4.08993983269","1047.96754003","3.56744599342","1051.53504205","2.43255400658","1054.01853108","1055.26165605","1055.33567095","1058.33870697","0","1058.35302305","1066.34767008",""
"sujeto_5fc6b519","2","2","13","45","1066.48735118","direct","1","1","3","¿Qué promedio de edad 
vive una jirafa? ","25","20","","0","0","1","competitive","right","1.00770401955","1067.49509811","3.99229598045","1071.64642501","2.42655801773","1074.07301903","3.57344198227","1077.69654417","1079.45802903","1079.53175211","1082.53475308","0","1082.54898715","1088.50474215",""
"sujeto_5fc6b519","2","2","14","46","1088.65057611","inverse","1","1","2","¿Cuántos grandes lagos hay?","7","5","","0","0","1","competitive","left","1.09341907501","1089.74403906","3.90658092499","1093.80490708","2.85205197334","1096.65701413","3.14794802666","1099.85729218","1101.14944816","1101.22508597","1104.22803211","0","1104.24226308","1112.06365299",""
"sujeto_5fc6b519","2","2","15","47","1112.21071815","direct","3","1","2","¿Cuántos discos de estudio
 grabó Johhny Cash? ","54","43","","1","1","0","competitive","right","1.15332913399","1113.36411405","3.84667086601","1117.38510418","2.93691301346","1120.32207513","3.06308698654","1123.43421602","1124.71283317","1124.78499198","1127.78791404","1","1127.80276299","1134.45368814",""
"sujeto_5fc6b519","2","2","16","48","1134.58706403","inverse","4","1","1","¿Cuántos barrios tiene
 Montevideo? ","71","62","","0","0","1","individual","right","1.23798704147","1135.82511806","3.76201295853","1139.74806213","2.41995501518","1142.16805601","3.58004498482","1145.79756498","1146.80466199","1146.84960198","1149.85257912","0","1149.86731696","1155.3293221",""
"sujeto_5fc6b519","2","2","17","49","1155.46837616","direct","3","1","3","¿Qué edad tiene Homero Simpson?","36","42","","0","0","1","competitive","left","0.950674057007","1156.41915202","4.04932594299","1160.64200401","2.60100102425","1163.24306297","3.39899897575","1166.69178796","1168.06785011","1168.14391994","1171.14686608","0","1171.16147399","1175.550179",""
"sujeto_5fc6b519","2","2","18","50","1175.69611311","inverse","4","1","2","¿Cuántos países con monarquía 
hay en europa actualmente? ","6","10","","1","1","1","competitive","left","1.16290903091","1176.85906506","3.83709096909","1180.85090303","2.56412601471","1183.41506815","3.43587398529","1186.88572216","1188.32396817","1188.40434813","1191.40731907","1","1191.421736","1197.57856107",""
"sujeto_5fc6b519","2","2","19","51","1197.7064991","direct","2","1","3","¿Cuántos capítulos de
 Friends existen? ","236","228","","1","1","1","competitive","right","0.967504024506","1198.67405009","4.03249597549","1202.86227012","2.4857480526","1205.34807706","3.5142519474","1208.91243505","1210.21795297","1210.29744005","1213.30040407","1","1213.31501102","1215.69065118",""
"sujeto_5fc6b519","2","2","20","52","1215.81579709","inverse","1","1","3","¿Cuántas óperas compuso Mozart? ","27","22","","1","1","1","competitive","left","0.969253063202","1216.785115","4.0307469368","1220.98918796","2.88074207306","1223.86999202","3.11925792694","1227.02392197","1228.31608295","1228.39194012","1231.39490604","1","1231.40838313","1238.719836",""
"sujeto_5fc6b519","2","2","21","53","1238.860991","direct","4","1","3","¿Cuántos mundiales de fútbol 
femenino ha realizado FIFA? ","9","7","","1","1","1","competitive","left","1.49707388878","1240.35813212","3.50292611122","1244.03442907","3.28455686569","1247.31904817","2.71544313431","1250.08566904","1251.32938409","1251.42206216","1254.42502213","1","1254.43725801","1260.53965902",""
"sujeto_5fc6b519","2","2","22","54","1260.68888211","inverse","3","1","2","¿Cuál es la temperatura 
media anual en Montevideo? ","17.5","16.3","","0","0","1","competitive","left","1.0191590786","1261.70810318","3.9808409214","1265.84400415","2.86191797256","1268.70598197","3.13808202744","1271.87960196","1273.81820607","1273.89818501","1276.90115905","0","1276.91543508","1283.48494601",""
"sujeto_5fc6b519","2","2","23","55","1283.61645317","direct","2","1","2","¿En qué año se estrenó el
 videojuego The Sims? ","2000","2002","","0","0","0","competitive","right","1.04656100273","1284.66307807","3.95343899727","1288.78913212","2.83988595009","1291.62905407","3.16011404991","1294.8405931","1296.70262098","1296.77443099","1299.77738905","0","1299.79310203","1307.18679118",""
"sujeto_5fc6b519","2","2","24","56","1307.32794309","inverse","2","1","1","¿Cuál es la canción con 
mas covers? ","Yesterday","Stand by me","","0","0","0","competitive","left","1.98612189293","1309.31413007","3.01387810707","1312.48509312","2.44194817543","1314.92707896","3.55805182457","1318.53755808","1319.93612003","1320.00536299","1323.00835109","0","1323.02278113","1327.19361997",""
"sujeto_5fc6b519","2","2","25","57","1327.34144211","direct","1","1","4","¿Cuánto duró la guerra
 de los 100 años?","116","123","","0","0","0","competitive","left","0.784606218338","1328.12611604","4.21539378166","1332.51332307","2.45374798775","1334.96711612","3.54625201225","1338.56304717","1340.04387116","1340.11528397","1343.11826897","0","1343.13263798","1345.45241714",""
"sujeto_5fc6b519","2","2","26","58","1345.60067511","inverse","4","1","4","¿Qué color tiene la  bandera de Brasil?","Amarillo","Naranja","left","0","0","1","competitive","left","0.887400150299","1346.48812604","4.1125998497","1350.75484514","2.40019392967","1353.15508509","3.59980607033","1356.80645418","1358.37293005","1358.45849299","1361.4614861","1","1361.47663617","1364.50943398",""
"sujeto_5fc6b519","2","2","27","59","1364.66047597","direct","4","1","3","¿Qué carabela de 
Colon no volvió del viaje?","Santa María","La pinta","","0","0","1","competitive","right","1.23662209511","1365.89717007","3.76337790489","1369.8327601","3.37228512764","1373.20508599","2.62771487236","1375.88351011","1377.37455916","1377.45149517","1380.45449615","0","1380.46904516","1382.56852102",""
"sujeto_5fc6b519","2","2","28","60","1382.7040031","inverse","4","1","4","¿Cuántos huesos tiene
 un adulto humano?","217","206","","0","0","1","competitive","right","0.930814981461","1383.63488412","4.06918501854","1387.87503314","2.01596403122","1389.89106202","3.98403596878","1393.92533112","1395.19636798","1395.27730799","1398.28031301","0","1398.29455495","1406.13225818",""
"sujeto_5fc6b519","2","2","29","61","1406.262784","direct","1","1","1","¿Qué país africano fue 
fundado por esclavos?","Liberia","Chad","","0","0","0","competitive","left","1.60830998421","1407.87113905","3.39169001579","1411.42029309","3.3507361412","1414.77109408","2.6492638588","1417.47160506","1419.46328115","1419.53894401","1422.5418961","0","1422.55767202","1430.548558",""
"sujeto_5fc6b519","2","2","30","62","1430.69186807","inverse","4","1","2","¿A cuánto asciende la cima
 del monte Everest?","7.990 mts","8.848 mts","","0","0","1","individual","right","1.7982301712","1432.49013996","3.2017698288","1435.86756396","2.46759700775","1438.33518696","3.53240299225","1441.91754007","1443.102386","1443.15233302","1446.15529799","0","1446.16968417","1453.35373211",""
"sujeto_5fc6b519","2","2","31","63","1453.50432706","direct","4","1","1","¿Cuál es el país mas chico?","Sealand","Luxemburgo","","1","1","1","individual","right","1.33872199059","1454.84312201","3.66127800941","1458.66020203","2.0688149929","1460.72906017","3.9311850071","1464.71039009","1466.57390404","1466.61254215","1469.61550903","1","1469.63018513","1472.75247908",""
"sujeto_5fc6b519","2","2","32","64","1472.89837813","inverse","2","1","4","¿Cuántas pirámides hay en Egipto?","10000","11000","","1","1","1","competitive","right","0.905846118927","1473.80427098","4.09415388107","1478.07156706","2.37248587608","1480.44409704","3.62751412392","1484.12294006","1485.15656209","1485.24059701","1488.24358201","1","1488.25813699","1493.36720705",""
"sujeto_5fc6b519","2","3","1","65","1599.24501514","direct","2","1","2","¿Cuál es el quinto país con 
mas extensión?","Canadá","Brasil","","1","1","0","competitive","right","0.860047101974","1600.10511017","4.13995289803","1604.40081096","2.58627009392","1606.98712516","3.41372990608","1610.45266795","1611.78591609","1611.87141299","1614.87437606","1","1614.88869715","1622.61505795","1493.37893605"
"sujeto_5fc6b519","2","3","2","66","1622.7561841","inverse","1","1","2","¿Qué rasgo facial no tiene
 la Mona Lisa?","Cejas","Pómulos","","0","0","1","competitive","left","0.944922924042","1623.70118403","4.05507707596","1627.91357613","2.9975361824","1630.91115212","3.0024638176","1633.96495008","1635.71532607","1635.79906797","1638.80199695","0","1638.8175571","1645.08890009",""
"sujeto_5fc6b519","2","3","3","67","1645.23516202","direct","4","1","3","¿Cuál es el país con 
mayor población?","Esados Unidos","China","right","0","0","1","competitive","right","1.04298782349","1646.27822304","3.95701217651","1650.41049218","3.0925951004","1653.50314713","2.9074048996","1656.44430614","1658.09027815","1658.17956996","1661.18257999","1","1661.19793606","1664.56522202",""
"sujeto_5fc6b519","2","3","4","68","1664.71545315","inverse","1","1","1","La palabra dinosaurio significa","Lagarto Terrible","Lagarto Dragón","","1","1","0","competitive","right","1.27267694473","1665.98817205","3.72732305527","1669.88744497","3.01062202454","1672.89811397","2.98937797546","1675.93690395","1677.10723805","1677.18932104","1680.19230795","1","1680.2066431","1683.06846905",""
"sujeto_5fc6b519","2","3","5","69","1683.20747399","direct","2","1","3","¿Qué es el membrillero?","Arbol","Arbusto","","0","0","0","competitive","left","0.829654932022","1684.03719616","4.17034506798","1688.35855412","2.50752210617","1690.86614418","3.49247789383","1694.41030312","1696.364429","1696.44568801","1699.44868016","0","1699.46337795","1705.92741203",""
"sujeto_5fc6b519","2","3","6","70","1706.06517696","inverse","3","1","3","¿Alrededor de qué planeta orbita 
el satélite Europa?","Jupiter","Saturno","","1","1","1","competitive","right","0.901928901672","1706.96715307","4.09807109833","1711.22506714","3.23302507401","1714.45813608","2.76697492599","1717.27607012","1718.82088017","1718.89388204","1721.89687109","1","1721.91240716","1724.11759114",""
"sujeto_5fc6b519","2","3","7","71","1724.2467041","direct","3","1","1","¿Donde fue el mundial de 
fútbol de 1954?","Suiza","Suecia","","1","1","1","competitive","left","1.04846906662","1725.29522395","3.95153093338","1729.43263912","2.95843505859","1732.39113498","3.04156494141","1735.48326612","1736.73588514","1736.81822705","1739.82123017","1","1739.83546209","1743.74723697",""
"sujeto_5fc6b519","2","3","8","72","1743.88697505","inverse","1","1","4","¿Cuál de los 7 enanitos
no tenía barba?","Bashful","Mudito","","1","1","0","competitive","right","0.956457853317","1744.84348702","4.04354214668","1749.04219913","2.77492618561","1751.81716609","3.22507381439","1755.09462309","1756.67476296","1756.74623013","1759.74920511","1","1759.76346397","1764.6925621",""
"sujeto_5fc6b519","2","3","9","73","1764.83165812","direct","3","1","2","¿Cual red social es
mas utilizada mundialmente?","Instagram","Facebook","","1","1","0","competitive","left","1.01544904709","1765.84717703","3.98455095291","1770.00427008","2.78880095482","1772.79311109","3.21119904518","1776.05461597","1777.97194695","1778.05592012","1781.05890608","1","1781.07349515","1784.00796008",""
"sujeto_5fc6b519","2","3","10","74","1784.14229012","inverse","4","1","1","¿Cuándo se inició la copa
 América de fútbol?","1916","1923","","1","1","1","individual","right","1.30681204796","1785.44914508","3.69318795204","1789.29922915","2.63986515999","1791.93913507","3.36013484001","1795.34847999","1797.24592209","1797.28357005","1800.28655005","1","1800.30220318","1802.95828915",""
"sujeto_5fc6b519","2","3","11","75","1803.10299206","direct","3","1","4","¿Cuántos presidentes de EEUU
han muerto asesinados?","3","4","","0","0","1","competitive","left","0.875108957291","1803.97816896","4.12489104271","1808.25786901","2.83323502541","1811.09114408","3.16676497459","1814.30836105","1815.79227614","1815.87677097","1818.87978411","0","1818.89497709","1822.5390451",""
"sujeto_5fc6b519","2","3","12","76","1822.68022799","inverse","2","1","4","¿Cuántas veces participó EEUU
 en la copa América?","4","5","","0","0","1","competitive","right","0.972903013229","1823.65318298","4.02709698677","1827.83029413","2.67183017731","1830.50216508","3.32816982269","1833.88208699","1835.32617116","1835.40133595","1838.40362","0","1838.41820502","1844.53537011",""
"sujeto_5fc6b519","2","3","13","77","1844.67057896","direct","4","1","1","¿Cuál de estos países 
no formaba la URSS?","Azeribayán","Afganistán","","0","0","1","individual","right","1.40652990341","1846.07715297","3.59347009659","1849.81261516","3.30251693726","1853.11517501","2.69748306274","1855.86330509","1857.17638302","1857.21371818","1860.21669006","0","1860.23133707","1868.21349716",""
"sujeto_5fc6b519","2","3","14","78","1868.34950614","inverse","1","1","1","¿En qué año se inauguró
 el teatro Solís?","1867","1856","","0","0","0","competitive","right","1.52561092377","1869.87515807","3.47438907623","1873.50933909","2.80478715897","1876.31416798","3.19521284103","1879.55854416","1880.61466217","1880.69375014","1883.69669795","0","1883.71145296","1890.35926318",""
"sujeto_5fc6b519","2","3","15","79","1890.51256895","direct","1","1","4","¿A qué velocidad vuela 
el avión más rápido?","3529","3874","","0","0","0","competitive","right","0.735627889633","1891.24827409","4.26437211037","1895.68664503","2.57447600365","1898.26118803","3.42552399635","1901.73585415","1903.49137712","1903.56995702","1906.57293916","0","1906.58715105","1908.69743299",""
"sujeto_5fc6b519","2","3","16","80","1908.83822799","inverse","3","1","4","¿De qué año es la primer 
película cinematográfica?","1897","1888","","0","0","0","competitive","right","0.991144895554","1909.82944798","4.00885510445","1914.007447","3.32564496994","1917.33316016","2.67435503006","1920.06016302","1921.19315815","1921.27803397","1924.28093815","0","1924.29560995","1929.70537996",""
"sujeto_5fc6b519","2","3","17","81","1929.84700012","direct","2","1","3","¿Cuántos países 
tiene nuestro planeta?","191","194","","1","1","1","competitive","right","0.832254171371","1930.67931318","4.16774582863","1935.00693202","2.63319182396","1937.64016414","3.36680817604","1941.05725718","1942.41448307","1942.49240303","1945.49539208","1","1945.51000309","1948.74831009",""
"sujeto_5fc6b519","2","3","18","82","1948.87737513","inverse","2","1","2","¿Cuántos habitantes
 tiene Buenos Aires?","2.9000.000","3650000","","0","0","0","competitive","left","1.35871386528","1950.23616505","3.64128613472","1954.03401208","2.85007286072","1956.88413","3.14992713928","1960.08404803","1961.48131204","1961.56919217","1964.57216716","0","1964.58586907","1970.41524601",""
"sujeto_5fc6b519","2","3","19","83","1970.55417204","direct","2","1","1","¿Cuántos kilos forman una tonelada?","1000","1500","left","1","1","1","competitive","left","1.12997198105","1971.68418908","3.87002801895","1975.71065497","3.18943691254","1978.90013504","2.81056308746","1981.76129603","1983.64865112","1983.73014116","1986.73313117","1","1986.74743295","1992.70486116",""
"sujeto_5fc6b519","2","3","20","84","1992.84834504","inverse","4","1","4","¿Cuántos estados tiene la 
República del Perú? ","24","23","","0","0","1","competitive","right","1.40780591965","1994.25622106","3.59219408035","1998.00437403","2.67571401596","2000.68012905","3.32428598404","2004.05533814","2005.07755804","2005.15575409","2008.15874004","0","2008.17342496","2013.11874604",""
"sujeto_5fc6b519","2","3","21","85","2013.25883913","direct","3","1","3","¿En qué año nació Cristóbal Colón? ","1451","1447","","0","0","1","competitive","left","0.927602767944","2014.18649411","4.07239723206","2018.41598606","2.52809882164","2020.94412804","3.47190117836","2024.46569896","2026.31161213","2026.38373208","2029.38671708","0","2029.40131307","2033.62930298",""
"sujeto_5fc6b519","2","3","22","86","2033.76937103","inverse","4","1","4","¿Cuánto mide la 
Montaña Aconcagua? ","6234","6962","","0","0","1","competitive","right","0.988831043243","2034.75830913","4.01116895676","2038.92740917","3.2326939106","2042.16016197","2.7673060894","2044.9781251","2046.26750708","2046.34562016","2049.348598","0","2049.36284518","2056.5464921",""
"sujeto_5fc6b519","2","3","23","87","2056.69798303","direct","2","1","4","¿Cuánto mide el punto
 más profundo del océano? ","12508","11003","","0","0","1","competitive","left","0.913144826889","2057.61117315","4.08685517311","2061.87163901","2.87750291824","2064.74920702","3.12249708176","2067.90577006","2069.15729213","2069.24081516","2072.24380302","0","2072.25801206","2076.46428013",""
"sujeto_5fc6b519","2","3","24","88","2076.59355712","inverse","1","1","3","¿Cuántos álbumes ha publicado 
el cantante Jaime Roos? ","41","34","","0","0","1","competitive","left","0.888593196869","2077.48221612","4.11140680313","2081.76050615","2.60864210129","2084.36921811","3.39135789871","2087.81220508","2089.30205917","2089.38099909","2092.38396597","0","2092.39848208","2098.59467316",""
"sujeto_5fc6b519","2","3","25","89","2098.73287416","direct","4","1","3","¿En qué año nació el 
ex-presidente Jorge Battle? ","1921","1927","","1","1","1","competitive","left","0.992285013199","2099.72523308","4.0077149868","2103.91036701","2.51873707771","2106.42914605","3.48126292229","2109.96045613","2111.69118118","2111.76250005","2114.76548195","1","2114.780159","2118.26621914",""
"sujeto_5fc6b519","2","3","26","90","2118.41476417","inverse","1","1","3","¿Cuántas presidencias 
constitucionales  hubo en Uruguay? ","41","42","","0","0","1","competitive","left","0.979401111603","2119.39420915","4.0205988884","2123.57075214","3.06237602234","2126.63316703","2.93762397766","2129.62084413","2130.82459116","2130.90524912","2133.90819716","0","2133.92259908","2139.70620918",""
"sujeto_5fc6b519","2","3","27","91","2139.84080315","direct","1","1","2","¿Quién escribió mas sinfonías?","Mozart","Haydn","","1","1","0","competitive","left","1.1843931675","2141.02526402","3.8156068325","2145.01524615","2.29086899757","2147.30617809","3.70913100243","2151.06484509","2152.28233314","2152.36717606","2155.37016797","1","2155.38456607","2159.13596201",""
"sujeto_5fc6b519","2","3","28","92","2159.28594398","inverse","4","1","2","¿En qué año nació Michael Jackson?","1958","1953","","1","1","1","competitive","right","1.44118690491","2160.72720098","3.55881309509","2164.42358208","2.93855881691","2167.36218405","3.06144118309","2170.47407913","2172.45227814","2172.52504206","2175.52798295","1","2175.54365015","2181.40594411",""
"sujeto_5fc6b519","2","3","29","93","2181.54474115","direct","3","1","2","¿En qué año entró en vigencia 
la ley antitabaco en Uruguay?","2005","2006","","1","1","1","competitive","right","0.960417032242","2182.50520611","4.03958296776","2186.70313096","3.59102606773","2190.29421806","2.40897393227","2192.75350213","2194.34760618","2194.42173696","2197.42472506","1","2197.43915606","2202.77308011",""
"sujeto_5fc6b519","2","3","30","94","2202.92649317","inverse","3","1","1","¿Cuándo se subió el 
primer video a youtube?","2004","2005","","0","0","1","competitive","right","1.62863111496","2204.55516601","3.37136888504","2208.0978291","3.1202750206","2211.21814418","2.8797249794","2214.14769411","2215.45333099","2215.533252","2218.53618097","0","2218.55057597","2226.30614495",""
"sujeto_5fc6b519","2","3","31","95","2226.45147395","direct","2","1","1","¿Cuántos habitantes tiene India?","1200 millones","1300 millones","","0","0","0","competitive","right","1.03675508499","2227.48833704","3.96324491501","2231.62529707","2.79682278633","2234.42216015","3.20317721367","2237.6767931","2239.64643407","2239.72806001","2242.73100305","0","2242.74529314","2248.79280901",""
"sujeto_5fc6b519","2","3","32","96","2248.93044996","inverse","4","1","2","¿A qué edad murió Bob Marley?","36","37","","0","0","1","individual","right","2.22973585129","2251.16023517","2.77026414871","2254.08584499","2.55330300331","2256.63921404","3.44669699669","2260.1360271","2262.03364801","2262.07111216","2265.07267118","0","2265.08882117","2268.191257",""
"sujeto_5fc6b519","2","4","1","97","2382.14995098","direct","2","1","1","¿Cuantos años dirigió la selección 
uruguaya Tabarez?","15 años","13 años","","0","0","0","competitive","left","0.920169830322","2383.07020211","4.07983016968","2387.32271504","3.01441001892","2390.33716202","2.98558998108","2393.37395811","2394.56506014","2394.6419251","2397.64460206","0","2397.65933204","2404.73132396","2268.20738816"
"sujeto_5fc6b519","2","4","2","98","2404.86015916","inverse","4","1","1","¿Cuantas teclas tiene un teclado 
de computadora generalmente? ","Entre 99 y 108","Entre 109 y 113","","1","1","1","individual","right","1.30502414703","2406.16525197","3.69497585297","2410.03518605","3.19997286797","2413.23519802","2.80002713203","2416.08512712","2417.08790708","2417.13731217","2420.14025116","1","2420.15369201","2422.52462697",""
"sujeto_5fc6b519","2","4","3","99","2422.65560102","direct","1","1","1","¿Cuál Departamento tiene
 mayor superficie?","Río Negro","Soriano","","0","0","0","competitive","left","0.890655040741","2423.54632807","4.10934495926","2427.81106806","2.76704692841","2430.57817602","3.23295307159","2433.86117911","2435.57461405","2435.64520097","2438.64812398","0","2438.66334915","2442.98942399",""
"sujeto_5fc6b519","2","4","4","100","2443.1315701","inverse","3","1","2","¿Cuál es el apellido de las 
hermanastras  de  cenicienta?","Tremaine","Truman","","0","0","1","competitive","left","1.10061311722","2444.23224807","3.89938688278","2448.30420208","2.82192015648","2451.12618208","3.17807984352","2454.35526609","2456.22483397","2456.30669403","2459.30968499","0","2459.32438207","2462.01961398",""
"sujeto_5fc6b519","2","4","5","101","2462.15849495","direct","4","1","4","¿Cuál película ganó un
 Oscar a mejor película?","Alto Impacto","Cache","","0","0","1","competitive","left","1.06569099426","2463.22423816","3.93430900574","2467.33039904","3.36377000809","2470.69420815","2.63622999191","2473.38116217","2474.50057006","2474.58208513","2477.58501601","0","2477.59988999","2479.86456418",""
"sujeto_5fc6b519","2","4","6","102","2480.00208712","inverse","1","1","3","¿A cuántos centímetros
equivale la medida pié?","25","30","","0","0","1","competitive","left","0.933127164841","2480.93525696","4.06687283516","2485.17146707","3.39476394653","2488.56627297","2.60523605347","2491.20718408","2492.24714303","2492.32538605","2495.32832503","0","2495.34182405","2500.74276996",""
"sujeto_5fc6b519","2","4","7","103","2500.877105","direct","2","1","2","¿Qué departamento es mas grande?","Cerro Largo","Paysandú","","0","0","0","competitive","right","0.811110973358","2501.68829298","4.18888902664","2506.03216815","1.95801496506","2507.99025106","4.04198503494","2512.08220816","2513.68193102","2513.76775599","2516.77074814","0","2516.78533602","2520.89529705",""
"sujeto_5fc6b519","2","4","8","104","2521.03662395","inverse","2","1","3","¿Quién pintó la Mona Lisa?","Picasso","Da Vinci","right","0","0","1","competitive","right","0.972873926163","2522.00958109","4.02712607384","2526.19402909","2.39113306999","2528.58520913","3.60886693001","2532.24467802","2533.85053802","2533.92965102","2536.93265104","1","2536.94711709","2539.1094451",""
"sujeto_5fc6b519","2","4","9","105","2539.24889302","direct","4","1","3","¿Cuántos litros hay en un galon?","3.54","3.78","","1","1","1","competitive","left","1.22926688194","2540.47822714","3.77073311806","2544.41979218","2.68435192108","2547.10421205","3.31564807892","2550.47011614","2551.98797703","2552.07259297","2555.07558799","1","2555.08982706","2560.88217497",""
"sujeto_5fc6b519","2","4","10","106","2561.02426696","inverse","4","1","1","¿Cuántas teclas tiene
 un piano moderno?","80","88","","0","0","1","individual","left","1.0789411068","2562.10325098","3.9210588932","2566.17908812","2.85105013847","2569.0302","3.14894986153","2572.23111606","2573.23960114","2573.28277802","2576.28575706","0","2576.29947615","2583.0972631",""
"sujeto_5fc6b519","2","4","11","107","2583.25117707","direct","4","1","3","¿Cuántos países hay en África?","54","62","","0","0","1","competitive","left","0.914042949677","2584.16529703","4.08595705032","2588.40988398","2.17030000687","2590.58024502","3.82969999313","2594.46009517","2596.15063405","2596.22822714","2599.23120618","0","2599.24583697","2607.0506041",""
"sujeto_5fc6b519","2","4","12","108","2607.18100095","inverse","1","1","3","¿En qué siglo se crearon
 las primeras pistolas?","XV","XIII","","1","1","1","competitive","right","0.991236925125","2608.17229795","4.00876307487","2612.35554695","3.14560985565","2615.50122213","2.85439014435","2618.388551","2620.33646703","2620.424191","2623.4271791","1","2623.44176817","2626.67488599",""
"sujeto_5fc6b519","2","4","13","109","2626.80987716","direct","3","1","4","¿En qué año se estrenó 
la serie friends?","1994","1995","","0","0","1","competitive","right","0.828328132629","2627.63825107","4.17167186737","2631.96470618","2.96448993683","2634.92923498","3.03551006317","2638.0157001","2639.89102006","2639.96707702","2642.97002912","0","2642.98529315","2647.99137497",""
"sujeto_5fc6b519","2","4","14","110","2648.13652205","inverse","3","1","4","¿En qué año nació Hitler?","1889","1887","","0","0","1","competitive","right","1.13567996025","2649.27223897","3.86432003975","2653.325109","2.82805895805","2656.15323305","3.17194104195","2659.35993004","2660.47427106","2660.54483104","2663.54782009","0","2663.56203794","2668.58899307",""
"sujeto_5fc6b519","2","4","15","111","2668.747298","direct","1","1","4","¿Cuánto pesa un elefante Africano?","6000 kilos","5400 kilos","","0","0","0","competitive","right","0.8669090271","2669.61424994","4.1330909729","2673.90341401","2.88178396225","2676.78526306","3.11821603775","2679.95370412","2681.30860996","2681.38932896","2684.392308","0","2684.40590405","2691.11266708",""
"sujeto_5fc6b519","2","4","16","112","2691.25819898","inverse","1","1","2","¿Qué porcentaje de 
la población es zurda?","10%","7%","","1","1","0","competitive","left","0.948016881943","2692.20626807","4.05198311806","2696.41543818","2.56575798988","2698.98123598","3.43424201012","2702.46564698","2703.70872903","2703.78377914","2706.78679013","1","2706.80145216","2712.78115106",""
"sujeto_5fc6b519","2","4","17","113","2712.91939211","direct","1","1","2","¿En qué año se estrenó
Volver al futuro?","1984","1985","","0","0","1","competitive","right","0.739798069","2713.65925598","4.260201931","2718.09298801","2.82416391373","2720.91719103","3.17583608627","2724.14398503","2725.70565104","2725.7783401","2728.78133011","0","2728.79573107","2735.88719606",""
"sujeto_5fc6b519","2","4","18","114","2736.04758501","inverse","3","1","2","¿Cuántos jugadores hay en un 
equipo de baseball?","9","8","","1","1","0","competitive","right","0.841631889343","2736.88928795","4.15836811066","2741.22093105","2.9352889061","2744.15626001","3.0647110939","2747.27187109","2748.88613296","2748.95725703","2751.96024013","1","2751.97461295","2756.951864",""
"sujeto_5fc6b519","2","4","19","115","2757.09303808","direct","2","1","1","¿Cuántos Oscar ganó
 la película titanic?","13","11","","1","1","1","competitive","right","0.934194803238","2758.02727699","4.06580519676","2762.26485896","2.74130105972","2765.00619912","3.25869894028","2768.31453609","2769.61658812","2769.69935703","2772.70234704","1","2772.71705198","2777.31972599",""
"sujeto_5fc6b519","2","4","20","116","2777.46874595","inverse","4","1","4","¿En qué año comenzó
la segunda guerra mundial?","1939","1976","left","0","0","1","competitive","left","1.03046798706","2778.49926305","3.96953201294","2782.62657309","2.28160786629","2784.90822196","3.71839213371","2788.67625213","2790.47610116","2790.56179309","2793.56478715","1","2793.57942295","2797.56659698",""
"sujeto_5fc6b519","2","4","21","117","2797.69775915","direct","2","1","4","¿Cuántos biomas hay en Uruguay?","5","4","","0","0","1","competitive","right","0.968466997147","2798.66630507","4.03153300285","2802.86830401","2.37789392471","2805.24623895","3.62210607529","2808.90336514","2810.70070696","2810.78849912","2813.79149508","0","2813.80601597","2820.05371404",""
"sujeto_5fc6b519","2","4","22","118","2820.19074702","inverse","2","1","3","¿Cuándo murió Pablo Escobar?","1993","1997","","1","1","1","competitive","right","0.910490989685","2821.10134006","4.08950901031","2825.34783816","2.53834915161","2827.88623214","3.46165084839","2831.39860296","2833.18142605","2833.26735902","2836.27033615","1","2836.28472805","2841.98840117",""
"sujeto_5fc6b519","2","4","23","119","2842.11973","direct","1","1","4","¿Qué serie ha ganado mas premios?","Friends","Murphy Brown","","1","1","0","competitive","left","0.953485965729","2843.07326508","4.04651403427","2847.30781317","2.49441099167","2849.8022871","3.50558900833","2853.34142399","2854.69380903","2854.77727509","2857.78025913","1","2857.79392505","2863.35554004",""
"sujeto_5fc6b519","2","4","24","120","2863.49735117","inverse","4","1","2","¿Cuántas fichas tiene el dominó?","26","28","","1","1","1","competitive","right","1.91491603851","2865.41233206","3.08508396149","2868.68597412","2.45420598984","2871.14024401","3.54579401016","2874.73743701","2875.79277205","2875.8728621","2878.87588215","1","2878.89040399","2884.13349509",""
"sujeto_5fc6b519","2","4","25","121","2884.27495599","direct","2","1","4","¿Cuántos son los dientes de leche?","20","25","","0","0","1","competitive","right","1.22727394104","2885.50227404","3.77272605896","2889.43144298","2.37577104568","2891.80728006","3.62422895432","2895.48157811","2897.19194698","2897.26670218","2900.26970315","0","2900.28420401","2902.42992306",""
"sujeto_5fc6b519","2","4","26","122","2902.56858897","inverse","3","1","3","¿Cuántos gramos son una onza?","22","28","","0","0","1","competitive","left","0.949658870697","2903.51830101","4.0503411293","2907.73697114","2.68424510956","2910.42128515","3.31575489044","2913.78811002","2915.782974","2915.85640717","2918.85938597","0","2918.87509108","2925.16534114",""
"sujeto_5fc6b519","2","4","27","123","2925.31041813","direct","3","1","1","¿Cuándo salió el primer album
 de los Beatles?","1963","1962","","1","1","1","individual","left","1.40181112289","2926.71229601","3.59818887711","2930.46954012","2.73171019554","2933.20129514","3.26828980446","2936.51884913","2937.68245602","2937.72109699","2940.72404408","1","2940.738693","2944.51070714",""
"sujeto_5fc6b519","2","4","28","124","2944.65696907","inverse","3","1","3","¿Quién fundó la empresa apple?","Carlos Slim","Steve Jobs","","1","1","1","competitive","right","1.38927602768","2946.04629517","3.61072397232","2949.81215811","3.05004715919","2952.86227202","2.94995284081","2955.86323404","2956.97791696","2957.06445909","2960.06661415","1","2960.08111906","2966.37898397",""
"sujeto_5fc6b519","2","4","29","125","2966.51652813","direct","4","1","2","¿Cuántos municipios hay
 en Montevideo?","8","7","","1","1","1","competitive","left","1.75969815254","2968.27625799","3.24030184746","2971.67378306","2.0284371376","2973.70226407","3.9715628624","2977.7071321","2979.62191105","2979.70912218","2982.71163201","1","2982.72706413","2984.80814505",""
"sujeto_5fc6b519","2","4","30","126","2984.96001816","inverse","1","1","1","¿Cuántos kilómetros hay
 de Montevideo a Artigas?","632","599","","0","0","0","competitive","left","1.28921699524","2986.24927807","3.71078300476","2990.13187313","2.63134098053","2992.76325512","3.36865901947","2996.18157601","2997.66470218","2997.74997997","3000.75299096","0","3000.76777911","3006.81993103",""
"sujeto_5fc6b519","2","4","31","127","3006.96894598","direct","2","1","2","¿En qué año nació 
Leonardo Da Vinci?","1452","1511","","1","1","0","competitive","left","1.13927698135","3008.10826707","3.86072301865","3012.12763405","2.29057097435","3014.41824603","3.70942902565","3018.178128","3020.03175306","3020.11317515","3023.11616111","1","3023.13087106","3026.27722907",""
"sujeto_5fc6b519","2","4","32","128","3026.41548014","inverse","3","1","1","¿A qué continente
 pertenece el país Gabón?","Africa","Oceanía","","0","0","1","individual","left","1.40873408318","3027.82428002","3.59126591682","3031.57126403","3.58092284203","3035.15224814","2.41907715797","3037.62143517","3039.43306708","3039.47335196","3042.47632813","0","3042.49092817","3047.72883105",""
