"code","nro_aplicante","nro_bloque","nro_trial_bloque","nro_trial_global","show_game_type","choice_order","rival","pay_individual","pay_competitive","question","answer_left_text","answer_right_text","correct_answer","outcome_individual","outcome_competitive","outcome_rival","game_type","answer","social_time","rt_game_type","feedback_delay","show_question","answer_time","rt_answer_global","feedback_delay_2","show_jitter","jitter_time","show_outcome","outcome_time","outcome_participant_real","show_final_jitter","second_jitter_time","inicio_descanso"
"sujeto_39b35dcb","1","1","1","1","231.99506402","direct","3","1","4","¿Cuántos centímetros corresponden
al talle 36 del calzado?","23","24","","0","0","1","competitive","left","1.69675016403","233.691877127","3.30324983597","237.153362989","2.73146486282","239.88489604","3.26853513718","243.202844143","244.231131077","244.305186987","247.308171988","0","247.321885109","249.484416962",""
"sujeto_39b35dcb","1","1","2","2","249.624027014","inverse","3","1","2","¿Cuántas metros mide la Intendencia
Municipal de Montevideo? ","84","78","","0","0","1","competitive","left","1.83001589775","251.454110146","3.16998410225","254.7789011","3.59417200089","258.373132944","2.40582799911","260.813578129","262.691610098","262.76402998","265.766968966","0","265.781818151","267.874580145",""
"sujeto_39b35dcb","1","1","3","3","268.000937939","direct","1","1","3","¿Cuántas La Pasiva
 hay en uruguay?","15","11","","1","1","1","individual","right","1.5482480526","269.549246073","3.4517519474","273.153739929","3.83046913147","276.984262943","2.16953086853","279.189121008","280.800148964","280.840673923","283.843622923","1","283.857656002","288.13599515",""
"sujeto_39b35dcb","1","1","4","4","288.292920113","inverse","3","1","3","¿De que color es la camiseta de uruguay?","blanca","celeste","right","1","1","1","competitive","right","0.905524015427","289.198509932","4.09447598457","293.449164152","2.28628802299","295.73549509","3.71371197701","299.499446154","300.704216003","300.784754038","303.787714958","1","303.801964045","307.255882978",""
"sujeto_39b35dcb","1","1","5","5","307.386565924","direct","2","1","1","¿Cuánto metros mide
la torre Eiffel?","333","324","","1","1","1","competitive","left","1.69304203987","309.079674959","3.30695796013","312.525960922","3.37969207764","315.905719995","2.62030792236","318.560359955","320.081750154","320.161443949","323.164438009","1","323.178422928","330.215120077",""
"sujeto_39b35dcb","1","1","6","6","330.34713006","inverse","3","1","4","¿Cuantas ciudades existen
 en todo el uruguay?","63","72","","0","0","1","competitive","left","1.07464885712","331.421833038","3.92535114288","335.484961987","4.1966650486","339.681689978","1.8033349514","341.521177053","342.575959921","342.655408144","345.658386946","0","345.672511101","353.299101114",""
"sujeto_39b35dcb","1","1","7","7","353.441132069","direct","1","1","1","¿Cuantos estados tiene África?","52","54","","1","1","0","competitive","left","1.33954000473","354.78073597","3.66045999527","358.582863092","3.77371311188","362.356617928","2.22628688812","364.633187056","366.497189045","366.568392038","369.571381092","1","369.585639954","375.346662998",""
"sujeto_39b35dcb","1","1","8","8","375.470456123","inverse","4","1","4","¿En qué año nació
 Stephen Hawking?","1952","1942","","0","0","1","competitive","left","1.19716310501","376.667686939","3.80283689499","380.627197027","3.76330494881","384.390557051","2.23669505119","386.661613941","388.105901003","388.179396152","391.18237114","0","391.196454048","397.295813084",""
"sujeto_39b35dcb","1","1","9","9","397.448156118","direct","2","1","3","¿Cuánto años tenía Artigas
 cuando se fue a Paraguay?","56","57","","1","1","1","competitive","left","2.0233809948","399.471580029","2.9766190052","402.604912996","2.98064303398","405.585613966","3.01935696602","408.655143023","410.204261065","410.274189949","413.276261091","1","413.292315006","419.339621067",""
"sujeto_39b35dcb","1","1","10","10","419.476858139","inverse","1","1","2","¿Cuantos milímetros 
mide una hoja A2?","420x592","420x594","","0","0","1","competitive","right","1.83074498177","421.307670116","3.16925501823","424.633249044","4.14328098297","428.776572943","1.85671901703","430.667572975","432.236005068","432.318773031","435.321756124","0","435.335788965","442.409394026",""
"sujeto_39b35dcb","1","1","11","11","442.570127964","direct","3","1","3","¿Cuál es la menor temperatura 
registrada en Uruguay?","-5.4","-7.4","","0","0","1","competitive","left","1.62938904762","444.199592113","3.37061095238","447.728130102","3.72941112518","451.457606077","2.27058887482","453.77846694","455.460492134","455.530506134","458.533461094","0","458.547472954","462.280765057",""
"sujeto_39b35dcb","1","1","12","12","462.448981047","inverse","2","1","2","¿Cuantos años hace que 
se fundó facebook?","18","17","","0","0","0","competitive","right","1.89655590057","464.345647097","3.10344409943","467.639308929","3.28518390656","470.924533129","2.71481609344","473.689235926","475.061944008","475.140443087","478.143365145","0","478.157592058","480.932249069",""
"sujeto_39b35dcb","1","1","13","13","481.092864037","direct","1","1","4","¿Cuál animal es más
 pesado en promedio?","Rinoceronte","Hipopotamo","","0","0","0","competitive","left","2.35265994072","483.445589066","2.64734005928","486.248552084","4.06292200089","490.31153512","1.93707799911","492.333454132","493.412656069","493.484535933","496.487473965","0","496.501430988","500.342381001",""
"sujeto_39b35dcb","1","1","14","14","500.470049143","inverse","1","1","2","¿Qué personaje de dragon ball 
murió más veces?","Chaoz","Krillin","","1","1","0","competitive","right","1.22750997543","501.697603941","3.77249002457","505.608371973","4.58412790298","510.192543983","1.41587209702","511.659769058","513.117531061","513.193670034","516.196609974","1","516.212193012","523.985123158",""
"sujeto_39b35dcb","1","1","15","15","524.146027088","direct","3","1","2","La universidad de oxford. 
existe desde:","1096","1249","","1","1","0","competitive","right","1.82252717018","525.968615055","3.17747282982","529.304275036","4.07126402855","533.375604153","1.92873597145","535.354025126","536.402837992","536.472038984","539.475016117","1","539.489258051","546.180135965",""
"sujeto_39b35dcb","1","1","16","16","546.324705124","inverse","3","1","1","¿Qué escritor latino ganó antes
 el premio nobel?"," García Marquez","Neruda","","0","0","1","competitive","left","1.1138420105","547.438616991","3.8861579895","551.465225935","4.68834090233","556.153625011","1.31165909767","557.516395092","559.256381035","559.33348012","562.336451054","0","562.35165596","565.812179089",""
"sujeto_39b35dcb","1","1","17","17","565.953184128","direct","4","1","3","¿Cuántos dientes tiene un
 tiburón blanco?","6000","3000","","0","0","1","competitive","right","1.12040805817","567.073662043","3.87959194183","571.108917952","4.03772807121","575.146691084","1.96227192879","577.160624981","578.199626923","578.277610064","581.280575991","0","581.29480195","586.104454994",""
"sujeto_39b35dcb","1","1","18","18","586.245978117","inverse","4","1","1","¿Cuánto mide el paralelo Ecuador?","40.000km","70.000km","","0","0","1","competitive","left","1.14166998863","587.387709141","3.85833001137","591.381057024","3.25454616547","594.635640144","2.74545383453","597.433282137","599.389395952","599.467674017","602.470632076","0","602.485959053","606.088510036",""
"sujeto_39b35dcb","1","1","19","19","606.23666811","direct","4","1","2","¿Cuál fue el primer libro 
de Stephen King?","Carrie","The Stand","","1","1","1","competitive","left","1.56503915787","607.801770926","3.43496084213","611.396948099","2.59474110603","613.991732121","3.40525889397","617.445876122","619.189978123","619.26473403","622.267696142","1","622.281922102","626.756365061",""
"sujeto_39b35dcb","1","1","20","20","626.901443005","inverse","2","1","3","¿Qué civilización practicaba
 la momificación?","Grecia","Egipto","right","0","0","1","competitive","right","1.01630377769","627.917793989","3.98369622231","632.056807995","3.81597399712","635.872839928","2.18402600288","638.107929945","640.047201157","640.125930071","643.128868103","1","643.143172026","647.368241072",""
"sujeto_39b35dcb","1","1","21","21","647.494899988","direct","4","1","4","¿Cuántos millones de visitas
 recibe google por minuto?","3.0","4.5","","0","0","1","competitive","right","1.35995292664","648.854921103","3.64004707336","652.630699158","3.9000980854","656.53085494","2.0999019146","658.68287015","660.197685003","660.267290115","663.268219948","0","663.285279036","670.404214144",""
"sujeto_39b35dcb","1","1","22","22","670.537187099","inverse","1","1","3","La máquina de fax. se inventó en:","1843","1960","","0","0","1","competitive","right","2.11867809296","672.655930042","2.88132190704","675.693678141","4.53718304634","680.230903149","1.46281695366","681.747581005","682.989712","683.064424038","686.067348957","0","686.081510067","689.317759037",""
"sujeto_39b35dcb","1","1","23","23","689.449886084","direct","2","1","4","En la verdadera historia de los
 300 espartanos. habían:","300 soldados","4300 soldados","","1","1","1","competitive","left","1.65605783463","691.10599494","3.34394216537","694.589192152","4.6237680912","699.213001013","1.3762319088","700.624694109","701.885870934","701.95828414","704.961224079","1","704.975485086","708.776206017",""
"sujeto_39b35dcb","1","1","24","24","708.910145998","inverse","1","1","4","¿Cuántos milímetros crece
 el pelo por día?","0.4","0.04","","0","0","0","competitive","right","0.949408054352","709.859620094","4.05059194565","714.082339048","4.14467382431","718.227055073","1.85532617569","720.116383076","721.877107143","721.951300144","724.954278946","0","724.968169928","731.703261137",""
"sujeto_39b35dcb","1","1","25","25","731.836965084","direct","4","1","1","¿Cuánto mide la baldosa gris 
clásica de Montevideo?","22x22 cm.","20x20 cm.","","1","1","1","competitive","left","1.10111618042","732.938143969","3.89888381958","736.995115995","4.80901288986","741.804178953","1.19098711014","743.046126127","745.040210962","745.113435984","748.116424084","1","748.13135314","753.674142122",""
"sujeto_39b35dcb","1","1","26","26","753.815788984","inverse","2","1","2","¿Cuántas películas de rápidos
 y furiosos hay?","10","11","","1","1","0","competitive","left","1.00238704681","754.81823802","3.99761295319","758.968232155","3.26395487785","762.232228041","2.73604512215","765.002588987","766.360198975","766.438369036","769.441354036","1","769.455541134","771.49022603",""
"sujeto_39b35dcb","1","1","27","27","771.640133142","direct","3","1","1","¿Cuántos masters 1000
 ganó Del Potro?","1","2","","1","1","1","competitive","right","1.29614114761","772.936335087","3.70385885239","776.798644066","3.59563684464","780.394320965","2.40436315536","782.833069086","784.587636948","784.667318106","787.668231964","1","787.684417009","795.080780029",""
"sujeto_39b35dcb","1","1","28","28","795.21984005","inverse","2","1","4","¿Cuántos meses dura el 
embarazo de una leona?","3 meses","4 meses","","0","0","1","competitive","right","1.15559196472","796.375483036","3.84440803528","800.394459963","3.42595696449","803.820456028","2.57404303551","806.427977085","807.539005041","807.612612009","810.615594149","0","810.629706144","817.348251104",""
"sujeto_39b35dcb","1","1","29","29","817.482494116","direct","1","1","1","¿En qué año fue creado
 el sandwich?","1762","1653","","1","1","0","competitive","right","1.4160220623","818.898559093","3.5839779377","822.639140129","3.02837610245","825.667555094","2.97162389755","828.67298913","830.27154994","830.357553005","833.360506058","1","833.375535011","836.846166134",""
"sujeto_39b35dcb","1","1","30","30","836.976294994","inverse","4","1","2","El nombre de la moneda de Vietnam es:","Dinar","Dong","","0","0","1","competitive","right","1.10738801956","838.083760977","3.89261198044","842.130960941","3.23766207695","845.368667126","2.76233792305","848.182137966","849.614100933","849.699442148","852.702433109","0","852.716649055","858.885075092",""
"sujeto_39b35dcb","1","1","31","31","859.018661022","direct","2","1","1","¿cuantos aleteos puede dar 
un colibrí por segundo?","120","50","","0","0","0","competitive","left","1.13400197029","860.152712107","3.86599802971","864.176766157","3.31489992142","867.491707087","2.68510007858","870.227267027","871.959634066","872.029582977","875.032559156","0","875.04660511","879.256230116",""
"sujeto_39b35dcb","1","1","32","32","879.398177147","inverse","4","1","3","¿Qué altura promedio tienen
 los hombres uruguayos?","1.73 m","1.72 m","","1","1","1","competitive","left","0.990581989288","880.388823032","4.00941801071","884.570783138","3.12802505493","887.698876143","2.87197494507","890.605548143","891.867974997","891.940309048","894.943284988","1","894.957455158","899.433398962",""
"sujeto_39b35dcb","1","2","1","33","1033.62695813","direct","1","1","1","¿En qué año nació 
el actor Bradd Pitt?","1967","1963","","1","1","1","competitive","right","1.04875898361","1034.67578411","3.95124101639","1038.78463793","2.2500128746","1041.03470206","3.7499871254","1044.83511209","1045.93096995","1046.00288916","1049.00588894","1","1049.02006602","1054.94765806","899.445002079"
"sujeto_39b35dcb","1","2","2","34","1055.08836508","inverse","2","1","1","¿Cual es el segundo 
monte más alto?","Kanchenjunga","K2","","1","1","1","competitive","left","1.12149500847","1056.20992398","3.87850499153","1060.24547601","4.22741889954","1064.47296214","1.77258110046","1066.28070092","1067.7322371","1067.81506515","1070.81804299","1","1070.83230114","1074.26217508",""
"sujeto_39b35dcb","1","2","3","35","1074.40061212","direct","3","1","1","¿Cuándo finalizó la construcción
 del Palacio Legislativo?","1925","1917","","0","0","1","competitive","left","1.05141806602","1075.45217395","3.94858193398","1079.55621195","3.55780696869","1083.11408305","2.44219303131","1085.60733104","1087.24901509","1087.3244431","1090.32743502","0","1090.34256196","1096.04012108",""
"sujeto_39b35dcb","1","2","4","36","1096.21000409","inverse","3","1","3","¿Cuántos integrantes tenía
 en su inicio  el cuarteto de nos?","3","4","","1","1","1","competitive","right","1.10524702072","1097.31530309","3.89475297928","1101.36542106","3.08673882484","1104.45222306","2.91326117516","1107.41713309","1108.5501821","1108.61876893","1111.62174797","1","1111.6357491","1117.28417993",""
"sujeto_39b35dcb","1","2","5","37","1117.42270303","direct","2","1","3","¿Qué valor tiene el número pi?","3.14","4.18","left","0","0","1","competitive","left","1.4995508194","1118.92231607","3.5004491806","1122.57854795","2.38379502296","1124.96240115","3.61620497704","1128.62870502","1130.0829041","1130.16393304","1133.16419911","1","1133.18129706","1140.10223794",""
"sujeto_39b35dcb","1","2","6","38","1140.24999499","inverse","2","1","2","¿Cuál es la esperanza de vida
 en Uruguay?","75","77","","1","1","0","competitive","right","1.27943086624","1141.52948713","3.72056913376","1145.39023495","2.80522990227","1148.19552398","3.19477009773","1151.44081807","1153.09463215","1153.17617011","1156.17915702","1","1156.19338703","1162.65639496",""
"sujeto_39b35dcb","1","2","7","39","1162.81099296","direct","1","1","2","¿Cuantos pisos tiene la torre 
de las comunicaciones?","26","32","","1","1","0","competitive","left","1.01259493828","1163.82363296","3.98740506172","1167.96819115","3.9444270134","1171.9126761","2.0555729866","1174.00316596","1175.83195901","1175.90468192","1178.90763903","1","1178.92203999","1181.06824398",""
"sujeto_39b35dcb","1","2","8","40","1181.20704007","inverse","2","1","4","¿En qué país sudamericano 
no hay McDonalds?","Bolivia","Venezuela","","0","0","1","competitive","right","1.02370500565","1182.23082709","3.97629499435","1186.35719705","3.43654799461","1189.79380798","2.56345200539","1192.40861416","1193.71798396","1193.79352808","1196.79651403","0","1196.8108151","1203.17054296",""
"sujeto_39b35dcb","1","2","9","41","1203.29524803","direct","3","1","1","¿En qué año empieza
 la Edad Media?","476","512","","1","1","1","competitive","left","1.51263594627","1204.80792809","3.48736405373","1208.4569881","3.49993610382","1211.95698214","2.50006389618","1214.50715399","1215.91092515","1215.99169707","1218.99467492","1","1219.00897408","1221.99623394",""
"sujeto_39b35dcb","1","2","10","42","1222.12786698","inverse","3","1","4","¿Hace cuántos años surgió
 el ser humano?","200mil","300mil","","0","0","0","competitive","right","1.14117884636","1223.26909208","3.85882115364","1227.29993415","4.34410309792","1231.64407706","1.65589690208","1233.33406806","1235.22013807","1235.30185795","1238.30485797","0","1238.31829596","1241.62824106",""
"sujeto_39b35dcb","1","2","11","43","1241.75231695","direct","3","1","4","¿Cuántas cuadras tiene
 actualmente 18 de julio? ","36","33","","0","0","1","competitive","right","1.13587498665","1242.88823915","3.86412501335","1246.91077614","4.84739613533","1251.75821495","1.15260386467","1252.96114016","1254.66338611","1254.74554896","1257.74851513","0","1257.76262212","1262.48820901",""
"sujeto_39b35dcb","1","2","12","44","1262.61409903","inverse","1","1","4","¿Qué juego de equipo se 
considera mas rápido?","Lacrosse","Badminton","","0","0","0","competitive","left","1.02923607826","1263.64337707","3.97076392174","1267.76897311","3.02038908005","1270.78940415","2.97961091995","1273.81948614","1275.06259203","1275.13786912","1278.14084506","0","1278.15507507","1286.15023494",""
"sujeto_39b35dcb","1","2","13","45","1286.29040003","direct","1","1","3","¿Qué promedio de edad 
vive una jirafa? ","25","20","","0","0","1","competitive","right","0.861116886139","1287.15158415","4.13888311386","1291.44977212","4.33079099655","1295.78060699","1.66920900345","1297.48302007","1299.24453402","1299.31707811","1302.32005501","0","1302.33383512","1308.28952193",""
"sujeto_39b35dcb","1","2","14","46","1308.46950793","inverse","1","1","2","¿Cuántos grandes lagos hay?","7","5","","0","0","1","competitive","right","1.68016409874","1310.14973402","3.31983590126","1313.62846708","4.60925102234","1318.23775911","1.39074897766","1319.66280007","1320.95492315","1321.02960396","1324.03223801","0","1324.04750609","1331.86884403",""
"sujeto_39b35dcb","1","2","15","47","1332.01560903","direct","3","1","2","¿Cuántos discos de estudio
 grabó Johhny Cash? ","54","43","","1","1","0","competitive","left","1.00527882576","1333.02096295","3.99472117424","1337.173599","4.31126689911","1341.48490596","1.68873310089","1343.20808792","1344.48675203","1344.55909801","1347.56207514","1","1347.576262","1354.2271781",""
"sujeto_39b35dcb","1","2","16","48","1354.36052799","inverse","4","1","1","¿Cuántos barrios tiene
 Montevideo? ","71","62","","0","0","1","competitive","right","0.903506994247","1355.26412892","4.09649300575","1359.53380609","3.23632621765","1362.77019215","2.76367378235","1365.58538604","1366.59217715","1366.67086697","1369.67387605","0","1369.68779016","1375.14981699",""
"sujeto_39b35dcb","1","2","17","49","1375.28938103","direct","3","1","3","¿Qué edad tiene Homero Simpson?","36","42","","0","0","1","competitive","right","1.4238409996","1376.71328712","3.5761590004","1380.42807794","4.98026299477","1385.40841198","1.01973700523","1386.46300507","1387.83905005","1387.91303992","1390.91603804","0","1390.93126106","1395.31624198",""
"sujeto_39b35dcb","1","2","18","50","1395.44994307","inverse","4","1","2","¿Cuántos países con monarquía 
hay en europa actualmente? ","6","10","","1","1","1","competitive","left","0.891426801682","1396.34143496","4.10857319832","1400.60697007","3.7434220314","1404.35045004","2.2565779686","1406.64138007","1408.07966208","1408.15903211","1411.16202593","1","1411.17632294","1417.33227801",""
"sujeto_39b35dcb","1","2","19","51","1417.46105814","direct","2","1","3","¿Cuántos capítulos de
 Friends existen? ","236","228","","1","1","1","competitive","right","1.60848903656","1419.06961107","3.39151096344","1422.60205698","4.11349987984","1426.71562004","1.88650012016","1428.636724","1429.94229293","1430.02098393","1433.02396703","1","1433.03785396","1435.413486",""
"sujeto_39b35dcb","1","2","20","52","1435.53992796","inverse","1","1","3","¿Cuántas óperas compuso Mozart? ","27","22","","1","1","1","competitive","left","2.40873503685","1437.94872594","2.59126496315","1440.6941011","3.03856611252","1443.73272514","2.96143388748","1446.74502897","1448.037184","1448.11315393","1451.11613607","1","1451.13116407","1458.44264603",""
"sujeto_39b35dcb","1","2","21","53","1458.58258605","direct","4","1","3","¿Cuántos mundiales de fútbol 
femenino ha realizado FIFA? ","9","7","","1","1","1","competitive","right","0.943266868591","1459.52592206","4.05673313141","1463.73950815","3.71844506264","1467.45799303","2.28155493736","1469.79052114","1471.03422809","1471.10859895","1474.11157799","1","1474.12589192","1480.22835398",""
"sujeto_39b35dcb","1","2","22","54","1480.36049104","inverse","3","1","2","¿Cuál es la temperatura 
media anual en Montevideo? ","17.5","16.3","","0","0","1","competitive","left","0.816562891006","1481.17712593","4.18343710899","1485.51750493","4.66264891624","1490.18021894","1.33735108376","1491.55282402","1493.49140906","1493.56989408","1496.57286596","0","1496.58699703","1503.156528",""
"sujeto_39b35dcb","1","2","23","55","1503.28868294","direct","2","1","2","¿En qué año se estrenó el
 videojuego The Sims? ","2000","2002","","0","0","0","competitive","left","1.02754306793","1504.31627011","3.97245693207","1508.46349406","0.818750858307","1509.28228307","5.18124914169","1514.51217699","1516.37419415","1516.44886708","1519.45185995","0","1519.46607804","1526.85973096",""
"sujeto_39b35dcb","1","2","24","56","1527.01803613","inverse","2","1","1","¿Cuál es la canción con 
mas covers? ","Yesterday","Stand by me","","0","0","0","competitive","left","0.863419055939","1527.88149905","4.13658094406","1532.17570996","3.8038008213","1535.97957611","2.1961991787","1538.22654009","1539.62422013","1539.69400597","1542.69699097","0","1542.71201801","1546.88285303",""
"sujeto_39b35dcb","1","2","25","57","1547.02951813","direct","1","1","4","¿Cuánto duró la guerra
 de los 100 años?","116","123","","0","0","0","competitive","left","1.02814507484","1548.05770898","3.97185492516","1552.18411303","3.91950392723","1556.103652","2.08049607277","1558.23540497","1559.71623492","1559.78678513","1562.78976297","0","1562.80399799","1565.12378907",""
"sujeto_39b35dcb","1","2","26","58","1565.25518703","inverse","4","1","4","¿Qué color tiene la  bandera de Brasil?","Amarillo","Naranja","left","0","0","1","competitive","left","1.03056788445","1566.28582597","3.96943211555","1570.42868614","3.01611995697","1573.44487214","2.98388004303","1576.47931194","1578.04583406","1578.1315341","1581.134516","1","1581.14791799","1584.18072009",""
"sujeto_39b35dcb","1","2","27","59","1584.31722498","direct","4","1","3","¿Qué carabela de 
Colon no volvió del viaje?","Santa María","La pinta","","0","0","1","competitive","right","1.8977599144","1586.21505594","3.1022400856","1589.48605204","5.9199359417","1595.40603113","0.0800640583038","1595.54009008","1597.03116798","1597.10564208","1600.10862899","0","1600.1227181","1602.222188",""
"sujeto_39b35dcb","1","2","28","60","1602.35827708","inverse","4","1","4","¿Cuántos huesos tiene
 un adulto humano?","217","206","","0","0","1","competitive","left","1.1657781601","1603.52416396","3.8342218399","1607.53002","0.0671029090881","1607.59716415","5.93289709091","1613.57860994","1614.84964514","1614.93203712","1617.93502212","0","1617.94935513","1625.78422809",""
"sujeto_39b35dcb","1","2","29","61","1625.91741204","direct","1","1","1","¿Qué país africano fue 
fundado por esclavos?","Liberia","Chad","","0","0","0","competitive","left","0.806850910187","1626.72432899","4.19314908981","1631.09397292","3.39836406708","1634.49239707","2.60163593292","1637.14476204","1639.13641405","1639.21232605","1642.21526814","0","1642.23054099","1650.22136903",""
"sujeto_39b35dcb","1","2","30","62","1650.36490512","inverse","4","1","2","¿A cuánto asciende la cima
 del monte Everest?","7.990 mts","8.848 mts","","0","0","1","competitive","right","0.910607099533","1651.27555704","4.08939290047","1655.52339697","3.37213897705","1658.89560294","2.62786102295","1661.57422209","1662.75905204","1662.84283805","1665.84582996","0","1665.8591001","1673.04313898",""
"sujeto_39b35dcb","1","2","31","63","1673.17791796","direct","4","1","1","¿Cuál es el país mas chico?","Sealand","Luxemburgo","","1","1","1","competitive","right","1.25078105927","1674.42876315","3.74921894073","1678.31842208","2.83025097847","1681.14871216","3.16974902153","1684.35225606","1686.21575904","1686.28801107","1689.29100013","1","1689.30524707","1692.42753315",""
"sujeto_39b35dcb","1","2","32","64","1692.55737495","inverse","2","1","4","¿Cuántas pirámides hay en Egipto?","10000","11000","","1","1","1","competitive","left","1.67650294304","1694.23392296","3.32349705696","1697.71249104","3.08845090866","1700.80098605","2.91154909134","1703.76333404","1704.79691696","1704.88110495","1707.88408613","1","1707.89813304","1713.00720406",""
"sujeto_39b35dcb","1","3","1","65","1825.276721","direct","2","1","2","¿Cuál es el quinto país con 
mas extensión?","Canadá","Brasil","","1","1","0","competitive","left","1.7903380394","1827.06712103","3.2096619606","1830.41533899","3.81576800346","1834.2311461","2.18423199654","1836.46489096","1837.79814601","1837.88145208","1840.88439512","1","1840.8994","1848.62418699","1713.01826811"
"sujeto_39b35dcb","1","3","2","66","1848.76777697","inverse","1","1","2","¿Qué rasgo facial no tiene
 la Mona Lisa?","Cejas","Pómulos","","0","0","1","competitive","left","1.37941288948","1850.14724612","3.62058711052","1853.92740393","3.43890690804","1857.36635113","2.56109309196","1859.97786403","1861.72823215","1861.8130331","1864.8160181","0","1864.8302691","1871.10160208",""
"sujeto_39b35dcb","1","3","3","67","1871.24834895","direct","4","1","3","¿Cuál es el país con 
mayor población?","Esados Unidos","China","right","0","0","1","competitive","right","1.18915605545","1872.43758011","3.81084394455","1876.4221561","2.76440405846","1879.18660402","3.23559594154","1882.47246814","1884.11844516","1884.20817709","1887.21115708","1","1887.22541404","1890.59275103",""
"sujeto_39b35dcb","1","3","4","68","1890.72724104","inverse","1","1","1","La palabra dinosaurio significa","Lagarto Terrible","Lagarto Dragón","","1","1","0","competitive","","1.17145800591","1891.89877796","3.82854199409","1895.897228","6","1901.89737105","0","1901.91423297","1903.08423996","1903.16743302","1906.17043304","0","1906.18440413","1909.04622912",""
"sujeto_39b35dcb","1","3","5","69","1909.18634009","direct","2","1","3","¿Qué es el membrillero?","Arbol","Arbusto","","0","0","0","competitive","right","0.949465990067","1910.13587093","4.05053400993","1914.34322214","4.27564907074","1918.61893702","1.72435092926","1920.37604094","1922.33016205","1922.40987611","1925.41284204","0","1925.42808914","1931.8921361",""
"sujeto_39b35dcb","1","3","6","70","1932.02992296","inverse","3","1","3","¿Alrededor de qué planeta orbita 
el satélite Europa?","Jupiter","Saturno","","1","1","1","competitive","left","1.99412107468","1934.02413893","3.00587892532","1937.18778205","4.29226899147","1941.48009205","1.70773100853","1943.22264314","1944.76742792","1944.83978701","1947.84276414","1","1947.85706496","1950.06223702",""
"sujeto_39b35dcb","1","3","7","71","1950.20946097","direct","3","1","1","¿Donde fue el mundial de 
fútbol de 1954?","Suiza","Suecia","","1","1","1","competitive","right","1.00110602379","1951.21061516","3.99889397621","1955.37722802","5.05697989464","1960.43426895","0.943020105362","1961.41400814","1962.66659808","1962.74686813","1965.74985099","1","1965.76490712","1969.67617512",""
"sujeto_39b35dcb","1","3","8","72","1969.81642795","inverse","1","1","4","¿Cuál de los 7 enanitos
no tenía barba?","Bashful","Mudito","","1","1","0","competitive","right","1.68392705917","1971.50039601","3.31607294083","1974.9763751","4.66509604454","1979.64151216","1.33490395546","1981.02288198","1982.60300398","1982.67345405","1985.67641807","1","1985.69071412","1990.61981797",""
"sujeto_39b35dcb","1","3","9","73","1990.75886011","direct","3","1","2","¿Cual red social es
mas utilizada mundialmente?","Instagram","Facebook","","1","1","0","competitive","right","1.48973298073","1992.24866009","3.51026701927","1995.90114212","4.71045613289","2000.61165595","1.28954386711","2001.93591499","2003.85327411","2003.937325","2006.94027901","1","2006.95457506","2009.88908315",""
"sujeto_39b35dcb","1","3","10","74","2010.03984404","inverse","4","1","1","¿Cuándo se inició la copa
 América de fútbol?","1916","1923","","1","1","1","competitive","right","1.12286996841","2011.16277599","3.87713003159","2015.19510293","3.63668203354","2018.83182311","2.36331796646","2021.24553514","2023.14297605","2023.23061109","2026.23361111","1","2026.24872398","2028.90483308",""
"sujeto_39b35dcb","1","3","11","75","2029.03381705","direct","3","1","4","¿Cuántos presidentes de EEUU
han muerto asesinados?","3","4","","0","0","1","competitive","left","1.10205197334","2030.13591194","3.89794802666","2034.22076011","4.78723812103","2039.00805807","1.21276187897","2040.27114797","2041.75508714","2041.83871508","2044.84170008","0","2044.85595393","2048.50004697",""
"sujeto_39b35dcb","1","3","12","76","2048.64156914","inverse","2","1","4","¿Cuántas veces participó EEUU
 en la copa América?","4","5","","0","0","1","competitive","left","0.955564022064","2049.59717703","4.04443597794","2053.81471705","2.7284321785","2056.54320598","3.2715678215","2059.84847808","2061.29223514","2061.367769","2064.370754","0","2064.38512993","2070.50023794",""
"sujeto_39b35dcb","1","3","13","77","2070.65331507","direct","4","1","1","¿Cuál de estos países 
no formaba la URSS?","Azeribayán","Afganistán","","0","0","1","competitive","right","1.23799109459","2071.89135098","3.76200890541","2075.82669497","4.83363199234","2080.66037011","1.16636800766","2081.87846804","2083.19155097","2083.26201916","2086.26500106","0","2086.27903509","2094.26119995",""
"sujeto_39b35dcb","1","3","14","78","2094.39760709","inverse","1","1","1","¿En qué año se inauguró
 el teatro Solís?","1867","1856","","0","0","0","competitive","left","0.997897148132","2095.39557314","4.00210285187","2099.55580902","3.4746928215","2103.03056002","2.5253071785","2105.60641003","2106.66269302","2106.74156308","2109.74453211","0","2109.75854206","2116.40423393",""
"sujeto_39b35dcb","1","3","15","79","2116.52715993","direct","1","1","4","¿A qué velocidad vuela 
el avión más rápido?","3529","3874","","0","0","0","competitive","right","2.06760406494","2118.59482813","2.93239593506","2121.70117712","4.00354409218","2125.70476007","1.99645590782","2127.75183892","2129.50735903","2129.5864501","2132.58943105","0","2132.60381413","2134.71410203",""
"sujeto_39b35dcb","1","3","16","80","2134.87299013","inverse","3","1","4","¿De qué año es la primer 
película cinematográfica?","1897","1888","","0","0","0","competitive","left","0.97490811348","2135.84799504","4.02509188652","2140.02710104","4.37984681129","2144.40701008","1.62015318871","2146.07833099","2147.21131301","2147.29549909","2150.29619408","0","2150.31254506","2155.72227407",""
"sujeto_39b35dcb","1","3","17","81","2155.84784603","direct","2","1","3","¿Cuántos países 
tiene nuestro planeta?","191","194","","1","1","1","competitive","right","1.16125488281","2157.00916696","3.83874511719","2161.00539112","2.92972898483","2163.93517709","3.07027101517","2167.03771996","2168.39492893","2168.47269201","2171.47404099","1","2171.49009109","2174.72839904",""
"sujeto_39b35dcb","1","3","18","82","2174.85874915","inverse","2","1","2","¿Cuántos habitantes
 tiene Buenos Aires?","2.9000.000","3650000","","0","0","0","competitive","left","0.932448148727","2175.79126406","4.06755185127","2180.02832603","3.19496488571","2183.22333503","2.80503511429","2186.06404996","2187.46020603","2187.53165197","2190.53463006","0","2190.549716","2196.37902808",""
"sujeto_39b35dcb","1","3","19","83","2196.52006507","direct","2","1","1","¿Cuántos kilos forman una tonelada?","1000","1500","left","1","1","1","competitive","right","1.63538503647","2198.15552115","3.36461496353","2201.6917851","5.26275205612","2206.9546051","0.737247943878","2207.72723603","2209.61458206","2209.69455814","2212.69752502","0","2212.71161103","2218.66903305",""
"sujeto_39b35dcb","1","3","20","84","2218.79703712","inverse","4","1","4","¿Cuántos estados tiene la 
República del Perú? ","24","23","","0","0","1","competitive","right","0.730740070343","2219.52787399","4.26925992966","2223.98782206","4.58383083344","2228.57171392","1.41616916656","2230.03868198","2231.06019711","2231.13942599","2234.14241099","0","2234.15665293","2239.10197401",""
"sujeto_39b35dcb","1","3","21","85","2239.24212503","direct","3","1","3","¿En qué año nació Cristóbal Colón? ","1451","1447","","0","0","1","competitive","right","0.907711029053","2240.14989901","4.09228897095","2244.39862609","3.9912340641","2248.38989997","2.0087659359","2250.43256903","2252.27851295","2252.35088515","2255.35381007","0","2255.36785197","2259.59224105",""
"sujeto_39b35dcb","1","3","22","86","2259.71852398","inverse","4","1","4","¿Cuánto mide la 
Montaña Aconcagua? ","6234","6962","","0","0","1","competitive","left","0.874484062195","2260.59305906","4.12551593781","2264.87376595","3.79230093956","2268.66611099","2.20769906044","2270.90931106","2272.19866514","2272.27752495","2275.28050613","0","2275.29466414","2282.47622204",""
"sujeto_39b35dcb","1","3","23","87","2282.6135571","direct","2","1","4","¿Cuánto mide el punto
 más profundo del océano? ","12508","11003","","0","0","1","competitive","left","0.967638969421","2283.58123994","4.03236103058","2287.76903701","2.6742348671","2290.44332695","3.3257651329","2293.81979704","2295.07129598","2295.155164","2298.15815997","0","2298.17240906","2302.37868214",""
"sujeto_39b35dcb","1","3","24","88","2302.50783515","inverse","1","1","3","¿Cuántos álbumes ha publicado 
el cantante Jaime Roos? ","41","34","","0","0","1","competitive","right","1.71959495544","2304.22750211","3.28040504456","2307.66420698","4.03931307793","2311.70358515","1.96068692207","2313.71647906","2315.20633507","2315.28421903","2318.28720593","0","2318.30134296","2324.49749398",""
"sujeto_39b35dcb","1","3","25","89","2324.63635802","direct","4","1","3","¿En qué año nació el 
ex-presidente Jorge Battle? ","1921","1927","","1","1","1","competitive","left","1.09030985832","2325.72674799","3.90969014168","2329.81011009","4.29259300232","2334.10274196","1.70740699768","2335.84469295","2337.57534814","2337.66164303","2340.66423893","1","2340.67927909","2344.16533804",""
"sujeto_39b35dcb","1","3","26","90","2344.31467795","inverse","1","1","3","¿Cuántas presidencias 
constitucionales  hubo en Uruguay? ","41","42","","0","0","1","competitive","left","1.37613296509","2345.69087315","3.62386703491","2349.45253396","4.20134401321","2353.65393901","1.79865598679","2355.50160003","2356.705338","2356.78635907","2359.78935003","0","2359.80354095","2365.58718514",""
"sujeto_39b35dcb","1","3","27","91","2365.72123003","direct","1","1","2","¿Quién escribió mas sinfonías?","Mozart","Haydn","","1","1","0","competitive","right","1.72084403038","2367.44211698","3.27915596962","2370.86518407","4.62578821182","2375.49102902","1.37421178818","2376.89911699","2378.11657214","2378.2002821","2381.20326209","1","2381.21637893","2384.96458697",""
"sujeto_39b35dcb","1","3","28","92","2385.13472295","inverse","4","1","2","¿En qué año nació Michael Jackson?","1958","1953","","1","1","1","competitive","left","1.09938192368","2386.23417711","3.90061807632","2390.30754399","3.36453390121","2393.67212701","2.63546609879","2396.34155607","2398.31979704","2398.39316702","2401.39612794","1","2401.41043401","2407.27275896",""
"sujeto_39b35dcb","1","3","29","93","2407.41264105","direct","3","1","2","¿En qué año entró en vigencia 
la ley antitabaco en Uruguay?","2005","2006","","1","1","1","competitive","right","0.908560037613","2408.32126498","4.09143996239","2412.58612514","4.67112803459","2417.25731301","1.32887196541","2418.63769603","2420.23243308","2420.30504394","2423.30801105","1","2423.32206702","2428.65603995",""
"sujeto_39b35dcb","1","3","30","94","2428.79060507","inverse","3","1","1","¿Cuándo se subió el 
primer video a youtube?","2004","2005","","0","0","1","competitive","left","1.22275280952","2430.01340294","3.77724719048","2433.94596696","3.7612850666","2437.70731306","2.2387149334","2439.98113608","2441.28680611","2441.36588693","2444.36886096","0","2444.38285398","2452.136204",""
"sujeto_39b35dcb","1","3","31","95","2452.26791501","direct","2","1","1","¿Cuántos habitantes tiene India?","1200 millones","1300 millones","","0","0","0","competitive","left","1.05246496201","2453.32042193","3.94753503799","2457.42648411","3.09990906715","2460.52645302","2.90009093285","2463.4760561","2465.44569802","2465.52881813","2468.53180194","0","2468.54615092","2474.59366393",""
"sujeto_39b35dcb","1","3","32","96","2474.73071003","inverse","4","1","2","¿A qué edad murió Bob Marley?","36","37","","0","0","1","competitive","right","1.26575994492","2475.99653411","3.73424005508","2479.88690615","3.75560498238","2483.64257002","2.24439501762","2485.93883801","2487.83624411","2487.92347193","2490.92641497","0","2490.94068694","2494.04024506",""
"sujeto_39b35dcb","1","4","1","97","2616.83816409","direct","2","1","1","¿Cuantos años dirigió la selección 
uruguaya Tabarez?","15 años","13 años","","0","0","0","competitive","right","1.16006612778","2617.99827695","3.83993387222","2621.99441409","3.46680212021","2625.46128011","2.53319787979","2628.04621196","2629.23733902","2629.31394696","2632.31620693","0","2632.33047605","2639.40022016","2494.05165815"
"sujeto_39b35dcb","1","4","2","98","2639.55337095","inverse","4","1","1","¿Cuantas teclas tiene un teclado 
de computadora generalmente? ","Entre 99 y 108","Entre 109 y 113","","1","1","1","competitive","right","1.10303401947","2640.65644813","3.89696598053","2644.7064991","5.62687015533","2650.33340907","0.373129844666","2650.758744","2651.76148915","2651.84171915","2654.84470415","1","2654.85946512","2657.23089695",""
"sujeto_39b35dcb","1","4","3","99","2657.39481997","direct","1","1","1","¿Cuál Departamento tiene
 mayor superficie?","Río Negro","Soriano","","0","0","0","competitive","left","0.828677892685","2658.2235651","4.17132210732","2662.547755","3.30876493454","2665.85657811","2.69123506546","2668.59945512","2670.31292701","2670.38392711","2673.386904","0","2673.40190101","2677.72800207",""
"sujeto_39b35dcb","1","4","4","100","2677.87204599","inverse","3","1","2","¿Cuál es el apellido de las 
hermanastras  de  cenicienta?","Tremaine","Truman","","0","0","1","competitive","left","0.945582866669","2678.81769395","4.05441713333","2683.02630615","5.46433210373","2688.49069715","0.535667896271","2689.0787251","2690.94826508","2691.02855897","2694.03151011","0","2694.04575109","2696.74170208",""
"sujeto_39b35dcb","1","4","5","101","2696.88176394","direct","4","1","4","¿Cuál película ganó un
 Oscar a mejor película?","Alto Impacto","Cache","","0","0","1","competitive","left","0.905977964401","2697.78780913","4.0940220356","2702.03670907","5.16998815536","2707.20675397","0.830011844635","2708.08888698","2709.20827293","2709.28836203","2712.29134512","0","2712.30576611","2714.57039404",""
"sujeto_39b35dcb","1","4","6","102","2714.70755911","inverse","1","1","3","¿A cuántos centímetros
equivale la medida pié?","25","30","","0","0","1","competitive","left","2.33525896072","2717.04286194","2.66474103928","2719.87601995","5.24880003929","2725.12486196","0.751199960709","2725.91439509","2726.95440292","2727.03115106","2730.0340941","0","2730.04863095","2735.44962001",""
"sujeto_39b35dcb","1","4","7","103","2735.58314204","direct","2","1","2","¿Qué departamento es mas grande?","Cerro Largo","Paysandú","","0","0","0","competitive","right","1.14477181435","2736.72798514","3.85522818565","2740.73877811","5.29922604561","2746.03804493","0.700773954391","2746.79014993","2748.389853","2748.47375703","2751.47674608","0","2751.491117","2755.60019898",""
"sujeto_39b35dcb","1","4","8","104","2755.74355912","inverse","2","1","3","¿Quién pintó la Mona Lisa?","Picasso","Da Vinci","right","0","0","1","competitive","right","0.852579116821","2756.59622002","4.14742088318","2760.91727114","2.5048289299","2763.42215896","3.4951710701","2766.96747112","2768.57218695","2768.65262198","2771.65560293","1","2771.66985393","2773.83215213",""
"sujeto_39b35dcb","1","4","9","105","2773.97134113","direct","4","1","3","¿Cuántos litros hay en un galon?","3.54","3.78","","1","1","1","competitive","left","0.890815019608","2774.86220002","4.10918498039","2779.12691498","3.7402818203","2782.86726499","2.2597181797","2785.17822003","2786.69603801","2786.77868915","2789.78165507","1","2789.79571295","2795.58806515",""
"sujeto_39b35dcb","1","4","10","106","2795.76395202","inverse","4","1","1","¿Cuántas teclas tiene
 un piano moderno?","80","88","","0","0","1","competitive","left","0.898406982422","2796.66242599","4.10159301758","2800.91833401","3.86807084084","2804.78646493","2.13192915916","2806.97155213","2807.98002815","2808.05605412","2811.05905604","0","2811.07322001","2817.87099004",""
"sujeto_39b35dcb","1","4","11","107","2818.02437997","direct","4","1","3","¿Cuántos países hay en África?","54","62","","0","0","1","competitive","right","0.854127883911","2818.87857509","4.14587211609","2823.18300605","3.95944786072","2827.1424911","2.04055213928","2829.21750307","2830.90802407","2830.98545504","2833.98841906","0","2834.00268006","2841.80423999",""
"sujeto_39b35dcb","1","4","12","108","2841.93768501","inverse","1","1","3","¿En qué siglo se crearon
 las primeras pistolas?","XV","XIII","","1","1","1","competitive","left","1.17694997787","2843.11468101","3.82305002213","2847.11260509","5.24703812599","2852.35970712","0.752961874008","2853.16408014","2855.11201501","2855.19798613","2858.20023704","1","2858.21550298","2861.44823408",""
"sujeto_39b35dcb","1","4","13","109","2861.58312511","direct","3","1","4","¿En qué año se estrenó 
la serie friends?","1994","1995","","0","0","1","competitive","left","2.20967316628","2863.79286194","2.79032683372","2866.739676","3.16108798981","2869.90080595","2.83891201019","2872.77356315","2874.6488421","2874.72448301","2877.72746396","0","2877.74255204","2882.74821401",""
"sujeto_39b35dcb","1","4","14","110","2882.89408302","inverse","3","1","4","¿En qué año nació Hitler?","1889","1887","","0","0","1","competitive","left","1.03884911537","2883.93298197","3.96115088463","2888.04832101","4.02157092094","2892.0699501","1.97842907906","2894.101192","2895.21557403","2895.28486705","2898.28782701","0","2898.30287004","2903.32984996",""
"sujeto_39b35dcb","1","4","15","111","2903.47120094","direct","1","1","4","¿Cuánto pesa un elefante Africano?","6000 kilos","5400 kilos","","0","0","0","competitive","left","0.986834049225","2904.45810199","4.01316595078","2908.64407015","4.86201000214","2913.50612211","1.13798999786","2914.69566298","2916.05157399","2916.12996197","2919.13218307","0","2919.14654899","2925.85219002",""
"sujeto_39b35dcb","1","4","16","112","2925.98173714","inverse","1","1","2","¿Qué porcentaje de 
la población es zurda?","10%","7%","","1","1","0","competitive","left","0.820472002029","2926.80227208","4.17952799797","2931.13965893","4.58662390709","2935.72632408","1.41337609291","2937.19051409","2938.43357611","2938.50822711","2941.51114893","1","2941.52536511","2947.50422096",""
"sujeto_39b35dcb","1","4","17","113","2947.62700915","direct","1","1","2","¿En qué año se estrenó
Volver al futuro?","1984","1985","","0","0","1","competitive","left","1.71334505081","2949.340415","3.28665494919","2952.78458214","3.52486515045","2956.30950594","2.47513484955","2958.83565903","2960.39749193","2960.46995211","2963.47293711","0","2963.48707914","2970.57852912",""
"sujeto_39b35dcb","1","4","18","114","2970.73811603","inverse","3","1","2","¿Cuántos jugadores hay en un 
equipo de baseball?","9","8","","1","1","0","competitive","left","1.82537484169","2972.56356001","3.17462515831","2975.89613414","5.13942599297","2981.03560114","0.860574007034","2981.94734311","2983.56019902","2983.63080692","2986.63374209","1","2986.64881516","2991.6260581",""
"sujeto_39b35dcb","1","4","19","115","2991.76709604","direct","2","1","1","¿Cuántos Oscar ganó
 la película titanic?","13","11","","1","1","1","competitive","left","2.18458485603","2993.95174599","2.81541514397","2996.90733314","4.07438397408","3000.98178101","1.92561602592","3002.95825315","3004.26031613","3004.34248614","3007.34419799","1","3007.35932899","3011.96024394",""
"sujeto_39b35dcb","1","4","20","116","3012.09437799","inverse","4","1","4","¿En qué año comenzó
la segunda guerra mundial?","1939","1976","left","0","0","1","competitive","left","1.54248285294","3013.63690615","3.45751714706","3017.25085402","3.65799999237","3020.90889406","2.34200000763","3023.30132604","3025.10118008","3025.18674707","3028.18974304","1","3028.20404196","3032.19119501",""
"sujeto_39b35dcb","1","4","21","117","3032.32181692","direct","2","1","4","¿Cuántos biomas hay en Uruguay?","5","4","","0","0","1","competitive","right","1.04515695572","3033.36704302","3.95484304428","3037.47564912","4.02337002754","3041.49908614","1.97662997246","3043.52903795","3045.32640314","3045.41347313","3048.41644812","0","3048.43056393","3054.67623806",""
"sujeto_39b35dcb","1","4","22","118","3054.81555009","inverse","2","1","3","¿Cuándo murió Pablo Escobar?","1993","1997","","1","1","1","competitive","right","1.71859908104","3056.53419709","3.28140091896","3059.973423","3.14172387123","3063.11519098","2.85827612877","3066.02370596","3067.80654907","3067.89161801","3070.89459014","1","3070.90883708","3076.61250305",""
"sujeto_39b35dcb","1","4","23","119","3076.74387693","direct","1","1","4","¿Qué serie ha ganado mas premios?","Friends","Murphy Brown","","1","1","0","competitive","left","2.18647193909","3078.93039703","2.81352806091","3081.90234995","3.11398100853","3085.01637316","2.88601899147","3087.950665","3089.30310392","3089.38600612","3092.38628793","1","3092.40348005","3097.9651041",""
"sujeto_39b35dcb","1","4","24","120","3098.12211704","inverse","4","1","2","¿Cuántas fichas tiene el dominó?","26","28","","1","1","1","competitive","right","0.912398815155","3099.03463006","4.08760118484","3103.29556513","4.53292798996","3107.82855201","1.46707201004","3109.34718108","3110.40248013","3110.48125815","3113.48424792","1","3113.4985311","3118.74163294",""
"sujeto_39b35dcb","1","4","25","121","3118.88312411","direct","2","1","4","¿Cuántos son los dientes de leche?","20","25","","0","0","1","competitive","left","0.657454967499","3119.54064393","4.3425450325","3124.05619001","3.80141997337","3127.85767412","2.19858002663","3130.1076901","3131.81804109","3131.8918221","3134.89480495","0","3134.90992999","3137.05561614",""
"sujeto_39b35dcb","1","4","26","122","3137.19455194","inverse","3","1","3","¿Cuántos gramos son una onza?","22","28","","0","0","1","competitive","left","1.24325299263","3138.43787098","3.75674700737","3142.34836102","5.79842090607","3148.14684916","0.201579093933","3148.38515615","3150.38001704","3150.45131397","3153.45427394","0","3153.46937704","3159.75963497",""
"sujeto_39b35dcb","1","4","27","123","3159.88830709","direct","3","1","1","¿Cuándo salió el primer album
 de los Beatles?","1963","1962","","1","1","1","competitive","right","1.05865478516","3160.94704509","3.94134521484","3165.04492998","3.65503001213","3168.70002604","2.34496998787","3171.09491801","3172.25855112","3172.34694099","3175.3499341","1","3175.36429811","3179.136343",""
"sujeto_39b35dcb","1","4","28","124","3179.28265095","inverse","3","1","3","¿Quién fundó la empresa apple?","Carlos Slim","Steve Jobs","","1","1","1","competitive","right","1.86238789558","3181.145082","3.13761210442","3184.47086811","2.90221405029","3187.37314296","3.09778594971","3190.5229671","3191.63761711","3191.70757008","3194.70819807","1","3194.72430205","3201.02214313",""
"sujeto_39b35dcb","1","4","29","125","3201.20992804","direct","4","1","2","¿Cuántos municipios hay
 en Montevideo?","8","7","","1","1","1","competitive","right","0.856299161911","3202.06628609","4.14370083809","3206.36574697","4.23855304718","3210.60436296","1.76144695282","3212.41724014","3214.33202004","3214.41861796","3217.421597","1","3217.43589211","3219.51621914",""
"sujeto_39b35dcb","1","4","30","126","3219.6535821","inverse","1","1","1","¿Cuántos kilómetros hay
 de Montevideo a Artigas?","632","599","","0","0","0","competitive","left","1.38286304474","3221.03651214","3.61713695526","3224.80848408","5.18892621994","3229.99745011","0.81107378006","3230.84306598","3232.32622504","3232.410079","3235.413064","0","3235.42723012","3241.47935605",""
"sujeto_39b35dcb","1","4","31","127","3241.612293","direct","2","1","2","¿En qué año nació 
Leonardo Da Vinci?","1452","1511","","1","1","0","competitive","right","1.07828092575","3242.69066811","3.92171907425","3246.77129102","3.601323843","3250.37265205","2.398676157","3252.82124496","3254.67482996","3254.75575805","3257.75874305","1","3257.77393103","3260.92034507",""
"sujeto_39b35dcb","1","4","32","128","3261.05830193","inverse","3","1","1","¿A qué continente
 pertenece el país Gabón?","Africa","Oceanía","","0","0","1","competitive","right","1.6814289093","3262.73979807","3.3185710907","3266.21161294","3.93914699554","3270.15079999","2.06085300446","3272.26449013","3274.07615805","3274.14909005","3277.15205097","0","3277.16595507","3282.40383005",""
