"code","nro_aplicante","nro_bloque","nro_trial_bloque","nro_trial_global","show_game_type","choice_order","rival","pay_individual","pay_competitive","question","answer_left_text","answer_right_text","correct_answer","outcome_individual","outcome_competitive","outcome_rival","game_type","answer","social_time","rt_game_type","feedback_delay","show_question","answer_time","rt_answer_global","feedback_delay_2","show_jitter","jitter_time","show_outcome","outcome_time","outcome_participant_real","show_final_jitter","second_jitter_time","inicio_descanso"
"sujeto_587bbcbb","1","1","1","1","57.3244018555","direct","3","1","4","¿Cuántos centímetros corresponden
al talle 36 del calzado?","23","24","","0","0","1","competitive","left","2.12443900108","59.4489450455","2.87556099892","62.5123279095","4.47852492332","66.9909000397","1.52147507668","68.5485780239","69.5768170357","69.6478710175","72.6508228779","0","72.6658740044","74.8284139633",""
"sujeto_587bbcbb","1","1","2","2","74.9671859741","inverse","3","1","2","¿Cuántas metros mide la Intendencia
Municipal de Montevideo? ","84","78","","0","0","1","competitive","left","3.94276809692","78.9100179672","1.05723190308","80.1234438419","3.53854012489","83.6620528698","2.46145987511","86.1741878986","88.0522089005","88.1253118515","91.1282958984","0","91.142539978","93.2353110313",""
"sujeto_587bbcbb","1","1","3","3","93.3774869442","direct","1","1","3","¿Cuántas La Pasiva
 hay en uruguay?","15","11","","1","1","1","competitive","right","2.67264294624","96.0501718521","2.32735705376","98.5326490402","3.28650593758","101.819222927","2.71349406242","104.583001852","106.194679976","106.266782045","109.2697649","1","109.285404921","113.563753843",""
"sujeto_587bbcbb","1","1","4","4","113.703083038","inverse","3","1","3","¿De que color es la camiseta de uruguay?","blanca","celeste","right","1","1","1","competitive","right","2.37417507172","116.077311993","2.62582492828","118.876790047","2.70055913925","121.577409029","3.29944086075","124.926878929","126.131645918","126.212383032","129.215342999","1","129.229218006","132.683161974",""
"sujeto_587bbcbb","1","1","5","5","132.830533981","direct","2","1","1","¿Cuánto metros mide
la torre Eiffel?","333","324","","1","1","1","competitive","right","2.04892802238","134.879524946","2.95107197762","138.001637936","3.0248799324","141.026587963","2.9751200676","144.053900957","145.575292826","145.655279875","148.658272028","1","148.672576904","155.709307909",""
"sujeto_587bbcbb","1","1","6","6","155.840205908","inverse","3","1","4","¿Cuantas ciudades existen
 en todo el uruguay?","63","72","","0","0","1","competitive","left","1.77442193031","157.614680052","3.22557806969","161.015374899","3.74221205711","164.757647991","2.25778794289","167.066097975","168.120918989","168.200615883","171.203569889","0","171.218127966","178.844678879",""
"sujeto_587bbcbb","1","1","7","7","178.986379862","direct","1","1","1","¿Cuantos estados tiene África?","52","54","","1","1","0","competitive","right","2.98552203178","181.972022057","2.01447796822","184.139030933","3.54582190514","187.68491888","2.45417809486","190.175636053","192.039676905","192.110312939","195.11329484","1","195.127940893","200.888944864",""
"sujeto_587bbcbb","1","1","8","8","201.029191971","inverse","4","1","4","¿En qué año nació
 Stephen Hawking?","1952","1942","","0","0","1","competitive","right","2.07287621498","203.102109909","2.92712378502","206.188213825","3.01490402222","209.203177929","2.98509597778","212.238692045","213.682976961","213.757206917","216.760143995","0","216.774816036","222.874176979",""
"sujeto_587bbcbb","1","1","9","9","223.009865046","direct","2","1","3","¿Cuánto años tenía Artigas
 cuando se fue a Paraguay?","56","57","","1","1","1","competitive","left","1.80636715889","224.816335917","3.19363284111","228.199542046","4.1617000103","232.361315966","1.8382999897","234.233924866","235.783442974","235.868805885","238.871798992","1","238.886504889","244.933820009",""
"sujeto_587bbcbb","1","1","10","10","245.071013927","inverse","1","1","2","¿Cuantos milímetros 
mide una hoja A2?","420x592","420x594","","0","0","1","competitive","left","2.53340792656","247.604464054","2.46659207344","250.22731185","4.3891479969","254.616519928","1.6108520031","256.280283928","257.848726988","257.930321932","260.933313847","0","260.948513031","268.022150993",""
"sujeto_587bbcbb","1","1","11","11","268.166609049","direct","3","1","3","¿Cuál es la menor temperatura 
registrada en Uruguay?","-5.4","-7.4","","0","0","1","competitive","left","1.8959748745","270.062648058","3.1040251255","273.323770046","3.37491393089","276.698724031","2.62508606911","279.374701023","281.056751966","281.142904997","284.145894051","0","284.160128832","287.893445015",""
"sujeto_587bbcbb","1","1","12","12","288.045660019","inverse","2","1","2","¿Cuantos años hace que 
se fundó facebook?","18","17","","0","0","0","competitive","right","3.04112505913","291.086833","1.95887494087","293.214620829","3.38222813606","296.596890926","2.61777186394","299.251835823","300.624588966","300.703670025","303.704397917","0","303.721163034","306.495777845",""
"sujeto_587bbcbb","1","1","13","13","306.63915205","direct","1","1","4","¿Cuál animal es más
 pesado en promedio?","Rinoceronte","Hipopotamo","","0","0","0","competitive","left","2.08974099159","308.728955984","2.91025900841","311.794311047","4.00969004631","315.804066896","1.99030995369","317.877693892","318.956918955","319.029011965","322.031963825","0","322.046210051","325.887228966",""
"sujeto_587bbcbb","1","1","14","14","326.014550924","inverse","1","1","2","¿Qué personaje de dragon ball 
murió más veces?","Chaoz","Krillin","","1","1","0","competitive","right","1.94589090347","327.960491896","3.05410909653","331.187242985","4.05133318901","335.238647938","1.94866681099","337.236522913","338.694347858","338.771014929","341.77401495","1","341.789240837","349.562165976",""
"sujeto_587bbcbb","1","1","15","15","349.707008839","direct","3","1","2","La universidad de oxford. 
existe desde:","1096","1249","","1","1","0","competitive","left","2.41030693054","352.117365837","2.58969306946","354.86715889","4.38918089867","359.256379843","1.61081910133","360.916795015","361.965569973","362.051333904","365.054280996","1","365.068945885","371.75977397",""
"sujeto_587bbcbb","1","1","16","16","371.886162043","inverse","3","1","1","¿Qué escritor latino ganó antes
 el premio nobel?"," García Marquez","Neruda","","0","0","1","competitive","left","1.9853451252","373.871557951","3.0146548748","377.043973923","3.61557292938","380.659589052","2.38442707062","383.096067905","384.83603406","384.91346097","387.915465832","0","387.931447983","391.391968966",""
"sujeto_587bbcbb","1","1","17","17","391.533162832","direct","4","1","3","¿Cuántos dientes tiene un
 tiburón blanco?","6000","3000","","0","0","1","competitive","right","3.05752396584","394.590731859","1.94247603416","396.704568863","2.97301197052","399.677634954","3.02698802948","402.756135941","403.795151949","403.874248981","406.877249002","0","406.891578913","411.700366974",""
"sujeto_587bbcbb","1","1","18","18","411.842674971","inverse","4","1","1","¿Cuánto mide el paralelo Ecuador?","40.000km","70.000km","","0","0","1","individual","right","1.31612014771","413.158859968","3.68387985229","417.016170979","4.51070308685","421.526933908","1.48929691315","423.049485922","425.005601883","425.049887896","428.052830935","0","428.068091869","431.670400858",""
"sujeto_587bbcbb","1","1","19","19","431.819239855","direct","4","1","2","¿Cuál fue el primer libro 
de Stephen King?","Carrie","The Stand","","1","1","1","individual","right","3.34077692032","435.160061836","1.65922307968","436.992450953","3.67058491707","440.663079977","2.32941508293","443.043107033","444.787221909","444.827790022","447.830780983","1","447.845347881","452.31979394",""
"sujeto_587bbcbb","1","1","20","20","452.463300943","inverse","2","1","3","¿Qué civilización practicaba
 la momificación?","Grecia","Egipto","right","0","0","1","competitive","right","2.65086483955","455.114207029","2.34913516045","457.61976099","3.25142812729","460.871229887","2.74857187271","463.67176795","465.610365868","465.688897848","468.691910982","1","468.706671","472.935420036",""
"sujeto_587bbcbb","1","1","21","21","473.076848984","direct","4","1","4","¿Cuántos millones de visitas
 recibe google por minuto?","3.0","4.5","","0","0","1","competitive","right","1.98849916458","475.065413952","3.01150083542","478.264461994","3.90982317924","482.174351931","2.09017682076","484.316169977","485.831059933","485.916566849","488.919518948","0","488.933950901","496.056593895",""
"sujeto_587bbcbb","1","1","22","22","496.18512392","inverse","1","1","3","La máquina de fax. se inventó en:","1843","1960","","0","0","1","competitive","right","1.73336291313","497.918531895","3.26663708687","501.342871904","4.24867796898","505.591610909","1.75132203102","507.394525051","508.636620998","508.711870909","511.714360952","0","511.728600025","514.964891911",""
"sujeto_587bbcbb","1","1","23","23","515.097445965","direct","2","1","4","En la verdadera historia de los
 300 espartanos. habían:","300 soldados","4300 soldados","","1","1","1","competitive","right","1.89343690872","516.990967035","3.10656309128","520.301375866","5.10239505768","525.403811932","0.897604942322","526.35469389","527.615924835","527.688655853","530.691617012","1","530.706128836","534.5078969",""
"sujeto_587bbcbb","1","1","24","24","534.655748844","inverse","1","1","4","¿Cuántos milímetros crece
 el pelo por día?","0.4","0.04","","0","0","0","competitive","right","1.87234711647","536.528159857","3.12765288353","539.829427004","3.85350990295","543.683001041","2.14649009705","545.881508827","547.642205954","547.715642929","550.71862793","0","550.733098984","557.468186855",""
"sujeto_587bbcbb","1","1","25","25","557.617961884","direct","4","1","1","¿Cuánto mide la baldosa gris 
clásica de Montevideo?","22x22 cm.","20x20 cm.","","1","1","1","individual","left","2.69509506226","560.313127041","2.30490493774","562.790288925","4.10379695892","566.894129038","1.89620304108","568.843432903","570.838698864","570.876999855","573.879992962","1","573.895319939","579.438082933",""
"sujeto_587bbcbb","1","1","26","26","579.580566883","inverse","2","1","2","¿Cuántas películas de rápidos
 y furiosos hay?","10","11","","1","1","0","competitive","left","1.78167200089","581.36230588","3.21832799911","584.753603935","2.8586909771","587.612356901","3.1413090229","590.804002047","592.162047863","592.239127874","595.242142916","1","595.255640984","597.290321827",""
"sujeto_587bbcbb","1","1","27","27","597.439672947","direct","3","1","1","¿Cuántos masters 1000
 ganó Del Potro?","1","2","","1","1","1","individual","right","1.93283605576","599.372562885","3.06716394424","602.61332798","3.1371011734","605.750473976","2.8628988266","608.662822962","610.417426825","610.465191841","613.468127966","1","613.482499838","620.878861904",""
"sujeto_587bbcbb","1","1","28","28","621.016969919","inverse","2","1","4","¿Cuántos meses dura el 
embarazo de una leona?","3 meses","4 meses","","0","0","1","competitive","right","1.7355890274","622.752629995","3.2644109726","626.190603018","3.75598812103","629.946635008","2.24401187897","632.241925955","633.352990866","633.426473856","636.429483891","0","636.443843842","643.16633606",""
"sujeto_587bbcbb","1","1","29","29","643.311228991","direct","1","1","1","¿En qué año fue creado
 el sandwich?","1762","1653","","1","1","0","competitive","right","2.74266219139","646.053935051","2.25733780861","648.468989849","2.98096609116","651.449997902","3.01903390884","654.504472017","656.103003979","656.188727856","659.191730022","1","659.206212044","662.676873922",""
"sujeto_587bbcbb","1","1","30","30","662.824538946","inverse","4","1","2","El nombre de la moneda de Vietnam es:","Dinar","Dong","","0","0","1","individual","right","1.72969603539","664.55430603","3.27030396461","667.994915009","4.23431181908","672.229280949","1.76568818092","674.04597497","675.478050947","675.530298948","678.533258915","0","678.547935009","684.716362",""
"sujeto_587bbcbb","1","1","31","31","684.849338055","direct","2","1","1","¿cuantos aleteos puede dar 
un colibrí por segundo?","120","50","","0","0","0","individual","left","2.65919804573","687.508605957","2.34080195427","690.004242897","4.08242702484","694.086714983","1.91757297516","696.043715954","697.776121855","697.827679873","700.830627918","0","700.845054865","705.0573349",""
"sujeto_587bbcbb","1","1","32","32","705.197088957","inverse","4","1","3","¿Qué altura promedio tienen
 los hombres uruguayos?","1.73 m","1.72 m","","1","1","1","individual","right","1.97601485252","707.173203945","3.02398514748","710.370182991","4.26284003258","714.633090973","1.73715996742","716.420806885","717.683228016","717.722090006","720.725047827","1","720.739161968","725.215091944",""
"sujeto_587bbcbb","1","2","1","33","884.393697977","direct","1","1","1","¿En qué año nació 
el actor Bradd Pitt?","1967","1963","","1","1","1","individual","left","2.08986210823","886.483623981","2.91013789177","889.547718048","3.26384997368","892.811627865","2.73615002632","895.580121994","896.675978899","896.715725899","899.718684912","1","899.732920885","905.660521984","725.230445862"
"sujeto_587bbcbb","1","2","2","34","905.817342997","inverse","2","1","1","¿Cual es el segundo 
monte más alto?","Kanchenjunga","K2","","1","1","1","individual","right","2.08551216125","907.902897835","2.91448783875","910.991310835","3.87362289429","914.864995003","2.12637710571","917.043699026","918.496094942","918.545073032","921.547987938","1","921.561909914","924.991812944",""
"sujeto_587bbcbb","1","2","3","35","925.12965703","direct","3","1","1","¿Cuándo finalizó la construcción
 del Palacio Legislativo?","1925","1917","","0","0","1","individual","right","2.20740008354","927.33710289","2.79259991646","930.301285028","3.78191399574","934.08324194","2.21808600426","936.354104042","937.995791912","938.037926912","941.040359974","0","941.055770874","946.753288984",""
"sujeto_587bbcbb","1","2","4","36","946.890938044","inverse","3","1","3","¿Cuántos integrantes tenía
 en su inicio  el cuarteto de nos?","3","4","","1","1","1","competitive","right","1.86647796631","948.757462978","3.13352203369","952.064714909","3.7188179493","955.783572912","2.2811820507","958.114528894","959.247661829","959.332643032","962.335613966","1","962.349978924","967.99977994",""
"sujeto_587bbcbb","1","2","5","37","968.134760857","direct","2","1","3","¿Qué valor tiene el número pi?","3.14","4.18","left","0","0","1","competitive","left","3.07293796539","971.207777023","1.92706203461","973.29180789","2.87091302872","976.16276288","3.12908697128","979.342638969","980.796361923","980.877436876","983.880405903","1","983.894989967","990.815927982",""
"sujeto_587bbcbb","1","2","6","38","990.963603973","inverse","2","1","2","¿Cuál es la esperanza de vida
 en Uruguay?","75","77","","1","1","0","competitive","right","1.83932805061","992.802978039","3.16067194939","996.170531034","2.97251105309","999.143082857","3.02748894691","1002.22140694","1003.87519193","1003.95582294","1006.9588449","1","1006.97357988","1013.43142796",""
"sujeto_587bbcbb","1","2","7","39","1013.577672","direct","1","1","2","¿Cuantos pisos tiene la torre 
de las comunicaciones?","26","32","","1","1","0","competitive","right","2.43758010864","1016.015342","2.56241989136","1018.73211694","3.23619699478","1021.96837497","2.76380300522","1024.78319097","1026.61199188","1026.68479896","1029.68776393","1","1029.70305896","1031.84834194",""
"sujeto_587bbcbb","1","2","8","40","1031.98718786","inverse","2","1","4","¿En qué país sudamericano 
no hay McDonalds?","Bolivia","Venezuela","","0","0","1","individual","right","1.94144392014","1033.92870092","3.05855607986","1037.17412496","4.68943405151","1041.86360097","1.31056594849","1043.22717595","1044.53647494","1044.57740283","1047.58039284","0","1047.5949409","1053.95461392",""
"sujeto_587bbcbb","1","2","9","41","1054.09782696","direct","3","1","1","¿En qué año empieza
 la Edad Media?","476","512","","1","1","1","individual","left","2.28896999359","1056.38686085","2.71103000641","1059.27035189","3.82650184631","1063.09689593","2.17349815369","1065.32151604","1066.72529888","1066.77298689","1069.77536988","1","1069.79014683","1072.77871394",""
"sujeto_587bbcbb","1","2","10","42","1072.92604995","inverse","3","1","4","¿Hace cuántos años surgió
 el ser humano?","200mil","300mil","","0","0","0","competitive","right","2.33899593353","1075.26508999","2.66100406647","1078.09565783","4.79645991325","1082.89215899","1.20354008675","1084.13294888","1086.018996","1086.09979796","1089.10280585","0","1089.11735702","1092.42781305",""
"sujeto_587bbcbb","1","2","11","43","1092.56844783","direct","3","1","4","¿Cuántas cuadras tiene
 actualmente 18 de julio? ","36","33","","0","0","1","competitive","right","1.92194509506","1094.49046803","3.07805490494","1097.74020195","3.72719478607","1101.46743798","2.27280521393","1103.77460098","1105.47639704","1105.56028795","1108.56239104","0","1108.57707286","1113.30333805",""
"sujeto_587bbcbb","1","2","12","44","1113.445683","inverse","1","1","4","¿Qué juego de equipo se 
considera mas rápido?","Lacrosse","Badminton","","0","0","0","competitive","left","2.00987005234","1115.45561886","2.99012994766","1118.60103488","4.37558603287","1122.97666788","1.62441396713","1124.63584495","1125.87894583","1125.95352888","1128.95541787","0","1128.97035193","1136.96551204",""
"sujeto_587bbcbb","1","2","13","45","1137.10812902","direct","1","1","3","¿Qué promedio de edad 
vive una jirafa? ","25","20","","0","0","1","competitive","right","1.80377721786","1138.91195488","3.19622278214","1142.29711199","3.54084300995","1145.83800006","2.45915699005","1148.34929395","1150.11080599","1150.19965982","1153.20266199","0","1153.21723604","1159.17294097",""
"sujeto_587bbcbb","1","2","14","46","1159.31944084","inverse","1","1","2","¿Cuántos grandes lagos hay?","7","5","","0","0","1","competitive","left","2.8726940155","1162.19219899","2.1273059845","1164.49116492","3.31399393082","1167.80519986","2.68600606918","1170.52693701","1171.81906605","1171.89541197","1174.89839697","0","1174.91185188","1182.73232484",""
"sujeto_587bbcbb","1","2","15","47","1182.8807559","direct","3","1","2","¿Cuántos discos de estudio
 grabó Johhny Cash? ","54","43","","1","1","0","individual","right","3.23363304138","1186.11444092","1.76636695862","1188.05465484","4.89884996414","1192.95356894","1.10115003586","1194.09037185","1195.36901999","1195.40714097","1198.41011286","1","1198.42449999","1205.07543683",""
"sujeto_587bbcbb","1","2","16","48","1205.22601199","inverse","4","1","1","¿Cuántos barrios tiene
 Montevideo? ","71","62","","0","0","1","individual","right","1.81067204475","1207.03674793","3.18932795525","1210.40160203","3.63917398453","1214.040838","2.36082601547","1216.449821","1217.4568429","1217.50101686","1220.50393796","0","1220.51855493","1225.98060894",""
"sujeto_587bbcbb","1","2","17","49","1226.11932993","direct","3","1","3","¿Qué edad tiene Homero Simpson?","36","42","","0","0","1","competitive","left","2.58160305023","1228.70099902","2.41839694977","1231.28965592","2.59432196617","1233.88402104","3.40567803383","1237.34385586","1238.71987104","1238.79547906","1241.79844785","0","1241.813025","1246.20176888",""
"sujeto_587bbcbb","1","2","18","50","1246.34921598","inverse","4","1","2","¿Cuántos países con monarquía 
hay en europa actualmente? ","6","10","","1","1","1","individual","left","2.08201599121","1248.43133187","2.91798400879","1251.50352597","4.10274410248","1255.60631299","1.89725589752","1257.55729604","1258.99534988","1259.04075503","1262.04373693","1","1262.05840087","1268.21436191",""
"sujeto_587bbcbb","1","2","19","51","1268.35989404","direct","2","1","3","¿Cuántos capítulos de
 Friends existen? ","236","228","","1","1","1","competitive","left","2.29750800133","1270.65746403","2.70249199867","1273.53349805","3.1749689579","1276.70850682","2.8250310421","1279.58465791","1280.89026499","1280.96933198","1283.97235298","1","1283.98670697","1286.36237884",""
"sujeto_587bbcbb","1","2","20","52","1286.50542188","inverse","1","1","3","¿Cuántas óperas compuso Mozart? ","27","22","","1","1","1","competitive","right","3.05725097656","1289.56271696","1.94274902344","1291.65417886","3.26749491692","1294.92172194","2.73250508308","1297.69349003","1298.98560286","1299.06132603","1302.06431603","1","1302.07902694","1309.39050293",""
"sujeto_587bbcbb","1","2","21","53","1309.53056288","direct","4","1","3","¿Cuántos mundiales de fútbol 
femenino ha realizado FIFA? ","9","7","","1","1","1","individual","right","1.83043503761","1311.36106706","3.16956496239","1314.72186685","4.00411200523","1318.72602105","1.99588799477","1320.77343702","1322.01715684","1322.0578239","1325.06079793","1","1325.0744729","1331.17692089",""
"sujeto_587bbcbb","1","2","22","54","1331.30964184","inverse","3","1","2","¿Cuál es la temperatura 
media anual en Montevideo? ","17.5","16.3","","0","0","1","individual","left","2.74652290344","1334.05623603","2.25347709656","1336.46559095","4.77264404297","1341.23830795","1.22735595703","1342.51861","1344.456352","1344.50180483","1347.50478482","0","1347.51945186","1354.08898497",""
"sujeto_587bbcbb","1","2","23","55","1354.22136998","direct","2","1","2","¿En qué año se estrenó el
 videojuego The Sims? ","2000","2002","","0","0","0","competitive","right","1.8130800724","1356.0345149","3.1869199276","1359.39492488","3.36161088943","1362.75657797","2.63838911057","1365.44559503","1367.30759096","1367.38046288","1370.38337183","0","1370.39873004","1377.79214787",""
"sujeto_587bbcbb","1","2","24","56","1377.9274199","inverse","2","1","1","¿Cuál es la canción con 
mas covers? ","Yesterday","Stand by me","","0","0","0","individual","left","2.44628405571","1380.37376785","2.55371594429","1383.08915186","3.47462201118","1386.56381297","2.52537798882","1389.14259195","1390.54039598","1390.57679796","1393.57974505","0","1393.59392595","1397.76472282",""
"sujeto_587bbcbb","1","2","25","57","1397.895679","direct","1","1","4","¿Cuánto duró la guerra
 de los 100 años?","116","123","","0","0","0","competitive","right","3.30221199989","1401.1979599","1.69778800011","1403.06300497","3.50395298004","1406.56701899","2.49604701996","1409.11695194","1410.59738183","1410.66718292","1413.67016888","0","1413.68577385","1416.00556302",""
"sujeto_587bbcbb","1","2","26","58","1416.15385604","inverse","4","1","4","¿Qué color tiene la  bandera de Brasil?","Amarillo","Naranja","left","0","0","1","competitive","left","1.66725111008","1417.82115698","3.33274888992","1421.31107497","3.34911704063","1424.66023684","2.65088295937","1427.36164188","1428.92814088","1429.01259398","1432.01558495","1","1432.03037095","1435.06316185",""
"sujeto_587bbcbb","1","2","27","59","1435.21466589","direct","4","1","3","¿Qué carabela de 
Colon no volvió del viaje?","Santa María","La pinta","","0","0","1","individual","left","2.34670186043","1437.56143594","2.65329813957","1440.37094998","5.21448421478","1445.58549786","0.785515785217","1446.42331696","1447.91334605","1447.95705104","1450.96003294","0","1450.97438502","1453.07382894",""
"sujeto_587bbcbb","1","2","28","60","1453.2255969","inverse","4","1","4","¿Cuántos huesos tiene
 un adulto humano?","217","206","","0","0","1","competitive","right","1.67024087906","1454.89590096","3.32975912094","1458.3972199","2.86735606194","1461.26461697","3.13264393806","1464.44746685","1465.71849704","1465.7987709","1468.801759","0","1468.81628299","1476.64718294",""
"sujeto_587bbcbb","1","2","29","61","1476.7840209","direct","1","1","1","¿Qué país africano fue 
fundado por esclavos?","Liberia","Chad","","0","0","0","competitive","left","2.21878790855","1479.00285387","2.78121209145","1481.94216704","3.79366493225","1485.73588991","2.20633506775","1487.97770786","1489.96933985","1490.04542589","1493.04841495","0","1493.06497693","1501.05586195",""
"sujeto_587bbcbb","1","2","30","62","1501.19825697","inverse","4","1","2","¿A cuánto asciende la cima
 del monte Everest?","7.990 mts","8.848 mts","","0","0","1","individual","right","1.47683882713","1502.67516398","3.52316117287","1506.35567999","4.09644913673","1510.45218897","1.90355086327","1512.40630603","1513.59114695","1513.64106584","1516.643399","0","1516.65791202","1523.84196687",""
"sujeto_587bbcbb","1","2","31","63","1523.99328303","direct","4","1","1","¿Cuál es el país mas chico?","Sealand","Luxemburgo","","1","1","1","individual","right","1.31408596039","1525.3074379","3.68591403961","1529.16776586","3.90263795853","1533.07044697","2.09736204147","1535.218606","1537.08215404","1537.12003994","1540.12302899","1","1540.13763189","1543.25991702",""
"sujeto_587bbcbb","1","2","32","64","1543.40572906","inverse","2","1","4","¿Cuántas pirámides hay en Egipto?","10000","11000","","1","1","1","competitive","left","1.77284598351","1545.17863202","3.22715401649","1548.56102586","2.93958592415","1551.50065398","3.06041407585","1554.61071491","1555.64431787","1555.72738194","1558.73039603","1","1558.74490905","1563.85398388",""
"sujeto_587bbcbb","1","3","1","65","1691.20810795","direct","2","1","2","¿Cuál es el quinto país con 
mas extensión?","Canadá","Brasil","","1","1","0","competitive","right","2.26003193855","1693.46820498","2.73996806145","1696.37160587","4.2606010437","1700.63224792","1.7393989563","1702.40678787","1703.74004602","1703.82402086","1706.82701588","1","1706.8415699","1714.5679729","1563.86986303"
"sujeto_587bbcbb","1","3","2","66","1714.72605586","inverse","1","1","2","¿Qué rasgo facial no tiene
 la Mona Lisa?","Cejas","Pómulos","","0","0","1","competitive","right","1.78133797646","1716.50743699","3.21866202354","1719.91724706","4.34923386574","1724.26652384","1.65076613426","1725.96810985","1727.71854091","1727.80244899","1730.80534887","0","1730.819664","1737.09100103",""
"sujeto_587bbcbb","1","3","3","67","1737.23711991","direct","4","1","3","¿Cuál es el país con 
mayor población?","Esados Unidos","China","right","0","0","1","individual","right","2.06449890137","1739.30166292","2.93550109863","1742.40946388","2.9972140789","1745.406739","3.0027859211","1748.44763184","1750.09363103","1750.13196993","1753.13494205","1","1753.14956188","1756.51690102",""
"sujeto_587bbcbb","1","3","4","68","1756.66816998","inverse","1","1","1","La palabra dinosaurio significa","Lagarto Terrible","Lagarto Dragón","","1","1","0","competitive","","1.3826751709","1758.05092192","3.6173248291","1761.83936787","6","1767.83951187","0","1767.85485291","1769.02520204","1769.108289","1772.11131883","0","1772.12613893","1774.98791885",""
"sujeto_587bbcbb","1","3","5","69","1775.12860394","direct","2","1","3","¿Qué es el membrillero?","Arbol","Arbusto","","0","0","0","competitive","left","2.67742800713","1777.80610299","2.32257199287","1780.29621387","3.56986689568","1783.86612582","2.43013310432","1786.35044384","1788.30456686","1788.385813","1791.38873887","0","1791.40265393","1797.86668086",""
"sujeto_587bbcbb","1","3","6","70","1798.00520492","inverse","3","1","3","¿Alrededor de qué planeta orbita 
el satélite Europa?","Jupiter","Saturno","","1","1","1","competitive","","1.57305002213","1799.57834387","3.42694997787","1803.16232896","6","1809.16247988","0","1809.17687082","1810.72163892","1810.79665089","1813.79936385","0","1813.81368899","1816.01886702",""
"sujeto_587bbcbb","1","3","7","71","1816.16500902","direct","3","1","1","¿Donde fue el mundial de 
fútbol de 1954?","Suiza","Suecia","","1","1","1","individual","left","2.36531496048","1818.53038192","2.63468503952","1821.31949592","3.01498198509","1824.33454084","2.98501801491","1827.35468698","1828.60733485","1828.65699887","1831.65998101","1","1831.67477584","1835.58648896",""
"sujeto_587bbcbb","1","3","8","72","1835.72509885","inverse","1","1","4","¿Cuál de los 7 enanitos
no tenía barba?","Bashful","Mudito","","1","1","0","competitive","right","1.77471208572","1837.49987483","3.22528791428","1840.93007302","3.1255800724","1844.05571485","2.8744199276","1846.98295593","1848.56309605","1848.6337359","1851.63666105","1","1851.65190887","1856.580966",""
"sujeto_587bbcbb","1","3","9","73","1856.71614885","direct","3","1","2","¿Cual red social es
mas utilizada mundialmente?","Instagram","Facebook","","1","1","0","individual","left","2.35470294952","1859.07091784","2.64529705048","1861.88916588","3.11980986595","1865.00904489","2.88019013405","1867.94333005","1869.86072087","1869.9121809","1872.91515589","1","1872.92968798","1875.86419487",""
"sujeto_587bbcbb","1","3","10","74","1876.01411605","inverse","4","1","1","¿Cuándo se inició la copa
 América de fútbol?","1916","1923","","1","1","1","individual","left","1.55998015404","1877.57420301","3.44001984596","1881.20288897","3.6112139225","1884.8141439","2.3887860775","1887.23618293","1889.13362098","1889.17044306","1892.17336202","1","1892.18812895","1894.8442049",""
"sujeto_587bbcbb","1","3","11","75","1894.98983097","direct","3","1","4","¿Cuántos presidentes de EEUU
han muerto asesinados?","3","4","","0","0","1","competitive","left","1.9883852005","1896.97830105","3.0116147995","1900.16105604","3.49221110344","1903.65332985","2.50778889656","1906.21386504","1907.69782305","1907.78157401","1910.78450084","0","1910.79902697","1914.44318199",""
"sujeto_587bbcbb","1","3","12","76","1914.58183789","inverse","2","1","4","¿Cuántas veces participó EEUU
 en la copa América?","4","5","","0","0","1","competitive","left","3.21864485741","1917.80053592","1.78135514259","1919.75452995","3.48096585274","1923.23555803","2.51903414726","1925.79044986","1927.23451996","1927.32494092","1930.32790303","0","1930.34353495","1936.46066499",""
"sujeto_587bbcbb","1","3","13","77","1936.61016989","direct","4","1","1","¿Cuál de estos países 
no formaba la URSS?","Azeribayán","Afganistán","","0","0","1","individual","right","1.51350402832","1938.12372184","3.48649597168","1941.78301096","3.73269200325","1945.51574683","2.26730799675","1947.83372283","1949.14680505","1949.20194697","1952.20492482","0","1952.21970105","1960.20183206",""
"sujeto_587bbcbb","1","3","14","78","1960.35397696","inverse","1","1","1","¿En qué año se inauguró
 el teatro Solís?","1867","1856","","0","0","0","competitive","left","1.5429649353","1961.89700699","3.4570350647","1965.52989292","3.4760890007","1969.00604486","2.5239109993","1971.56414199","1972.620399","1972.69887686","1975.70187187","0","1975.7146349","1982.36237383",""
"sujeto_587bbcbb","1","3","15","79","1982.49890995","direct","1","1","4","¿A qué velocidad vuela 
el avión más rápido?","3529","3874","","0","0","0","competitive","right","1.97626781464","1984.47525597","3.02373218536","1987.65773487","4.30549502373","1991.96330905","1.69450497627","1993.710706","1995.46620584","1995.54379487","1998.54677987","0","1998.56177998","2000.67206287",""
"sujeto_587bbcbb","1","3","16","80","2000.81376791","inverse","3","1","4","¿De qué año es la primer 
película cinematográfica?","1897","1888","","0","0","0","competitive","left","1.59772801399","2002.41161895","3.40227198601","2005.96874189","4.29962396622","2010.2684319","1.70037603378","2012.01939392","2013.15237784","2013.23649192","2016.23943996","0","2016.25373983","2021.66348886",""
"sujeto_587bbcbb","1","3","17","81","2021.805825","direct","2","1","3","¿Cuántos países 
tiene nuestro planeta?","191","194","","1","1","1","competitive","right","1.60717391968","2023.41311002","3.39282608032","2026.97733903","3.65828800201","2030.63568902","2.34171199799","2033.01210785","2034.36933804","2034.44641185","2037.44943285","1","2037.46409702","2040.70243287",""
"sujeto_587bbcbb","1","3","18","82","2040.84827805","inverse","2","1","2","¿Cuántos habitantes
 tiene Buenos Aires?","2.9000.000","3650000","","0","0","0","competitive","right","1.82547497749","2042.67381597","3.17452502251","2046.0392189","2.80352497101","2048.84280992","3.19647502899","2052.08964086","2053.48687696","2053.57463884","2056.577636","0","2056.59252095","2062.42189598",""
"sujeto_587bbcbb","1","3","19","83","2062.55951285","direct","2","1","1","¿Cuántos kilos forman una tonelada?","1000","1500","left","1","1","1","individual","left","3.27548789978","2065.83505297","1.72451210022","2067.71686482","2.68315386772","2070.40008497","3.31684613228","2073.75134492","2075.63870096","2075.68598294","2078.68895292","1","2078.70431089","2084.66173697",""
"sujeto_587bbcbb","1","3","20","84","2084.80568886","inverse","4","1","4","¿Cuántos estados tiene la 
República del Perú? ","24","23","","0","0","1","competitive","right","1.34248495102","2086.148242","3.65751504898","2089.99566793","3.28757500648","2093.28333497","2.71242499352","2096.04614186","2097.06829906","2097.14736485","2100.15030289","0","2100.16448903","2105.10937405",""
"sujeto_587bbcbb","1","3","21","85","2105.24997592","direct","3","1","3","¿En qué año nació Cristóbal Colón? ","1451","1447","","0","0","1","competitive","right","1.65354394913","2106.90356684","3.34645605087","2110.42316294","3.89527893066","2114.31848693","2.10472106934","2116.45705605","2118.30296183","2118.39179301","2121.39478493","0","2121.40963602","2125.63765097",""
"sujeto_587bbcbb","1","3","22","86","2125.77777791","inverse","4","1","4","¿Cuánto mide la 
Montaña Aconcagua? ","6234","6962","","0","0","1","competitive","right","1.37184596062","2127.14968801","3.62815403938","2130.93320084","3.74443697929","2134.67769885","2.25556302071","2136.96740389","2138.25672889","2138.33505988","2141.338027","0","2141.35282683","2148.53650093",""
"sujeto_587bbcbb","1","3","23","87","2148.67061901","direct","2","1","4","¿Cuánto mide el punto
 más profundo del océano? ","12508","11003","","0","0","1","competitive","right","2.04123401642","2150.71191382","2.95876598358","2153.84447002","3.15943813324","2157.00396895","2.84056186676","2159.89654398","2161.14804101","2161.23355794","2164.23659301","0","2164.24910688","2168.45438099",""
"sujeto_587bbcbb","1","3","24","88","2168.60022283","inverse","1","1","3","¿Cuántos álbumes ha publicado 
el cantante Jaime Roos? ","41","34","","0","0","1","competitive","right","2.10581493378","2170.70610905","2.89418506622","2173.77244997","4.26263308525","2178.03514504","1.73736691475","2179.80755591","2181.29742599","2181.37510896","2184.37804699","0","2184.39259195","2190.58874893",""
"sujeto_587bbcbb","1","3","25","89","2190.74416089","direct","4","1","3","¿En qué año nació el 
ex-presidente Jorge Battle? ","1921","1927","","1","1","1","individual","right","1.41309595108","2192.15739799","3.58690404892","2195.93280387","4.09851694107","2200.03136301","1.90148305893","2201.98429894","2203.71500087","2203.76795483","2206.77094603","1","2206.78557992","2210.2716279",""
"sujeto_587bbcbb","1","3","26","90","2210.40385699","inverse","1","1","3","¿Cuántas presidencias 
constitucionales  hubo en Uruguay? ","41","42","","0","0","1","competitive","left","2.60064315796","2213.00456095","2.39935684204","2215.56056786","4.10793304443","2219.66856194","1.89206695557","2221.61331797","2222.81708193","2222.89738989","2225.89940786","0","2225.91404891","2231.69766283",""
"sujeto_587bbcbb","1","3","27","91","2231.84875894","direct","1","1","2","¿Quién escribió mas sinfonías?","Mozart","Haydn","","1","1","0","competitive","left","3.37688589096","2235.22571087","1.62311410904","2237.03702092","2.78666186333","2239.82375002","3.21333813667","2243.09015989","2244.30763793","2244.39172101","2247.39466286","1","2247.40942097","2251.16037893",""
"sujeto_587bbcbb","1","3","28","92","2251.31079483","inverse","4","1","2","¿En qué año nació Michael Jackson?","1958","1953","","1","1","1","individual","right","1.18111491203","2252.49195504","3.81888508797","2256.47871399","3.55716705322","2260.03592205","2.44283294678","2262.53103304","2264.50924993","2264.54840899","2267.55138087","1","2267.56595397","2273.42656589",""
"sujeto_587bbcbb","1","3","29","93","2273.56950402","direct","3","1","2","¿En qué año entró en vigencia 
la ley antitabaco en Uruguay?","2005","2006","","1","1","1","individual","left","2.04656195641","2275.61612988","2.95343804359","2278.72818494","4.44697189331","2283.17519903","1.55302810669","2284.77989888","2286.37466288","2286.41375804","2289.41670299","1","2289.43153906","2294.76553488",""
"sujeto_587bbcbb","1","3","30","94","2294.91575694","inverse","3","1","1","¿Cuándo se subió el 
primer video a youtube?","2004","2005","","0","0","1","individual","left","1.59454584122","2296.51037002","3.40545415878","2300.10590601","2.56547212601","2302.67141795","3.43452787399","2306.15609002","2307.4613719","2307.50700188","2310.50997686","0","2310.52485895","2318.28047895",""
"sujeto_587bbcbb","1","3","31","95","2318.42672491","direct","2","1","1","¿Cuántos habitantes tiene India?","1200 millones","1300 millones","","0","0","0","individual","right","3.43407297134","2321.86090803","1.56592702866","2323.61810994","2.74048280716","2326.35865283","3.25951719284","2329.66853786","2331.63744402","2331.68718505","2334.69016504","0","2334.69954395","2340.74702787",""
"sujeto_587bbcbb","1","3","32","96","2340.90011692","inverse","4","1","2","¿A qué edad murió Bob Marley?","36","37","","0","0","1","individual","right","1.43764281273","2342.33780384","3.56235718727","2346.062958","2.26886701584","2348.33186698","3.73113298416","2352.11261797","2354.01050591","2354.04821706","2357.05120087","0","2357.06556582","2360.16803288",""
"sujeto_587bbcbb","1","4","1","97","2546.70017099","direct","2","1","1","¿Cuantos años dirigió la selección 
uruguaya Tabarez?","15 años","13 años","","0","0","0","individual","left","1.88963913918","2548.58987403","3.11036086082","2551.87097192","3.35785198212","2555.22886801","2.64214801788","2557.92123294","2559.11240482","2559.156178","2562.15915704","0","2562.17364097","2569.24568796","2360.18301797"
"sujeto_587bbcbb","1","4","2","98","2569.39147496","inverse","4","1","1","¿Cuantas teclas tiene un teclado 
de computadora generalmente? ","Entre 99 y 108","Entre 109 y 113","","1","1","1","individual","right","1.04655718803","2570.43807888","3.95344281197","2574.56648397","2.45358109474","2577.02012396","3.54641890526","2580.61612797","2581.61839795","2581.66788483","2584.67086983","1","2584.68567896","2587.05709791",""
"sujeto_587bbcbb","1","4","3","99","2587.20401287","direct","1","1","1","¿Cuál Departamento tiene
 mayor superficie?","Río Negro","Soriano","","0","0","0","competitive","left","1.84134602547","2589.04545498","3.15865397453","2592.39235091","3.66886401176","2596.06125689","2.33113598824","2598.44223094","2600.15572786","2600.22690105","2603.22934699","0","2603.24455595","2607.57040501",""
"sujeto_587bbcbb","1","4","4","100","2607.71288705","inverse","3","1","2","¿Cuál es el apellido de las 
hermanastras  de  cenicienta?","Tremaine","Truman","","0","0","1","individual","right","2.80152893066","2610.5144639","2.19847106934","2612.868572","3.66996407509","2616.53863192","2.33003592491","2618.92113495","2620.79038692","2620.83860803","2623.84157491","0","2623.85633087","2626.55230904",""
"sujeto_587bbcbb","1","4","5","101","2626.69123483","direct","4","1","4","¿Cuál película ganó un
 Oscar a mejor película?","Alto Impacto","Cache","","0","0","1","competitive","left","1.80245494843","2628.49377203","3.19754505157","2631.87951684","2.96513199806","2634.84471703","3.03486800194","2637.93060994","2639.04999685","2639.13136697","2642.13435888","0","2642.14855003","2644.41317701",""
"sujeto_587bbcbb","1","4","6","102","2644.55019999","inverse","1","1","3","¿A cuántos centímetros
equivale la medida pié?","25","30","","0","0","1","competitive","right","1.22860312462","2645.77887201","3.77139687538","2649.70408106","4.65967702866","2654.36380005","1.34032297134","2655.73894596","2656.77894282","2656.85574889","2659.858742","0","2659.87346482","2665.27444601",""
"sujeto_587bbcbb","1","4","7","103","2665.40798402","direct","2","1","2","¿Qué departamento es mas grande?","Cerro Largo","Paysandú","","0","0","0","competitive","right","1.65999007225","2667.06803894","3.34000992775","2670.56706405","2.86292409897","2673.43003297","3.13707590103","2676.61662197","2678.21638703","2678.30258489","2681.30556202","0","2681.31928492","2685.42925692",""
"sujeto_587bbcbb","1","4","8","104","2685.57127404","inverse","2","1","3","¿Quién pintó la Mona Lisa?","Picasso","Da Vinci","right","0","0","1","competitive","right","1.18781995773","2686.75913692","3.81218004227","2690.72724795","3.0628118515","2693.79012084","2.9371881485","2696.77685094","2698.38275003","2698.46274686","2701.46576095","1","2701.47941303","2703.64176989",""
"sujeto_587bbcbb","1","4","9","105","2703.79828191","direct","4","1","3","¿Cuántos litros hay en un galon?","3.54","3.78","","1","1","1","individual","right","1.68468499184","2705.48303199","3.31531500816","2708.96776986","3.61717104912","2712.58500195","2.38282895088","2715.01819301","2716.53607988","2716.58624387","2719.58923602","1","2719.60405803","2725.39642",""
"sujeto_587bbcbb","1","4","10","106","2725.53836203","inverse","4","1","1","¿Cuántas teclas tiene
 un piano moderno?","80","88","","0","0","1","individual","left","1.4925391674","2727.03094602","3.5074608326","2730.71408105","3.72176194191","2734.43588805","2.27823805809","2736.76483393","2737.77332306","2737.81563306","2740.81863904","0","2740.83334994","2747.63108993",""
"sujeto_587bbcbb","1","4","11","107","2747.76788092","direct","4","1","3","¿Cuántos países hay en África?","54","62","","0","0","1","individual","right","1.5528678894","2749.32081985","3.4471321106","2752.94184089","3.35894107819","2756.30084586","2.64105892181","2758.97618985","2760.66670585","2760.70990705","2763.71283603","0","2763.72863197","2771.53141904",""
"sujeto_587bbcbb","1","4","12","108","2771.67922997","inverse","1","1","3","¿En qué siglo se crearon
 las primeras pistolas?","XV","XIII","","1","1","1","competitive","left","1.58842301369","2773.26770401","3.41157698631","2776.83761501","4.27401614189","2781.11169291","1.72598385811","2782.88872004","2784.83661294","2784.92230988","2787.92532206","1","2787.94093084","2791.17402697",""
"sujeto_587bbcbb","1","4","13","109","2791.30871105","direct","3","1","4","¿En qué año se estrenó 
la serie friends?","1994","1995","","0","0","1","competitive","left","1.49090504646","2792.79969096","3.50909495354","2796.46480393","2.78979682922","2799.25466895","3.21020317078","2802.51321101","2804.38854098","2804.46490598","2807.46788883","0","2807.48217583","2812.48826385",""
"sujeto_587bbcbb","1","4","14","110","2812.63395","inverse","3","1","4","¿En qué año nació Hitler?","1889","1887","","0","0","1","competitive","right","2.10863304138","2814.74265289","2.89136695862","2817.79288197","2.51567697525","2820.30862689","3.48432302475","2823.84147882","2824.95586991","2825.02653694","2828.02953386","0","2828.04406095","2833.07105994",""
"sujeto_587bbcbb","1","4","15","111","2833.21206498","direct","1","1","4","¿Cuánto pesa un elefante Africano?","6000 kilos","5400 kilos","","0","0","0","competitive","left","1.46843910217","2834.68055296","3.53156089783","2838.38572383","3.08375597","2841.46952486","2.91624403","2844.43602586","2845.79195786","2845.87147498","2848.87445498","0","2848.88823891","2855.59530902",""
"sujeto_587bbcbb","1","4","16","112","2855.75672293","inverse","1","1","2","¿Qué porcentaje de 
la población es zurda?","10%","7%","","1","1","0","competitive","right","1.98275399208","2857.73951983","3.01724600792","2860.92740393","3.15097880363","2864.07843995","2.84902119637","2866.98169398","2868.2243309","2868.29944491","2871.30234385","1","2871.31681705","2877.29651785",""
"sujeto_587bbcbb","1","4","17","113","2877.44612384","direct","1","1","2","¿En qué año se estrenó
Volver al futuro?","1984","1985","","0","0","1","competitive","left","2.95431494713","2880.40050387","2.04568505287","2882.62295604","3.12045097351","2885.743469","2.87954902649","2888.6758759","2890.23770905","2890.31099296","2893.31397986","0","2893.32860804","2900.42006493",""
"sujeto_587bbcbb","1","4","18","114","2900.56332493","inverse","3","1","2","¿Cuántos jugadores hay en un 
equipo de baseball?","9","8","","1","1","0","competitive","right","1.28809404373","2901.85146785","3.71190595627","2905.73573184","2.55467510223","2908.29046893","3.44532489777","2911.78608704","2913.40031695","2913.47135401","2916.47428489","1","2916.48902082","2921.46622205",""
"sujeto_587bbcbb","1","4","19","115","2921.60672092","direct","2","1","1","¿Cuántos Oscar ganó
 la película titanic?","13","11","","1","1","1","individual","right","1.84363484383","2923.45040202","3.15636515617","2926.79791689","2.9014339447","2929.69941282","3.0985660553","2932.84755588","2934.14958096","2934.19873405","2937.2017169","1","2937.21588993","2941.81855989",""
"sujeto_587bbcbb","1","4","20","116","2941.96670985","inverse","4","1","4","¿En qué año comenzó
la segunda guerra mundial?","1939","1976","left","0","0","1","competitive","left","1.78675699234","2943.75354695","3.21324300766","2947.15812588","2.89824795723","2950.05641699","3.10175204277","2953.20886993","2955.00869083","2955.09311104","2958.09557104","1","2958.11097789","2962.09432888",""
"sujeto_587bbcbb","1","4","21","117","2962.24600291","direct","2","1","4","¿Cuántos biomas hay en Uruguay?","5","4","","0","0","1","competitive","right","2.54232692719","2964.788378","2.45767307281","2967.39910102","1.6721971035","2969.07136488","4.3278028965","2973.45265388","2975.25002098","2975.32083797","2978.32380795","0","2978.339118","2984.58854389",""
"sujeto_587bbcbb","1","4","22","118","2984.74025702","inverse","2","1","3","¿Cuándo murió Pablo Escobar?","1993","1997","","1","1","1","competitive","right","1.86035394669","2986.60066795","3.13964605331","2989.91411996","2.52630591393","2992.44046688","3.47369408607","2995.96228695","2997.74514985","2997.83048105","3000.83341193","1","3000.84891987","3006.55259085",""
"sujeto_587bbcbb","1","4","23","119","3006.70032692","direct","1","1","4","¿Qué serie ha ganado mas premios?","Friends","Murphy Brown","","1","1","0","competitive","left","0.990213871002","3007.69059587","4.009786129","3011.85792398","3.68550682068","3015.54347706","2.31449317932","3017.90910697","3019.26152992","3019.34395194","3022.34694004","1","3022.36064982","3027.92226601",""
"sujeto_587bbcbb","1","4","24","120","3028.06220388","inverse","4","1","2","¿Cuántas fichas tiene el dominó?","26","28","","1","1","1","individual","left","1.6442220211","3029.70649195","3.3557779789","3033.23560786","3.70881605148","3036.94446397","2.29118394852","3039.270298","3040.32561493","3040.37080693","3043.37378788","1","3043.38914585","3048.63139606",""
"sujeto_587bbcbb","1","4","25","121","3048.77329397","direct","2","1","4","¿Cuántos son los dientes de leche?","20","25","","0","0","1","competitive","left","1.65013813972","3050.42349601","3.34986186028","3053.93003893","3.34241700172","3057.27249885","2.65758299828","3059.98052883","3061.69091797","3061.76546884","3064.76838303","0","3064.78271198","3066.92841601",""
"sujeto_587bbcbb","1","4","26","122","3067.06791496","inverse","3","1","3","¿Cuántos gramos son una onza?","22","28","","0","0","1","competitive","right","3.15654778481","3070.22451186","1.84345221519","3072.234761","2.1427090168","3074.37751603","3.8572909832","3078.28911304","3080.28223801","3080.35833287","3083.36129904","0","3083.37587786","3089.66614103",""
"sujeto_587bbcbb","1","4","27","123","3089.81032705","direct","3","1","1","¿Cuándo salió el primer album
 de los Beatles?","1963","1962","","1","1","1","individual","right","1.40525913239","3091.21566105","3.59474086761","3095.00123501","2.9612569809","3097.96253586","3.0387430191","3101.051579","3102.21521282","3102.26977587","3105.27275991","1","3105.28749704","3109.05954003",""
"sujeto_587bbcbb","1","4","28","124","3109.20511484","inverse","3","1","3","¿Quién fundó la empresa apple?","Carlos Slim","Steve Jobs","","1","1","1","individual","right","1.20843601227","3110.41361904","3.79156398773","3114.37829494","2.50626206398","3116.884619","3.49373793602","3120.42776489","3121.54238486","3121.57946897","3124.58241987","1","3124.59710002","3130.89495206",""
"sujeto_587bbcbb","1","4","29","125","3131.04837394","direct","4","1","2","¿Cuántos municipios hay
 en Montevideo?","8","7","","1","1","1","individual","right","1.29718589783","3132.34562588","3.70281410217","3136.23772597","2.76082611084","3138.99859595","3.23917388916","3142.27231288","3144.18709087","3144.22380805","3147.22677898","1","3147.24224687","3149.32341099",""
"sujeto_587bbcbb","1","4","30","126","3149.4603889","inverse","1","1","1","¿Cuántos kilómetros hay
 de Montevideo a Artigas?","632","599","","0","0","0","competitive","right","1.27066707611","3150.73117089","3.72933292389","3154.64878798","1.91875314713","3156.56759906","4.08124685287","3160.697896","3162.18105483","3162.267066","3165.27004886","0","3165.28499389","3171.33711791",""
"sujeto_587bbcbb","1","4","31","127","3171.4860239","direct","2","1","2","¿En qué año nació 
Leonardo Da Vinci?","1452","1511","","1","1","0","competitive","left","1.09467101097","3172.58075094","3.90532898903","3176.64289093","1.9148440361","3178.557796","4.0851559639","3182.69256783","3184.54618192","3184.62869883","3187.63167691","1","3187.64631486","3190.79271698",""
"sujeto_587bbcbb","1","4","32","128","3190.94745994","inverse","3","1","1","¿A qué continente
 pertenece el país Gabón?","Africa","Oceanía","","0","0","1","individual","right","1.49529695511","3192.44280195","3.50470304489","3196.12049794","2.81727600098","3198.93781686","3.18272399902","3202.17039299","3203.98203993","3204.02233791","3207.02531099","0","3207.03966784","3212.27758884",""
