"code","nro_aplicante","nro_bloque","nro_trial_bloque","nro_trial_global","show_game_type","choice_order","rival","pay_individual","pay_competitive","question","answer_left_text","answer_right_text","correct_answer","outcome_individual","outcome_competitive","outcome_rival","game_type","answer","social_time","rt_game_type","feedback_delay","show_question","answer_time","rt_answer_global","feedback_delay_2","show_jitter","jitter_time","show_outcome","outcome_time","outcome_participant_real","show_final_jitter","second_jitter_time","inicio_descanso"
"sujeto_e9306fb7","2","1","1","1","63.7570009232","direct","3","1","4","¿Cuántos centímetros corresponden
al talle 36 del calzado?","23","24","","0","0","1","","","","","","","","","","","","","","","68.7800989151","70.9426000118",""
"sujeto_e9306fb7","2","1","2","2","71.0800719261","inverse","3","1","2","¿Cuántas metros mide la Intendencia
Municipal de Montevideo? ","84","78","","0","0","1","competitive","left","3.83528804779","74.9154210091","1.16471195221","76.2337958813","3.2755818367","79.5094149113","2.7244181633","82.2858178616","84.1638469696","84.2367129326","87.2396469116","0","87.2539179325","89.3466339111",""
"sujeto_e9306fb7","2","1","3","3","89.4736340046","direct","1","1","3","¿Cuántas La Pasiva
 hay en uruguay?","15","11","","1","1","1","competitive","left","2.0310280323","91.5047059059","2.9689719677","94.6265318394","3.74830198288","98.3749008179","2.25169801712","100.661665916","102.273336887","102.347137928","105.350113869","1","105.3641119","109.640574932",""
"sujeto_e9306fb7","2","1","4","4","109.765341997","inverse","3","1","3","¿De que color es la camiseta de uruguay?","blanca","celeste","right","1","1","1","competitive","left","1.21078395844","110.976193905","3.78921604156","114.91907382","4.56312704086","119.482266903","1.43687295914","120.954931974","122.15967083","122.239159822","125.240541935","0","125.255955935","128.709874868",""
"sujeto_e9306fb7","2","1","5","5","128.843204975","direct","2","1","1","¿Cuánto metros mide
la torre Eiffel?","333","324","","1","1","1","competitive","left","1.65333008766","130.496582985","3.34666991234","133.998859882","3.96675205231","137.965649843","2.03324794769","140.04875493","141.570158958","141.650034904","144.652586937","1","144.668035984","151.704571962",""
"sujeto_e9306fb7","2","1","6","6","151.837864876","inverse","3","1","4","¿Cuantas ciudades existen
 en todo el uruguay?","63","72","","0","0","1","competitive","left","2.12610006332","153.964030027","2.87389993668","156.994557858","4.72452402115","161.719131947","1.27547597885","163.046267033","164.101071835","164.17918992","167.182173967","0","167.196475983","174.823065996",""
"sujeto_e9306fb7","2","1","7","7","174.950812817","direct","1","1","1","¿Cuantos estados tiene África?","52","54","","1","1","0","competitive","right","3.36854290962","178.319419861","1.63145709038","180.08969903","3.16475510597","183.254523039","2.83524489403","186.123852015","187.987833977","188.059096813","191.062070847","1","191.07620883","196.837234974",""
"sujeto_e9306fb7","2","1","8","8","196.979857922","inverse","4","1","4","¿En qué año nació
 Stephen Hawking?","1952","1942","","0","0","1","competitive","left","2.16720080376","199.147125006","2.83279919624","202.151661873","4.94514703751","207.096848011","1.05485296249","208.1864779","209.630739927","209.720748901","212.723762989","0","212.737797022","218.837112904",""
"sujeto_e9306fb7","2","1","9","9","218.990129948","direct","2","1","3","¿Cuánto años tenía Artigas
 cuando se fue a Paraguay?","56","57","","1","1","1","competitive","right","1.5730137825","220.563210964","3.4269862175","224.145108938","5.81014895439","229.955319881","0.189851045609","230.179934978","231.728574038","231.796888828","234.799862862","1","234.814291","240.861541986",""
"sujeto_e9306fb7","2","1","10","10","240.986519814","inverse","1","1","2","¿Cuantos milímetros 
mide una hoja A2?","420x592","420x594","","0","0","1","competitive","right","1.4499809742","242.436573029","3.5500190258","246.141459942","5.93612718582","252.077651024","0.0638728141785","252.193765879","253.762189865","253.843087912","256.846066952","0","256.860440969","263.93253088",""
"sujeto_e9306fb7","2","1","11","11","264.06584096","direct","3","1","3","¿Cuál es la menor temperatura 
registrada en Uruguay?","-5.4","-7.4","","0","0","1","competitive","left","1.66600012779","265.73190999","3.33399987221","269.219852924","4.61004900932","273.829941034","1.38995099068","275.254969835","276.936556816","277.022433996","280.024565935","0","280.039834976","283.773138046",""
"sujeto_e9306fb7","2","1","12","12","283.908162832","inverse","2","1","2","¿Cuantos años hace que 
se fundó facebook?","18","17","","0","0","0","competitive","left","1.84099888802","285.74920702","3.15900111198","289.097869873","3.45132303238","292.549252987","2.54867696762","295.14603281","296.518718958","296.598033905","299.601009846","0","299.615180969","302.388558865",""
"sujeto_e9306fb7","2","1","13","13","302.517016888","direct","1","1","4","¿Cuál animal es más
 pesado en promedio?","Rinoceronte","Hipopotamo","","0","0","0","competitive","left","1.77632784843","304.293408871","3.22367215157","307.67373991","4.78572583199","312.459532022","1.21427416801","313.723718882","314.802976847","314.873479843","317.876420021","0","317.890902996","321.731902838",""
"sujeto_e9306fb7","2","1","14","14","321.859860897","inverse","1","1","2","¿Qué personaje de dragon ball 
murió más veces?","Chaoz","Krillin","","1","1","0","competitive","right","1.35378980637","323.21371603","3.64621019363","327.017268896","3.99644899368","331.013778925","2.00355100632","333.101840019","334.559645891","334.636579037","337.639566898","1","337.653908968","345.426827908",""
"sujeto_e9306fb7","2","1","15","15","345.559013844","direct","3","1","2","La universidad de oxford. 
existe desde:","1096","1249","","1","1","0","competitive","right","1.02386784554","346.582926035","3.97613215446","350.696113825","4.92892599106","355.625082016","1.07107400894","356.731683969","357.780514002","357.865825891","360.868824959","1","360.882163048","367.572988987",""
"sujeto_e9306fb7","2","1","16","16","367.706133842","inverse","3","1","1","¿Qué escritor latino ganó antes
 el premio nobel?"," García Marquez","Neruda","","0","0","1","competitive","left","1.10900783539","368.815188885","3.89099216461","372.858309984","4.27091908455","377.129271984","1.72908091545","378.909377813","380.649379969","380.726728916","383.729691982","0","383.744796038","387.205307961",""
"sujeto_e9306fb7","2","1","17","17","387.345764875","direct","4","1","3","¿Cuántos dientes tiene un
 tiburón blanco?","6000","3000","","0","0","1","competitive","right","1.27054095268","388.616343975","3.72945904732","392.513783932","3.78259396553","396.296453953","2.21740603447","398.565903902","399.604925871","399.684185982","402.687175035","0","402.701592922","407.511268854",""
"sujeto_e9306fb7","2","1","18","18","407.654769897","inverse","4","1","1","¿Cuánto mide el paralelo Ecuador?","40.000km","70.000km","","0","0","1","competitive","right","1.01581692696","408.670656919","3.98418307304","412.812125921","4.35160779953","417.163797855","1.64839220047","418.863907814","420.819988012","420.897653818","423.900597811","0","423.915953875","427.516602993",""
"sujeto_e9306fb7","2","1","19","19","427.650192976","direct","4","1","2","¿Cuál fue el primer libro 
de Stephen King?","Carrie","The Stand","","1","1","1","competitive","left","3.16969203949","430.819950819","1.83030796051","432.804447889","3.67635893822","436.480844021","2.32364106178","438.857846975","440.601933956","440.675886869","443.678849936","1","443.692883015","448.167318821",""
"sujeto_e9306fb7","2","1","20","20","448.310844898","inverse","2","1","3","¿Qué civilización practicaba
 la momificación?","Grecia","Egipto","right","0","0","1","competitive","right","1.12212395668","449.43303895","3.87787604332","453.46470499","3.80331993103","457.268090963","2.19668006897","459.51700592","461.456287861","461.534353971","464.537335873","1","464.552578926","468.781359911",""
"sujeto_e9306fb7","2","1","21","21","468.921005964","direct","4","1","4","¿Cuántos millones de visitas
 recibe google por minuto?","3.0","4.5","","0","0","1","competitive","left","0.737247228622","469.658322811","4.26275277138","474.09504199","4.43426299095","478.529366016","1.56573700905","480.142300844","481.656554937","481.74306488","484.746065855","0","484.76038003","491.883036852",""
"sujeto_e9306fb7","2","1","22","22","492.016275883","inverse","1","1","3","La máquina de fax. se inventó en:","1843","1960","","0","0","1","competitive","right","0.990141868591","493.006464005","4.00985813141","497.157047033","5.62642598152","502.783541918","0.373574018478","503.191711903","504.433817863","504.508103848","507.511046886","0","507.525547028","510.761853933",""
"sujeto_e9306fb7","2","1","23","23","510.894356966","direct","2","1","4","En la verdadera historia de los
 300 espartanos. habían:","300 soldados","4300 soldados","","1","1","1","competitive","left","1.20620703697","512.100605011","3.79379296303","516.050400019","4.61722803116","520.667695045","1.38277196884","522.10104394","523.362272024","523.435585022","526.438541889","1","526.45261693","530.254377842",""
"sujeto_e9306fb7","2","1","24","24","530.402217865","inverse","1","1","4","¿Cuántos milímetros crece
 el pelo por día?","0.4","0.04","","0","0","0","competitive","right","0.502557992935","530.904844999","4.49744200706","535.559034824","4.299710989","539.858805895","1.700289011","541.607688904","543.368415833","543.441959858","546.444941044","0","546.459478855","553.194576025",""
"sujeto_e9306fb7","2","1","25","25","553.331387997","direct","4","1","1","¿Cuánto mide la baldosa gris 
clásica de Montevideo?","22x22 cm.","20x20 cm.","","1","1","1","individual","right","1.37353396416","554.704969883","3.62646603584","558.488474846","4.96749091148","563.456009865","1.03250908852","564.540189981","566.535426855","566.574461937","569.577448845","1","569.591670036","575.134474039",""
"sujeto_e9306fb7","2","1","26","26","575.277448893","inverse","2","1","2","¿Cuántas películas de rápidos
 y furiosos hay?","10","11","","1","1","0","competitive","left","0.894619941711","576.172111988","4.10538005829","580.433149815","4.01995706558","584.453171015","1.98004293442","586.484932899","587.842943907","587.918702841","590.921702862","1","590.936156988","592.970862865",""
"sujeto_e9306fb7","2","1","27","27","593.103039026","direct","3","1","1","¿Cuántos masters 1000
 ganó Del Potro?","1","2","","1","1","1","competitive","right","1.17311906815","594.276207924","3.82688093185","598.240859985","4.95335507393","603.194254875","1.04664492607","604.294147015","606.048746824","606.128134012","609.131099939","1","609.145151854","616.54151988",""
"sujeto_e9306fb7","2","1","28","28","616.680259943","inverse","2","1","4","¿Cuántos meses dura el 
embarazo de una leona?","3 meses","4 meses","","0","0","1","competitive","right","3.30612182617","619.986446857","1.69387817383","621.837226868","4.69809603691","626.535362005","1.30190396309","627.888092041","628.999177933","629.072324991","632.072527885","0","632.08998394","638.8085289",""
"sujeto_e9306fb7","2","1","29","29","638.941470861","direct","1","1","1","¿En qué año fue creado
 el sandwich?","1762","1653","","1","1","0","competitive","right","3.80707287788","642.748592854","1.19292712212","644.100498915","3.86502885818","647.965589046","2.13497114182","650.135120869","651.732499838","651.802558899","654.8045609","1","654.819993019","658.288573027",""
"sujeto_e9306fb7","2","1","30","30","658.455222845","inverse","4","1","2","El nombre de la moneda de Vietnam es:","Dinar","Dong","","0","0","1","competitive","right","3.48040699959","661.935675859","1.51959300041","663.61054492","4.94909787178","668.559703827","1.05090212822","669.662200928","671.094198942","671.179530859","674.182498932","0","674.196588039","680.365000963",""
"sujeto_e9306fb7","2","1","31","31","680.498284817","direct","2","1","1","¿cuantos aleteos puede dar 
un colibrí por segundo?","120","50","","0","0","0","competitive","left","0.830415964127","681.328743935","4.16958403587","685.65464282","3.79905509949","689.45373702","2.20094490051","691.706348896","693.438724041","693.523488998","696.526474953","0","696.541507959","700.753764868",""
"sujeto_e9306fb7","2","1","32","32","700.921772003","inverse","4","1","3","¿Qué altura promedio tienen
 los hombres uruguayos?","1.73 m","1.72 m","","1","1","1","competitive","right","1.2731051445","702.194942951","3.7268948555","706.081131935","4.82176017761","710.90294981","1.17823982239","712.133276939","713.395661831","713.46667099","716.469626904","1","716.484932899","720.960849047",""
"sujeto_e9306fb7","2","2","1","33","872.965044975","direct","1","1","1","¿En qué año nació 
el actor Bradd Pitt?","1967","1963","","1","1","1","competitive","left","2.00846600533","874.973580837","2.99153399467","878.12143898","4.39507317543","882.516571045","1.60492682457","884.154695988","885.250519991","885.321949959","888.324914932","1","888.339351892","894.266919851","720.972245932"
"sujeto_e9306fb7","2","2","2","34","894.426887035","inverse","2","1","1","¿Cual es el segundo 
monte más alto?","Kanchenjunga","K2","","1","1","1","competitive","right","1.32269215584","895.749644041","3.67730784416","899.58238101","5.40024399757","904.982692957","0.599756002426","905.634316921","907.086736917","907.167892933","910.170888901","1","910.185271025","913.615162849",""
"sujeto_e9306fb7","2","2","3","35","913.754112959","direct","3","1","1","¿Cuándo finalizó la construcción
 del Palacio Legislativo?","1925","1917","","0","0","1","competitive","right","1.22753000259","914.981710911","3.77246999741","918.892099857","3.30752396584","922.199684858","2.69247603416","924.94340086","926.585096836","926.6613729","929.664357901","0","929.678400993","935.37253499",""
"sujeto_e9306fb7","2","2","4","36","935.496853828","inverse","3","1","3","¿Cuántos integrantes tenía
 en su inicio  el cuarteto de nos?","3","4","","1","1","1","individual","right","0.737920999527","936.234905958","4.26207900047","940.653919935","4.09874987602","944.752730846","1.90125012398","946.704916","947.837946892","947.888931036","950.891860962","1","950.905885935","956.552572966",""
"sujeto_e9306fb7","2","2","5","37","956.693682909","direct","2","1","3","¿Qué valor tiene el número pi?","3.14","4.18","left","0","0","1","competitive","right","1.11193084717","957.805652857","3.88806915283","961.846848011","3.91583704948","965.762727022","2.08416295052","967.897164822","969.351387024","969.432186842","972.435163975","0","972.449518919","979.37050581",""
"sujeto_e9306fb7","2","2","6","38","979.500656843","inverse","2","1","2","¿Cuál es la esperanza de vida
 en Uruguay?","75","77","","1","1","0","competitive","right","1.55009007454","981.050793886","3.44990992546","984.660246849","3.35745286942","988.017740965","2.64254713058","990.710063934","992.363878965","992.444967985","995.447952032","1","995.462167978","1001.92519784",""
"sujeto_e9306fb7","2","2","7","39","1002.04761004","direct","1","1","2","¿Cuantos pisos tiene la torre 
de las comunicaciones?","26","32","","1","1","0","competitive","","0.867240905762","1002.91491389","4.13275909424","1007.22130203","6","1013.221421","0","1013.23714495","1015.06590986","1015.14061284","1018.14360499","0","1018.15704203","1020.30325603",""
"sujeto_e9306fb7","2","2","8","40","1020.44193697","inverse","2","1","4","¿En qué país sudamericano 
no hay McDonalds?","Bolivia","Venezuela","","0","0","1","competitive","left","3.17893910408","1023.62091994","1.82106089592","1025.59677792","4.81400203705","1030.41084194","1.18599796295","1031.63308096","1032.94243288","1033.01714802","1036.02012086","0","1036.03425288","1042.39398885",""
"sujeto_e9306fb7","2","2","9","41","1042.53595901","direct","3","1","1","¿En qué año empieza
 la Edad Media?","476","512","","1","1","1","competitive","right","1.18494486809","1043.72094703","3.81505513191","1047.68767095","4.0432009697","1051.73093891","1.9567990303","1053.72320485","1055.12697792","1055.20791197","1058.2108829","1","1058.22513986","1061.2136929",""
"sujeto_e9306fb7","2","2","10","42","1061.34405494","inverse","3","1","4","¿Hace cuántos años surgió
 el ser humano?","200mil","300mil","","0","0","0","competitive","left","1.46276092529","1062.80687284","3.53723907471","1066.50257492","4.73231005669","1071.23494887","1.26768994331","1072.55339789","1074.43941689","1074.52000594","1077.52294087","0","1077.53682995","1080.84727788",""
"sujeto_e9306fb7","2","2","11","43","1080.98973703","direct","3","1","4","¿Cuántas cuadras tiene
 actualmente 18 de julio? ","36","33","","0","0","1","competitive","right","1.0462269783","1082.03601098","3.9537730217","1086.12883687","4.48603987694","1090.61493993","1.51396012306","1092.17990685","1093.88213587","1093.96419692","1096.96718502","0","1096.98220587","1101.70457387",""
"sujeto_e9306fb7","2","2","12","44","1101.83296585","inverse","1","1","4","¿Qué juego de equipo se 
considera mas rápido?","Lacrosse","Badminton","","0","0","0","competitive","left","0.323107004166","1102.15620089","4.67689299583","1106.98685193","0.135136842728","1107.12202787","5.86486315727","1113.03691888","1114.2800169","1114.35681581","1117.35979795","0","1117.373873","1125.36897588",""
"sujeto_e9306fb7","2","2","13","45","1125.52618098","direct","1","1","3","¿Qué promedio de edad 
vive una jirafa? ","25","20","","0","0","1","competitive","right","0.880839109421","1126.40708899","4.11916089058","1130.68378401","3.57223510742","1134.25605989","2.42776489258","1136.736166","1138.49769783","1138.56871796","1141.57170391","0","1141.58606195","1147.54179502",""
"sujeto_e9306fb7","2","2","14","46","1147.68896294","inverse","1","1","2","¿Cuántos grandes lagos hay?","7","5","","0","0","1","competitive","left","0.518096923828","1148.20712399","4.48190307617","1152.82989788","4.31517505646","1157.14513397","1.68482494354","1158.86454701","1160.15668488","1160.231565","1163.23454785","0","1163.24898696","1171.07037187",""
"sujeto_e9306fb7","2","2","15","47","1171.20090795","direct","3","1","2","¿Cuántos discos de estudio
 grabó Johhny Cash? ","54","43","","1","1","0","competitive","left","0.973448038101","1172.17442489","4.0265519619","1176.358325","3.94060707092","1180.29898691","2.05939292908","1182.40991998","1183.68857288","1183.76082397","1186.76381803","1","1186.77814102","1193.42856693",""
"sujeto_e9306fb7","2","2","16","48","1193.56321287","inverse","4","1","1","¿Cuántos barrios tiene
 Montevideo? ","71","62","","0","0","1","competitive","left","0.660899877548","1194.22418094","4.33910012245","1198.719414","2.82663702965","1201.54609084","3.17336297035","1204.753793","1205.76057291","1205.83885598","1208.84187698","0","1208.85597801","1214.31654382",""
"sujeto_e9306fb7","2","2","17","49","1214.47650504","direct","3","1","3","¿Qué edad tiene Homero Simpson?","36","42","","0","0","1","competitive","left","1.07552194595","1215.55207086","3.92447805405","1219.62812304","4.6459710598","1224.27414298","1.3540289402","1225.66388702","1227.03986788","1227.11523604","1230.11656594","0","1230.13195491","1234.5207119",""
"sujeto_e9306fb7","2","2","18","50","1234.65095997","inverse","4","1","2","¿Cuántos países con monarquía 
hay en europa actualmente? ","6","10","","1","1","1","competitive","left","0.93011879921","1235.58118081","4.06988120079","1239.82427382","5.16481804848","1244.98915482","0.835181951523","1245.87565184","1247.31392288","1247.39309692","1250.39606404","1","1250.41044092","1256.56549191",""
"sujeto_e9306fb7","2","2","19","51","1256.71487689","direct","2","1","3","¿Cuántos capítulos de
 Friends existen? ","236","228","","1","1","1","competitive","left","0.970285892487","1257.68523002","4.02971410751","1261.86929989","4.71275782585","1266.58211899","1.28724217415","1267.90329194","1269.20887589","1269.28694797","1272.28856492","1","1272.30481386","1274.68045998",""
"sujeto_e9306fb7","2","2","20","52","1274.83950281","inverse","1","1","3","¿Cuántas óperas compuso Mozart? ","27","22","","1","1","1","competitive","left","0.91056394577","1275.75010991","4.08943605423","1279.99534702","3.04066300392","1283.03607392","2.95933699608","1286.029037","1287.32118797","1287.39720082","1290.40017581","1","1290.41414785","1297.72562289",""
"sujeto_e9306fb7","2","2","21","53","1297.88211298","direct","4","1","3","¿Cuántos mundiales de fútbol 
femenino ha realizado FIFA? ","9","7","","1","1","1","competitive","left","0.851940155029","1298.73409796","4.14805984497","1303.0518539","0.567227840424","1303.61914992","5.43277215958","1309.10274196","1310.34644485","1310.42311502","1313.42610002","1","1313.44041491","1319.5429039",""
"sujeto_e9306fb7","2","2","22","54","1319.67579889","inverse","3","1","2","¿Cuál es la temperatura 
media anual en Montevideo? ","17.5","16.3","","0","0","1","competitive","left","1.11629605293","1320.79216599","3.88370394707","1324.83463788","4.73543190956","1329.57013083","1.26456809044","1330.88672686","1332.82533193","1332.90363383","1335.90457797","0","1335.92096782","1342.49049783",""
"sujeto_e9306fb7","2","2","23","55","1342.62683296","direct","2","1","2","¿En qué año se estrenó el
 videojuego The Sims? ","2000","2002","","0","0","0","competitive","left","0.707242012024","1343.33414197","4.29275798798","1347.78024793","4.54483890533","1352.32515597","1.45516109467","1353.81496191","1355.67697096","1355.76578498","1358.76877284","0","1358.78313303","1366.17681384",""
"sujeto_e9306fb7","2","2","24","56","1366.32137084","inverse","2","1","1","¿Cuál es la canción con 
mas covers? ","Yesterday","Stand by me","","0","0","0","competitive","right","1.96778297424","1368.28926992","3.03221702576","1371.49098301","4.80604910851","1376.29707599","1.19395089149","1377.54399395","1378.94253302","1379.0275569","1382.02857995","0","1382.04500103","1386.21584797",""
"sujeto_e9306fb7","2","2","25","57","1386.36328387","direct","1","1","4","¿Cuánto duró la guerra
 de los 100 años?","116","123","","0","0","0","competitive","left","1.74973487854","1388.11305785","3.25026512146","1391.5196979","4.94439983368","1396.46414089","1.05560016632","1397.55392504","1399.03474593","1399.12079501","1402.12377787","0","1402.13834596","1404.45813394",""
"sujeto_e9306fb7","2","2","26","58","1404.58924294","inverse","4","1","4","¿Qué color tiene la  bandera de Brasil?","Amarillo","Naranja","left","0","0","1","competitive","left","0.957813024521","1405.54710102","4.04218697548","1409.74541402","3.06654715538","1412.81201386","2.93345284462","1415.79570699","1417.36224198","1417.44721794","1420.45020986","1","1420.46471095","1423.49750304",""
"sujeto_e9306fb7","2","2","27","59","1423.63299298","direct","4","1","3","¿Qué carabela de 
Colon no volvió del viaje?","Santa María","La pinta","","0","0","1","competitive","left","1.58909893036","1425.22216582","3.41090106964","1428.78820086","5.67491197586","1434.46315503","0.325088024139","1434.82344389","1436.31449795","1436.39025998","1439.39321494","0","1439.40743494","1441.50688195",""
"sujeto_e9306fb7","2","2","28","60","1441.64241886","inverse","4","1","4","¿Cuántos huesos tiene
 un adulto humano?","217","206","","0","0","1","competitive","right","1.30055785179","1442.94303584","3.69944214821","1446.78094792","3.80505299568","1450.58605886","2.19494700432","1452.83166289","1454.10270286","1454.18252587","1457.18551803","0","1457.19979787","1465.03660798",""
"sujeto_e9306fb7","2","2","29","61","1465.18460298","direct","1","1","1","¿Qué país africano fue 
fundado por esclavos?","Liberia","Chad","","0","0","0","individual","right","0.409497976303","1465.59420085","4.5905020237","1470.34177494","5.27620601654","1475.61803794","0.723793983459","1476.37669683","1478.36834788","1478.41094589","1481.41387892","0","1481.42809796","1489.41888905",""
"sujeto_e9306fb7","2","2","30","62","1489.54664803","inverse","4","1","2","¿A cuánto asciende la cima
 del monte Everest?","7.990 mts","8.848 mts","","0","0","1","competitive","right","0.881410121918","1490.42811203","4.11858987808","1494.70485687","5.85612797737","1500.56102681","0.143872022629","1500.73798084","1501.922822","1502.00432992","1505.00457287","0","1505.02189803","1512.20589304",""
"sujeto_e9306fb7","2","2","31","63","1512.34007382","direct","4","1","1","¿Cuál es el país mas chico?","Sealand","Luxemburgo","","1","1","1","competitive","right","0.908939123154","1513.249089","4.09106087685","1517.49988794","3.73008084297","1521.23000789","2.26991915703","1523.53492785","1525.39840794","1525.46959496","1528.4725709","1","1528.48675799","1531.60905695",""
"sujeto_e9306fb7","2","2","32","64","1531.73872685","inverse","2","1","4","¿Cuántas pirámides hay en Egipto?","10000","11000","","1","1","1","competitive","left","0.201349973679","1531.94014502","4.79865002632","1536.91015983","4.99488091469","1541.90510201","1.00511908531","1542.94547701","1543.97901487","1544.06283784","1547.06582999","1","1547.07993889","1552.18900084",""
"sujeto_e9306fb7","2","3","1","65","1669.25802898","direct","2","1","2","¿Cuál es el quinto país con 
mas extensión?","Canadá","Brasil","","1","1","0","competitive","left","1.87990498543","1671.13799882","3.12009501457","1674.41544795","3.76941084862","1678.18490291","2.23058915138","1680.46494484","1681.798208","1681.88309693","1684.88606787","1","1684.90016198","1692.62650394","1552.20001698"
"sujeto_e9306fb7","2","3","2","66","1692.78803086","inverse","1","1","2","¿Qué rasgo facial no tiene
 la Mona Lisa?","Cejas","Pómulos","","0","0","1","competitive","right","0.661870002747","1693.44994593","4.33812999725","1697.95814204","5.91968488693","1703.87786984","0.0803151130676","1704.01093388","1705.7605679","1705.84387898","1708.84684896","0","1708.86113381","1715.13246799",""
"sujeto_e9306fb7","2","3","3","67","1715.263129","direct","4","1","3","¿Cuál es el país con 
mayor población?","Esados Unidos","China","right","0","0","1","competitive","right","0.801753997803","1716.06492996","4.1982460022","1720.42094803","3.12592816353","1723.54694104","2.87407183647","1726.455899","1728.10190487","1728.17362404","1731.17662287","1","1731.19099188","1734.55832481",""
"sujeto_e9306fb7","2","3","4","68","1734.69238901","inverse","1","1","1","La palabra dinosaurio significa","Lagarto Terrible","Lagarto Dragón","","1","1","0","competitive","","0.833497047424","1735.52599502","4.16650295258","1739.8481319","6","1745.84827495","0","1745.86402297","1747.03435302","1747.11664581","1750.119627","0","1750.13356185","1752.99539495",""
"sujeto_e9306fb7","2","3","5","69","1753.13703489","direct","2","1","3","¿Qué es el membrillero?","Arbol","Arbusto","","0","0","0","competitive","right","1.06976985931","1754.20684791","3.93023014069","1758.30514288","4.26467084885","1762.56985402","1.73532915115","1764.34061694","1766.29471588","1766.37484193","1769.37780905","0","1769.39332104","1775.85685086",""
"sujeto_e9306fb7","2","3","6","70","1775.99436092","inverse","3","1","3","¿Alrededor de qué planeta orbita 
el satélite Europa?","Jupiter","Saturno","","1","1","1","competitive","right","0.856420993805","1776.85085392","4.1435790062","1781.16862798","4.84318900108","1786.01187992","1.15681099892","1787.20448399","1788.74927402","1788.82155585","1791.82454205","1","1791.83886981","1794.04403901",""
"sujeto_e9306fb7","2","3","7","71","1794.17385101","direct","3","1","1","¿Donde fue el mundial de 
fútbol de 1954?","Suiza","Suecia","","1","1","1","competitive","right","0.916955947876","1795.09087491","4.08304405212","1799.31236696","5.8024020195","1805.11483192","0.197597980499","1805.36476088","1806.61737895","1806.69814396","1809.70112681","1","1809.71443582","1813.62620783",""
"sujeto_e9306fb7","2","3","8","72","1813.76827884","inverse","1","1","4","¿Cuál de los 7 enanitos
no tenía barba?","Bashful","Mudito","","1","1","0","competitive","right","0.927474975586","1814.69581985","4.07252502441","1818.92115283","5.32648086548","1824.24766994","0.673519134521","1824.95643997","1826.536551","1826.60675192","1829.60969281","1","1829.624861","1834.55394888",""
"sujeto_e9306fb7","2","3","9","73","1834.69249797","direct","3","1","2","¿Cual red social es
mas utilizada mundialmente?","Instagram","Facebook","","1","1","0","competitive","right","0.76523399353","1835.45777988","4.23476600647","1839.8614409","5.16226291656","1845.02374196","0.837737083435","1845.89846802","1847.81584883","1847.89845991","1850.90054703","1","1850.91593599","1853.84854603",""
"sujeto_e9306fb7","2","3","10","74","1853.98466897","inverse","4","1","1","¿Cuándo se inició la copa
 América de fútbol?","1916","1923","","1","1","1","competitive","left","2.68567299843","1856.67046285","2.31432700157","1859.15850592","4.19119095802","1863.34975791","1.80880904198","1865.21100593","1867.1084969","1867.19501495","1870.19799995","1","1870.21227384","1872.86840487",""
"sujeto_e9306fb7","2","3","11","75","1872.99787593","direct","3","1","4","¿Cuántos presidentes de EEUU
han muerto asesinados?","3","4","","0","0","1","competitive","left","0.906816005707","1873.90476203","4.09318399429","1878.15249395","3.92712807655","1882.07967997","2.07287192345","1884.18644881","1885.67040491","1885.75429702","1888.75728393","0","1888.77142882","1892.41551995",""
"sujeto_e9306fb7","2","3","12","76","1892.55683804","inverse","2","1","4","¿Cuántas veces participó EEUU
 en la copa América?","4","5","","0","0","1","competitive","right","0.803831100464","1893.36072183","4.19616889954","1897.72751904","4.31805896759","1902.04562092","1.68194103241","1903.77853894","1905.2226429","1905.29695582","1908.29992199","0","1908.31334901","1914.43051004",""
"sujeto_e9306fb7","2","3","13","77","1914.56573987","direct","4","1","1","¿Cuál de estos países 
no formaba la URSS?","Azeribayán","Afganistán","","0","0","1","competitive","right","0.95991396904","1915.52569795","4.04008603096","1919.72358489","4.68390583992","1924.40755391","1.31609416008","1925.77557182","1927.08866882","1927.159549","1930.16251493","0","1930.17600083","1938.15814495",""
"sujeto_e9306fb7","2","3","14","78","1938.29524589","inverse","1","1","1","¿En qué año se inauguró
 el teatro Solís?","1867","1856","","0","0","0","competitive","right","1.01394104958","1939.30928898","3.98605895042","1943.45256782","5.06698393822","1948.519593","0.933016061783","1949.50449586","1950.56083298","1950.63760591","1953.64058495","0","1953.65505886","1960.30057788",""
"sujeto_e9306fb7","2","3","15","79","1960.43973899","direct","1","1","4","¿A qué velocidad vuela 
el avión más rápido?","3529","3874","","0","0","0","competitive","right","1.48075008392","1961.92053795","3.51924991608","1965.59756589","4.6629049778","1970.26051593","1.3370950222","1971.64926887","1973.40454602","1973.48234582","1976.48458505","0","1976.50201392","1978.61230087",""
"sujeto_e9306fb7","2","3","16","80","1978.73583198","inverse","3","1","4","¿De qué año es la primer 
película cinematográfica?","1897","1888","","0","0","0","competitive","left","1.04267811775","1979.77857685","3.95732188225","1983.88571787","4.65080904961","1988.53659797","1.34919095039","1989.93871403","1991.07168794","1991.15536284","1994.15833592","0","1994.17256498","1999.58232784",""
"sujeto_e9306fb7","2","3","17","81","1999.7248919","direct","2","1","3","¿Cuántos países 
tiene nuestro planeta?","191","194","","1","1","1","competitive","right","1.4856159687","2001.21058297","3.5143840313","2004.86767602","3.68185400963","2008.54958892","2.31814599037","2010.91836882","2012.27558494","2012.35264182","2015.35561395","1","2015.37048697","2018.60878897",""
"sujeto_e9306fb7","2","3","18","82","2018.73897791","inverse","2","1","2","¿Cuántos habitantes
 tiene Buenos Aires?","2.9000.000","3650000","","0","0","0","competitive","right","3.20446896553","2021.94351792","1.79553103447","2023.89430094","5.9461171627","2029.84050798","0.0538828372955","2029.93004799","2031.327281","2031.41372085","2034.41669893","0","2034.43066788","2040.26006103",""
"sujeto_e9306fb7","2","3","19","83","2040.39646697","direct","2","1","1","¿Cuántos kilos forman una tonelada?","1000","1500","left","1","1","1","competitive","left","0.950040817261","2041.3465879","4.04995918274","2045.55380702","4.95959401131","2050.513448","1.04040598869","2051.58988285","2053.47718","2053.55725002","2056.56023502","1","2056.57430601","2062.52858281",""
"sujeto_e9306fb7","2","3","20","84","2062.67805004","inverse","4","1","4","¿Cuántos estados tiene la 
República del Perú? ","24","23","","0","0","1","competitive","right","0.774426937103","2063.45253396","4.2255730629","2067.83197403","3.57142114639","2071.40344","2.42857885361","2073.88287997","2074.90456104","2074.98337483","2077.98636293","0","2078.00080395","2082.94611788",""
"sujeto_e9306fb7","2","3","21","85","2083.1215179","direct","3","1","3","¿En qué año nació Cristóbal Colón? ","1451","1447","","0","0","1","competitive","left","1.7958688736","2084.91745901","3.2041311264","2088.29383588","3.92678594589","2092.22068691","2.07321405411","2094.32772684","2096.17364597","2096.24587703","2099.24884796","0","2099.26221299","2103.49018383",""
"sujeto_e9306fb7","2","3","22","86","2103.63067293","inverse","4","1","4","¿Cuánto mide la 
Montaña Aconcagua? ","6234","6962","","0","0","1","competitive","right","0.382593870163","2104.01333594","4.61740612984","2108.80501604","5.20069313049","2114.00575304","0.799306869507","2114.85749292","2116.14685488","2116.22386885","2119.22682405","0","2119.24194503","2126.42560697",""
"sujeto_e9306fb7","2","3","23","87","2126.57682085","direct","2","1","4","¿Cuánto mide el punto
 más profundo del océano? ","12508","11003","","0","0","1","competitive","","4.174710989","2130.75157595","0.825289011002","2131.73524904","6","2137.73538399","0","2137.75441885","2139.00592589","2139.08736181","2142.0903399","0","2142.10538793","2146.31165886",""
"sujeto_e9306fb7","2","3","24","88","2146.45683789","inverse","1","1","3","¿Cuántos álbumes ha publicado 
el cantante Jaime Roos? ","41","34","","0","0","1","competitive","right","0.730386972427","2147.187289","4.26961302757","2151.62849689","4.34011387825","2155.96867704","1.65988612175","2157.67874289","2159.16855693","2159.2454679","2162.24846792","0","2162.26270795","2168.45889282",""
"sujeto_e9306fb7","2","3","25","89","2168.59827685","direct","4","1","3","¿En qué año nació el 
ex-presidente Jorge Battle? ","1921","1927","","1","1","1","competitive","left","2.95700883865","2171.55533004","2.04299116135","2173.77121091","5.33530092239","2179.10654402","0.664699077606","2179.81046486","2181.540555","2181.62754297","2184.63053703","1","2184.64499903","2188.13106585",""
"sujeto_e9306fb7","2","3","26","90","2188.26413894","inverse","1","1","3","¿Cuántas presidencias 
constitucionales  hubo en Uruguay? ","41","42","","0","0","1","competitive","left","2.15998315811","2190.42422891","2.84001684189","2193.43670797","0.873507976532","2194.31025481","5.12649202347","2199.48552704","2200.68930888","2200.77227092","2203.775244","0","2203.78938484","2209.57140088",""
"sujeto_e9306fb7","2","3","27","91","2209.70808482","direct","1","1","2","¿Quién escribió mas sinfonías?","Mozart","Haydn","","1","1","0","competitive","left","2.76590394974","2212.47405291","2.23409605026","2214.88051701","2.8396589756","2217.72024584","3.1603410244","2220.93218493","2222.14966893","2222.23431683","2225.23656702","1","2225.25168085","2229.00310087",""
"sujeto_e9306fb7","2","3","28","92","2229.13641191","inverse","4","1","2","¿En qué año nació Michael Jackson?","1958","1953","","1","1","1","competitive","left","0.661295890808","2229.79777384","4.33870410919","2234.30828786","0.367563009262","2234.67589498","5.63243699074","2240.35769296","2242.33594084","2242.41054392","2245.41258287","1","2245.42900896","2251.29133487",""
"sujeto_e9306fb7","2","3","29","93","2251.43002295","direct","3","1","2","¿En qué año entró en vigencia 
la ley antitabaco en Uruguay?","2005","2006","","1","1","1","competitive","left","0.999529838562","2252.42962503","4.00047016144","2256.58746886","4.66138195992","2261.24889302","1.33861804008","2262.62241483","2264.21715403","2264.29003096","2267.29300785","1","2267.30734682","2272.64134383",""
"sujeto_e9306fb7","2","3","30","94","2272.77631402","inverse","3","1","1","¿Cuándo se subió el 
primer video a youtube?","2004","2005","","0","0","1","competitive","left","0.901303052902","2273.67774487","4.0986969471","2277.948349","4.90224313736","2282.85065103","1.09775686264","2284.00072789","2285.30640793","2285.38515687","2288.38813782","0","2288.40229297","2296.15791488",""
"sujeto_e9306fb7","2","3","31","95","2296.32046485","direct","2","1","1","¿Cuántos habitantes tiene India?","1200 millones","1300 millones","","0","0","0","competitive","right","0.789682865143","2297.11027098","4.21031713486","2301.49436998","3.80903506279","2305.30344486","2.19096493721","2307.52940583","2309.49905396","2309.58030391","2312.58328795","0","2312.59836984","2318.64587998",""
"sujeto_e9306fb7","2","3","32","96","2318.80063796","inverse","4","1","2","¿A qué edad murió Bob Marley?","36","37","","0","0","1","competitive","left","0.729261159897","2319.52994394","4.2707388401","2323.95328188","0.663763999939","2324.61708689","5.33623600006","2329.98755789","2331.88542199","2331.97423887","2334.97721887","0","2334.99152088","2338.09399199",""
"sujeto_e9306fb7","2","4","1","97","2463.9639039","direct","2","1","1","¿Cuantos años dirigió la selección 
uruguaya Tabarez?","15 años","13 años","","0","0","0","competitive","left","1.19739794731","2465.16134787","3.80260205269","2469.11882901","3.80467510223","2472.92356396","2.19532489777","2475.17149496","2476.36262083","2476.43873382","2479.44051099","0","2479.45645785","2486.52461791","2338.10552597"
"sujeto_e9306fb7","2","4","2","98","2486.65774584","inverse","4","1","1","¿Cuantas teclas tiene un teclado 
de computadora generalmente? ","Entre 99 y 108","Entre 109 y 113","","1","1","1","competitive","","0.705141067505","2487.36295485","4.2948589325","2491.82818198","6","2497.82832599","0","2497.84431195","2498.84703684","2498.93159294","2501.93256283","0","2501.94878793","2504.32016993",""
"sujeto_e9306fb7","2","4","3","99","2504.48390889","direct","1","1","1","¿Cuál Departamento tiene
 mayor superficie?","Río Negro","Soriano","","0","0","0","competitive","left","1.36043286324","2505.844414","3.63956713676","2509.64259601","3.76189613342","2513.40455294","2.23810386658","2515.6930759","2517.40651083","2517.49237084","2520.49532604","0","2520.51000595","2524.83257794",""
"sujeto_e9306fb7","2","4","4","100","2524.96163893","inverse","3","1","2","¿Cuál es el apellido de las 
hermanastras  de  cenicienta?","Tremaine","Truman","","0","0","1","competitive","right","1.32619380951","2526.28788304","3.67380619049","2530.10338902","3.9135389328","2534.016994","2.0864610672","2536.15358496","2538.0230999","2538.10493684","2541.10793996","0","2541.12305403","2543.81901693",""
"sujeto_e9306fb7","2","4","5","101","2543.95840001","direct","4","1","4","¿Cuál película ganó un
 Oscar a mejor película?","Alto Impacto","Cache","","0","0","1","competitive","left","0.79892706871","2544.75739384","4.20107293129","2549.11207104","3.68238902092","2552.79452682","2.31761097908","2555.1626749","2556.28206801","2556.36402297","2559.3669579","0","2559.38112283","2561.64575386",""
"sujeto_e9306fb7","2","4","6","102","2561.78276682","inverse","1","1","3","¿A cuántos centímetros
equivale la medida pié?","25","30","","0","0","1","competitive","left","1.96615004539","2563.74897099","3.03384995461","2566.95436382","5.18252706528","2572.13695788","0.817472934723","2572.99206996","2574.03206992","2574.10896301","2577.11192703","0","2577.12557602","2582.52654099",""
"sujeto_e9306fb7","2","4","7","103","2582.6757369","direct","2","1","2","¿Qué departamento es mas grande?","Cerro Largo","Paysandú","","0","0","0","competitive","right","0.860422849655","2583.53622985","4.13957715034","2587.83417392","5.84120106697","2593.67543602","0.158798933029","2593.86999798","2595.469769","2595.552881","2598.55584693","0","2598.57093883","2602.68053102",""
"sujeto_e9306fb7","2","4","8","104","2602.821697","inverse","2","1","3","¿Quién pintó la Mona Lisa?","Picasso","Da Vinci","right","0","0","1","","","","","","","","","","","","","","","2607.84098601","2610.00324893",""
"sujeto_e9306fb7","2","4","9","105","2610.14234495","direct","4","1","3","¿Cuántos litros hay en un galon?","3.54","3.78","","1","1","1","competitive","right","2.0684928894","2612.21089101","2.9315071106","2615.31476593","3.62706017494","2618.94186091","2.37293982506","2621.35068893","2622.86857581","2622.95161796","2625.95460892","1","2625.96870995","2631.75658798",""
"sujeto_e9306fb7","2","4","10","106","2631.90695286","inverse","4","1","1","¿Cuántas teclas tiene
 un piano moderno?","80","88","","0","0","1","competitive","right","0.768477916718","2632.67550087","4.23152208328","2637.07467985","4.22769594193","2641.30243683","1.77230405807","2643.10967493","2644.11817098","2644.1944139","2647.19734883","0","2647.21159792","2654.00938201",""
"sujeto_e9306fb7","2","4","11","107","2654.14664602","direct","4","1","3","¿Cuántos países hay en África?","54","62","","0","0","1","competitive","left","0.770085096359","2654.91677785","4.22991490364","2659.28911185","2.48871707916","2661.77788901","3.51128292084","2665.33889294","2667.02854681","2667.10840201","2670.1114049","0","2670.12578797","2677.93055892",""
"sujeto_e9306fb7","2","4","12","108","2678.07757783","inverse","1","1","3","¿En qué siglo se crearon
 las primeras pistolas?","XV","XIII","","1","1","1","individual","left","0.72464299202","2678.80229998","4.27535700798","2683.23555183","4.92778897285","2688.16340685","1.07221102715","2689.2698369","2691.21775293","2691.25413704","2694.25710797","1","2694.27148199","2697.50455689",""
"sujeto_e9306fb7","2","4","13","109","2697.6561029","direct","3","1","4","¿En qué año se estrenó 
la serie friends?","1994","1995","","0","0","1","individual","left","0.048476934433","2697.70465088","4.95152306557","2702.81132603","3.93632793427","2706.74769592","2.06367206573","2708.86379504","2710.73910284","2710.78156686","2713.78458881","0","2713.79859781","2718.80457282",""
"sujeto_e9306fb7","2","4","14","110","2718.98402095","inverse","3","1","4","¿En qué año nació Hitler?","1889","1887","","0","0","1","competitive","left","1.09687995911","2720.08096695","3.90312004089","2724.13902783","2.20395302773","2726.34303689","3.79604697227","2730.19080186","2731.30514693","2731.37578583","2734.37879586","0","2734.392869","2739.41985703",""
"sujeto_e9306fb7","2","4","15","111","2739.59470391","direct","1","1","4","¿Cuánto pesa un elefante Africano?","6000 kilos","5400 kilos","","0","0","0","competitive","left","0.923690080643","2740.51846099","4.07630991936","2744.7518959","5.32454204559","2750.07650685","0.675457954407","2750.78652692","2752.14241982","2752.21997094","2755.22293687","0","2755.23727298","2761.94434595",""
"sujeto_e9306fb7","2","4","16","112","2762.07313395","inverse","1","1","2","¿Qué porcentaje de 
la población es zurda?","10%","7%","","1","1","0","competitive","right","1.04162693024","2763.11483097","3.95837306976","2767.22990084","5.85097408295","2773.08093786","0.149025917053","2773.28216195","2774.52527785","2774.59828687","2777.60124588","1","2777.61638904","2783.59609604",""
"sujeto_e9306fb7","2","4","17","113","2783.73481584","direct","1","1","2","¿En qué año se estrenó
Volver al futuro?","1984","1985","","0","0","1","competitive","left","0.673246860504","2784.40812802","4.3267531395","2788.89103198","3.22218203545","2792.11325192","2.77781796455","2794.94255686","2796.50435305","2796.57733583","2799.58033991","0","2799.59450889","2806.68596601",""
"sujeto_e9306fb7","2","4","18","114","2806.812711","inverse","3","1","2","¿Cuántos jugadores hay en un 
equipo de baseball?","9","8","","1","1","0","competitive","left","1.76881504059","2808.58157182","3.23118495941","2811.97118187","4.51845908165","2816.48968697","1.48154091835","2818.02203202","2819.63626289","2819.72287393","2822.72585988","1","2822.73995185","2827.7171979",""
"sujeto_e9306fb7","2","4","19","115","2827.85810995","direct","2","1","1","¿Cuántos Oscar ganó
 la película titanic?","13","11","","1","1","1","competitive","left","4.58483695984","2832.44299197","0.415163040161","2833.01484585","4.94008684158","2837.95499992","1.05991315842","2839.0677669","2840.36981082","2840.45084786","2843.45383596","1","2843.468117","2848.07080984",""
"sujeto_e9306fb7","2","4","20","116","2848.23637199","inverse","4","1","4","¿En qué año comenzó
la segunda guerra mundial?","1939","1976","left","0","0","1","competitive","left","0.632781982422","2848.86921883","4.36721801758","2853.40858984","4.00165009499","2857.41027999","1.99834990501","2859.46061587","2861.26048303","2861.34505582","2864.34805083","1","2864.36239982","2868.34955382",""
"sujeto_e9306fb7","2","4","21","117","2868.48004484","direct","2","1","4","¿Cuántos biomas hay en Uruguay?","5","4","","0","0","1","individual","left","0.405196905136","2868.88531995","4.59480309486","2873.63613391","2.83645391464","2876.47262883","3.16354608536","2879.68734694","2881.48464799","2881.52182484","2884.52475286","0","2884.53983188","2890.78859687",""
"sujeto_e9306fb7","2","4","22","118","2890.92451882","inverse","2","1","3","¿Cuándo murió Pablo Escobar?","1993","1997","","1","1","1","competitive","left","0.690245866776","2891.61481285","4.30975413322","2896.06446385","4.27247190475","2900.33699393","1.72752809525","2902.11644983","2903.89925694","2903.9841609","2906.98716092","1","2907.00117183","2912.70485592",""
"sujeto_e9306fb7","2","4","23","119","2912.83685088","direct","1","1","4","¿Qué serie ha ganado mas premios?","Friends","Murphy Brown","","1","1","0","competitive","left","2.12336587906","2914.96029282","2.87663412094","2917.99366498","5.69557714462","2923.68928194","0.304422855377","2924.02935696","2925.38177586","2925.46292901","2928.46591091","1","2928.47933483","2934.04057288",""
"sujeto_e9306fb7","2","4","24","120","2934.18174601","inverse","4","1","2","¿Cuántas fichas tiene el dominó?","26","28","","1","1","1","competitive","right","0.898772001266","2935.08059001","4.10122799873","2939.33754301","3.75098705292","2943.08858991","2.24901294708","2945.38860488","2946.44393396","2946.52287388","2949.52457094","1","2949.54091883","2954.78054404",""
"sujeto_e9306fb7","2","4","25","121","2954.92588997","direct","2","1","4","¿Cuántos son los dientes de leche?","20","25","","0","0","1","competitive","left","0.974879026413","2955.9008379","4.02512097359","2960.08212996","0.630660772324","2960.71284485","5.36933922768","2966.11469102","2967.8250649","2967.90128088","2970.90426898","0","2970.91852689","2973.06423903",""
"sujeto_e9306fb7","2","4","26","122","2973.20383","inverse","3","1","3","¿Cuántos gramos son una onza?","22","28","","0","0","1","competitive","left","0.797109127045","2974.00100303","4.20289087296","2978.37422395","3.90085291862","2982.27514195","2.09914708138","2984.42651892","2986.42135286","2986.49431205","2989.49729681","0","2989.51136804","2995.80162501",""
"sujeto_e9306fb7","2","4","27","123","2995.979954","direct","3","1","1","¿Cuándo salió el primer album
 de los Beatles?","1963","1962","","1","1","1","competitive","left","0.977366924286","2996.95739889","4.02263307571","3001.13556004","2.95874404907","3004.0943439","3.04125595093","3007.18622303","3008.34985185","3008.42144489","3011.42437387","1","3011.43867898","3015.21072102",""
"sujeto_e9306fb7","2","4","28","124","3015.35680199","inverse","3","1","3","¿Quién fundó la empresa apple?","Carlos Slim","Steve Jobs","","1","1","1","competitive","right","0.777777194977","3016.13464999","4.22222280502","3020.51389384","4.48475599289","3024.99871492","1.51524400711","3026.56528997","3027.67994189","3027.76600289","3030.76893902","1","3030.783149","3037.08097792",""
"sujeto_e9306fb7","2","4","29","125","3037.25166583","direct","4","1","2","¿Cuántos municipios hay
 en Montevideo?","8","7","","1","1","1","competitive","left","0.818203926086","3038.06991887","4.18179607391","3042.39214182","3.35477089882","3045.74695992","2.64522910118","3048.44330502","3050.35808897","3050.44415498","3053.44714904","1","3053.46231103","3055.54346204",""
"sujeto_e9306fb7","2","4","30","126","3055.68028188","inverse","1","1","1","¿Cuántos kilómetros hay
 de Montevideo a Artigas?","632","599","","0","0","0","competitive","left","3.06381392479","3058.74416089","1.93618607521","3060.84714389","5.33301305771","3066.18022394","0.666986942291","3066.88723183","3068.37039495","3068.45339799","3071.45636582","0","3071.47057486","3077.52268386",""
"sujeto_e9306fb7","2","4","31","127","3077.68962884","direct","2","1","2","¿En qué año nació 
Leonardo Da Vinci?","1452","1511","","1","1","0","competitive","left","1.48266792297","3079.17236781","3.51733207703","3082.83030486","3.15109705925","3085.98146892","2.84890294075","3088.88113904","3090.73475385","3090.81544399","3093.81840491","1","3093.83435488","3096.98076081",""
"sujeto_e9306fb7","2","4","32","128","3097.11815691","inverse","3","1","1","¿A qué continente
 pertenece el país Gabón?","Africa","Oceanía","","0","0","1","","","","","","","","","","","","","","","3102.14079094","3107.37867999",""
