"code","nro_aplicante","nro_bloque","nro_trial_bloque","nro_trial_global","show_game_type","choice_order","rival","pay_individual","pay_competitive","question","answer_left_text","answer_right_text","correct_answer","outcome_individual","outcome_competitive","outcome_rival","game_type","answer","social_time","rt_game_type","feedback_delay","show_question","answer_time","rt_answer_global","feedback_delay_2","show_jitter","jitter_time","show_outcome","outcome_time","outcome_participant_real","show_final_jitter","second_jitter_time","inicio_descanso"
"sujeto_e29aeec5","1","1","1","1","341.927675962","direct","3","1","4","¿Cuántos centímetros corresponden
al talle 36 del calzado?","23","24","","0","0","1","competitive","left","2.89679598808","344.824537039","2.10320401192","347.109854937","5.37563586235","352.485557079","0.62436413765","353.145545959","354.173789024","354.245909929","357.248863935","0","357.263622046","359.424496889",""
"sujeto_e29aeec5","1","1","2","2","359.565510988","inverse","3","1","2","¿Cuántas metros mide la Intendencia
Municipal de Montevideo? ","84","78","","0","0","1","competitive","right","2.79610300064","362.361687899","2.20389699936","364.72241497","4.55923986435","369.281712055","1.44076013565","370.757344961","372.635374069","372.708010912","375.710989952","0","375.726233006","377.818994999",""
"sujeto_e29aeec5","1","1","3","3","377.961106062","direct","1","1","3","¿Cuántas La Pasiva
 hay en uruguay?","15","11","","1","1","1","competitive","left","3.27472901344","381.235878944","1.72527098656","383.114067078","3.74075317383","386.854877949","2.25924682617","389.167032957","390.778702974","390.850914955","393.853861094","1","393.868825912","398.147161961",""
"sujeto_e29aeec5","1","1","4","4","398.286794901","inverse","3","1","3","¿De que color es la camiseta de uruguay?","blanca","celeste","right","1","1","1","competitive","right","1.27424502373","399.561089039","3.72575497627","403.441975117","3.78516101837","407.227202892","2.21483898163","409.492738008","410.697510004","410.777064085","413.780010939","1","413.794270992","417.248162031",""
"sujeto_e29aeec5","1","1","5","5","417.380259991","direct","2","1","1","¿Cuánto metros mide
la torre Eiffel?","333","324","","1","1","1","competitive","left","1.33819794655","418.718504906","3.66180205345","422.519710064","3.26466012001","425.784459114","2.73533987999","428.569696903","430.091126919","430.171864986","433.174842119","1","433.188925982","440.225624084",""
"sujeto_e29aeec5","1","1","6","6","440.390320063","inverse","3","1","4","¿Cuantas ciudades existen
 en todo el uruguay?","63","72","","0","0","1","competitive","left","3.66319918633","444.053561926","1.33680081367","445.564706087","3.4908850193","449.055649996","2.5091149807","451.616117954","452.670938969","452.751219034","455.754198074","0","455.768234968","463.394820929",""
"sujeto_e29aeec5","1","1","7","7","463.535972118","direct","1","1","1","¿Cuantos estados tiene África?","52","54","","1","1","0","competitive","left","2.36281609535","465.898855925","2.63718390465","468.709614038","3.08913111687","471.798805952","2.91086888313","474.761470079","476.625468016","476.696454048","479.699434996","1","479.713395119","485.474412918",""
"sujeto_e29aeec5","1","1","8","8","485.615546942","inverse","4","1","4","¿En qué año nació
 Stephen Hawking?","1952","1942","","0","0","1","competitive","left","1.99553990364","487.611206055","3.00446009636","490.785119057","2.75599503517","493.541152954","3.24400496483","496.838762045","498.283046961","498.357867002","501.36085701","0","501.375082016","507.474446058",""
"sujeto_e29aeec5","1","1","9","9","507.609795094","direct","2","1","3","¿Cuánto años tenía Artigas
 cuando se fue a Paraguay?","56","57","","1","1","1","competitive","left","1.45947504044","509.069339037","3.54052495956","512.783857107","3.44847106934","516.232387066","2.55152893066","518.833859921","520.383368969","520.469672918","523.472652912","1","523.485968113","529.533248901",""
"sujeto_e29aeec5","1","1","10","10","529.671143055","inverse","1","1","2","¿Cuantos milímetros 
mide una hoja A2?","420x592","420x594","","0","0","1","competitive","left","2.37826800346","532.049453974","2.62173199654","534.828969002","3.02056598663","537.849571943","2.97943401337","540.87993598","542.448367119","542.531420946","545.534430027","0","545.54873395","552.620568037",""
"sujeto_e29aeec5","1","1","11","11","552.766845942","direct","3","1","3","¿Cuál es la menor temperatura 
registrada en Uruguay?","-5.4","-7.4","","0","0","1","competitive","left","2.60292482376","555.3698349","2.39707517624","557.939524889","3.87721300125","561.816771984","2.12278699875","563.975166082","565.656522036","565.727057934","568.730005026","0","568.744074106","572.47736907",""
"sujeto_e29aeec5","1","1","12","12","572.61222291","inverse","2","1","2","¿Cuantos años hace que 
se fundó facebook?","18","17","","0","0","0","competitive","right","1.75866889954","574.37093091","3.24133110046","577.768002033","3.93099713326","581.699058056","2.06900286674","583.818221092","585.190937042","585.269207001","588.272181988","0","588.286145926","591.060801029",""
"sujeto_e29aeec5","1","1","13","13","591.188105106","direct","1","1","4","¿Cuál animal es más
 pesado en promedio?","Rinoceronte","Hipopotamo","","0","0","0","competitive","right","2.87606310844","594.06426692","2.12393689156","596.357685089","3.77445912361","600.132200956","2.22554087639","602.462585926","603.541809082","603.613063097","606.616069078","0","606.630302906","610.47125411",""
"sujeto_e29aeec5","1","1","14","14","610.599056005","inverse","1","1","2","¿Qué personaje de dragon ball 
murió más veces?","Chaoz","Krillin","","1","1","0","competitive","left","1.32727694511","611.926376104","3.67272305489","615.754667044","3.83267998695","619.587404966","2.16732001305","621.805141926","623.262960911","623.339967966","626.342948914","1","626.357191086","634.128525972",""
"sujeto_e29aeec5","1","1","15","15","634.258562088","direct","3","1","2","La universidad de oxford. 
existe desde:","1096","1249","","1","1","0","competitive","left","1.08711600304","635.345752954","3.91288399696","639.416789055","3.58089399338","642.99774909","2.41910600662","645.467498064","646.51628089","646.585841894","649.588813066","1","649.602876902","656.293695927",""
"sujeto_e29aeec5","1","1","16","16","656.420388937","inverse","3","1","1","¿Qué escritor latino ganó antes
 el premio nobel?"," García Marquez","Neruda","","0","0","1","competitive","right","2.34448003769","658.764933109","2.65551996231","661.575195074","3.86270904541","665.437942982","2.13729095459","667.613576889","669.353579998","669.431118011","672.432566881","0","672.448616028","675.909136057",""
"sujeto_e29aeec5","1","1","17","17","676.033097982","direct","4","1","3","¿Cuántos dientes tiene un
 tiburón blanco?","6000","3000","","0","0","1","individual","right","2.47695803642","678.510098934","2.52304196358","681.204251051","3.60279798508","684.807104111","2.39720201492","687.256545067","688.295553923","688.341444969","691.344378948","0","691.358406067","696.168028116",""
"sujeto_e29aeec5","1","1","18","18","696.292778015","inverse","4","1","1","¿Cuánto mide el paralelo Ecuador?","40.000km","70.000km","","0","0","1","competitive","right","3.184486866","699.477365971","1.815513134","701.466022015","2.70828795433","704.174350977","3.29171204567","707.516520023","709.472565889","709.551882029","712.554860115","0","712.569994926","716.17256093",""
"sujeto_e29aeec5","1","1","19","19","716.354506969","direct","4","1","2","¿Cuál fue el primer libro 
de Stephen King?","Carrie","The Stand","","1","1","1","competitive","right","2.25596284866","718.610532999","2.74403715134","721.527247906","3.52329111099","725.050582886","2.47670888901","727.575896978","729.320002079","729.39289999","732.39586997","1","732.410126925","736.884536982",""
"sujeto_e29aeec5","1","1","20","20","737.012615919","inverse","2","1","3","¿Qué civilización practicaba
 la momificación?","Grecia","Egipto","right","0","0","1","competitive","right","1.07906103134","738.091758966","3.92093896866","742.169073105","3.29764199257","745.466758966","2.70235800743","748.219763994","750.159060001","750.238985062","753.240561962","1","753.256864071","757.485631943",""
"sujeto_e29aeec5","1","1","21","21","757.624434948","direct","4","1","4","¿Cuántos millones de visitas
 recibe google por minuto?","3.0","4.5","","0","0","1","competitive","left","1.08148884773","758.70599103","3.91851115227","762.797478914","3.46039891243","766.257915974","2.53960108757","768.831841946","770.346736908","770.416593075","773.41958189","0","773.43383503","780.556523085",""
"sujeto_e29aeec5","1","1","22","22","780.685765028","inverse","1","1","3","La máquina de fax. se inventó en:","1843","1960","","0","0","1","competitive","right","1.22126412392","781.907078981","3.77873587608","785.826534033","3.13461709023","788.961210012","2.86538290977","791.877624989","793.119735003","793.200508118","796.203444004","0","796.212486982","799.448792934",""
"sujeto_e29aeec5","1","1","23","23","799.581083059","direct","2","1","4","En la verdadera historia de los
 300 espartanos. habían:","300 soldados","4300 soldados","","1","1","1","competitive","right","1.79023504257","801.371361017","3.20976495743","804.753573895","3.71576786041","808.469434023","2.28423213959","810.803812027","812.065042973","812.13804698","815.141032934","1","815.15496397","818.956736088",""
"sujeto_e29aeec5","1","1","24","24","819.090552092","inverse","1","1","4","¿Cuántos milímetros crece
 el pelo por día?","0.4","0.04","","0","0","0","competitive","left","1.7939209938","820.884516954","3.2060790062","824.2480371","3.76947593689","828.017580986","2.23052406311","830.298533916","832.059277058","832.13284111","835.135809898","0","835.150177956","841.885273933",""
"sujeto_e29aeec5","1","1","25","25","842.019037962","direct","4","1","1","¿Cuánto mide la baldosa gris 
clásica de Montevideo?","22x22 cm.","20x20 cm.","","1","1","1","competitive","left","1.37067985535","843.389785051","3.62932014465","847.192307949","3.35539579391","850.547759056","2.64460420609","853.243483067","855.238687038","855.310583115","858.313582897","1","858.328932047","863.871705055",""
"sujeto_e29aeec5","1","1","26","26","864.012892008","inverse","2","1","2","¿Cuántas películas de rápidos
 y furiosos hay?","10","11","","1","1","0","competitive","left","0.956171035767","864.969135046","4.04382896423","869.15328002","3.2596449852","872.41298604","2.7403550148","875.187810898","876.545772076","876.62215209","879.625140905","1","879.639143944","881.672483921",""
"sujeto_e29aeec5","1","1","27","27","881.807687998","direct","3","1","1","¿Cuántos masters 1000
 ganó Del Potro?","1","2","","1","1","1","competitive","right","1.26737308502","883.075103045","3.73262691498","886.958686113","3.24237203598","890.201096058","2.75762796402","892.993710041","894.748281956","894.828371048","897.831338882","1","897.845666885","905.240515947",""
"sujeto_e29aeec5","1","1","28","28","905.380470991","inverse","2","1","4","¿Cuántos meses dura el 
embarazo de una leona?","3 meses","4 meses","","0","0","1","competitive","right","1.04986906052","906.430392981","3.95013093948","910.542613029","4.51772117615","915.060370922","1.48227882385","916.593523979","917.704552889","917.777441025","920.780380011","0","920.794641972","927.51651597",""
"sujeto_e29aeec5","1","1","29","29","927.647202969","direct","1","1","1","¿En qué año fue creado
 el sandwich?","1762","1653","","1","1","0","competitive","right","0.949333906174","928.596611977","4.05066609383","932.821245909","4.25628304482","937.077569008","1.74371695518","938.872170925","940.470673084","940.539170027","943.540503025","1","943.5567379","947.027403116",""
"sujeto_e29aeec5","1","1","30","30","947.157890081","inverse","4","1","2","El nombre de la moneda de Vietnam es:","Dinar","Dong","","0","0","1","competitive","right","2.68181109428","949.839751005","2.31818890572","952.329432011","4.01029491425","956.339766026","1.98970508575","958.365770102","959.796597958","959.866858959","962.869844913","0","962.883920908","969.052361012",""
"sujeto_e29aeec5","1","1","31","31","969.185075045","direct","2","1","1","¿cuantos aleteos puede dar 
un colibrí por segundo?","120","50","","0","0","0","competitive","right","1.07680797577","970.261925936","3.92319202423","974.34068203","2.93525195122","977.275990963","3.06474804878","980.392430067","982.12449789","982.194013119","985.196928024","0","985.210975885","989.423207045",""
"sujeto_e29aeec5","1","1","32","32","989.562581062","inverse","4","1","3","¿Qué altura promedio tienen
 los hombres uruguayos?","1.73 m","1.72 m","","1","1","1","competitive","left","1.10513091087","990.667869091","3.89486908913","994.719310045","4.08682608604","998.806194067","1.91317391396","1000.7714169","1002.03382993","1002.10513711","1005.10809398","1","1005.12237501","1009.59824109",""
"sujeto_e29aeec5","1","2","1","33","1127.42185211","direct","1","1","1","¿En qué año nació 
el actor Bradd Pitt?","1967","1963","","1","1","1","competitive","right","1.7065320015","1129.12845302","3.2934679985","1132.57562804","3.12675499916","1135.70241904","2.87324500084","1138.60869408","1139.70451093","1139.77756405","1142.78055","1","1142.7938211","1148.72137308","1009.60963511"
"sujeto_e29aeec5","1","2","2","34","1148.86269307","inverse","2","1","1","¿Cual es el segundo 
monte más alto?","Kanchenjunga","K2","","1","1","1","competitive","right","0.834944009781","1149.69776511","4.16505599022","1154.01961589","4.26396799088","1158.28363991","1.73603200912","1160.05412102","1161.50645208","1161.58878493","1164.59172511","1","1164.60596991","1168.03582311",""
"sujeto_e29aeec5","1","2","3","35","1168.17397809","direct","3","1","1","¿Cuándo finalizó la construcción
 del Palacio Legislativo?","1925","1917","","0","0","1","competitive","right","1.07481312752","1169.24886799","3.92518687248","1173.32770801","4.08903288841","1177.41679811","1.91096711159","1179.3800869","1181.0217731","1181.09812307","1184.10109591","0","1184.11501789","1189.80857205",""
"sujeto_e29aeec5","1","2","4","36","1189.93310499","inverse","3","1","3","¿Cuántos integrantes tenía
 en su inicio  el cuarteto de nos?","3","4","","1","1","1","competitive","left","0.826902151108","1190.76005006","4.17309784889","1195.09105611","5.02590298653","1200.11702299","0.974097013474","1201.12577295","1202.25884795","1202.34348392","1205.34647107","1","1205.36082697","1211.01064396",""
"sujeto_e29aeec5","1","2","5","37","1211.14548492","direct","2","1","3","¿Qué valor tiene el número pi?","3.14","4.18","left","0","0","1","individual","right","0.756748914719","1211.90236998","4.24325108528","1216.30261397","4.43556499481","1220.73824","1.56443500519","1222.34858894","1223.80280209","1223.84879494","1226.85176301","0","1226.86578393","1233.78677511",""
"sujeto_e29aeec5","1","2","6","38","1233.91771007","inverse","2","1","2","¿Cuál es la esperanza de vida
 en Uruguay?","75","77","","1","1","0","competitive","right","1.21366596222","1235.1314199","3.78633403778","1239.09744","4.07091593742","1243.16843009","1.92908406258","1245.1485889","1246.80238795","1246.88319612","1249.8861959","1","1249.90019894","1256.36324501",""
"sujeto_e29aeec5","1","2","7","39","1256.50134611","direct","1","1","2","¿Cuantos pisos tiene la torre 
de las comunicaciones?","26","32","","1","1","0","competitive","left","2.35522913933","1258.85661793","2.64477086067","1261.64361906","4.63796591759","1266.28163099","1.36203408241","1267.69482899","1269.52359509","1269.59515905","1272.59813595","1","1272.61322904","1274.75945401",""
"sujeto_e29aeec5","1","2","8","40","1274.89785004","inverse","2","1","4","¿En qué país sudamericano 
no hay McDonalds?","Bolivia","Venezuela","","0","0","1","competitive","right","1.63292813301","1276.53082395","3.36707186699","1280.05278492","3.83102989197","1283.88387489","2.16897010803","1286.10108304","1287.41045403","1287.48628592","1290.48926711","0","1290.50359893","1296.86331511",""
"sujeto_e29aeec5","1","2","9","41","1296.98840189","direct","3","1","1","¿En qué año empieza
 la Edad Media?","476","512","","1","1","1","competitive","left","1.63053011894","1298.61899805","3.36946988106","1302.14804101","4.87697100639","1307.02505803","1.12302899361","1308.18245912","1309.58623195","1309.66602707","1312.66897798","1","1312.68382812","1315.67237806",""
"sujeto_e29aeec5","1","2","10","42","1315.81838989","inverse","3","1","4","¿Hace cuántos años surgió
 el ser humano?","200mil","300mil","","0","0","0","competitive","right","1.19571185112","1317.014148","3.80428814888","1320.97350192","4.33662295341","1325.31019306","1.66337704659","1327.02537298","1328.91138911","1328.99215889","1331.99512601","0","1332.01017404","1335.32052588",""
"sujeto_e29aeec5","1","2","11","43","1335.46158695","direct","3","1","4","¿Cuántas cuadras tiene
 actualmente 18 de julio? ","36","33","","0","0","1","competitive","right","1.27139496803","1336.73306704","3.72860503197","1340.62883401","4.41541790962","1345.0443151","1.58458209038","1346.6641221","1348.366395","1348.44884396","1351.45182896","0","1351.46613908","1356.19245505",""
"sujeto_e29aeec5","1","2","12","44","1356.31779504","inverse","1","1","4","¿Qué juego de equipo se 
considera mas rápido?","Lacrosse","Badminton","","0","0","0","competitive","left","1.26764702797","1357.58549404","3.73235297203","1361.47796392","5.10156488419","1366.57958889","0.898435115814","1367.5302","1368.77331591","1368.84689689","1371.84987092","0","1371.86415792","1379.85926199",""
"sujeto_e29aeec5","1","2","13","45","1379.9991219","direct","1","1","3","¿Qué promedio de edad 
vive una jirafa? ","25","20","","0","0","1","competitive","right","1.39158606529","1381.39075398","3.60841393471","1385.15797806","4.44174098969","1389.59976006","1.55825901031","1391.19217896","1392.95252109","1393.02563596","1396.02860594","0","1396.04340005","1401.999125",""
"sujeto_e29aeec5","1","2","14","46","1402.13134694","inverse","1","1","2","¿Cuántos grandes lagos hay?","7","5","","0","0","1","competitive","right","0.900543928146","1403.03196096","4.09945607185","1407.3022449","3.83563089371","1411.13793397","2.16436910629","1413.35309792","1414.64451194","1414.7215569","1417.72454","0","1417.73846602","1425.55986691",""
"sujeto_e29aeec5","1","2","15","47","1425.69015598","direct","3","1","2","¿Cuántos discos de estudio
 grabó Johhny Cash? ","54","43","","1","1","0","competitive","right","1.41395688057","1427.10415912","3.58604311943","1430.84790301","4.18717193604","1435.03513408","1.81282806396","1436.89916897","1438.17781091","1438.26740503","1441.268538","1","1441.28460312","1447.93479896",""
"sujeto_e29aeec5","1","2","16","48","1448.06948209","inverse","4","1","1","¿Cuántos barrios tiene
 Montevideo? ","71","62","","0","0","1","competitive","left","1.88784193993","1449.95736909","3.11215806007","1453.24175191","4.26449203491","1457.506284","1.73550796509","1459.29221296","1460.29925394","1460.37838888","1463.38135791","0","1463.39555407","1468.85757303",""
"sujeto_e29aeec5","1","2","17","49","1468.99662495","direct","3","1","3","¿Qué edad tiene Homero Simpson?","36","42","","0","0","1","competitive","right","2.23881292343","1471.23548603","2.76118707657","1474.15479112","3.46465706825","1477.61951303","2.53534293175","1480.18891406","1481.56495905","1481.63961005","1484.64259291","0","1484.65685701","1489.04559207",""
"sujeto_e29aeec5","1","2","18","50","1489.17569804","inverse","4","1","2","¿Cuántos países con monarquía 
hay en europa actualmente? ","6","10","","1","1","1","competitive","right","0.948971986771","1490.1247139","4.05102801323","1494.33113694","3.87753391266","1498.20873094","2.12246608734","1500.36539507","1501.8036499","1501.88298893","1504.88456607","1","1504.90055609","1511.05737495",""
"sujeto_e29aeec5","1","2","19","51","1511.18543196","direct","2","1","3","¿Cuántos capítulos de
 Friends existen? ","236","228","","1","1","1","competitive","left","1.27342700958","1512.45895791","3.72657299042","1516.34331107","2.98556399345","1519.32891798","3.01443600655","1522.39440989","1523.69998002","1523.77836204","1526.78134704","1","1526.79538012","1529.17101789",""
"sujeto_e29aeec5","1","2","20","52","1529.31311798","inverse","1","1","3","¿Cuántas óperas compuso Mozart? ","27","22","","1","1","1","competitive","left","0.925870895386","1530.23905706","4.07412910461","1534.48517394","3.25881385803","1537.74403","2.74118614197","1540.51975393","1541.81190395","1541.88724089","1544.89021802","1","1544.904392","1552.21591592",""
"sujeto_e29aeec5","1","2","21","53","1552.35665011","direct","4","1","3","¿Cuántos mundiales de fútbol 
femenino ha realizado FIFA? ","9","7","","1","1","1","competitive","right","1.55752801895","1553.91422296","3.44247198105","1557.51470208","3.35759496689","1560.87233591","2.64240503311","1563.56506705","1564.808532","1564.88312101","1567.88612008","1","1567.90035105","1574.00281",""
"sujeto_e29aeec5","1","2","22","54","1574.13541698","inverse","3","1","2","¿Cuál es la temperatura 
media anual en Montevideo? ","17.5","16.3","","0","0","1","competitive","right","2.94400286674","1577.07948303","2.05599713326","1579.30899","4.52449393272","1583.83354497","1.47550606728","1585.36129904","1587.29990697","1587.3778801","1590.38086605","0","1590.39599204","1596.96549606",""
"sujeto_e29aeec5","1","2","23","55","1597.09739709","direct","2","1","2","¿En qué año se estrenó el
 videojuego The Sims? ","2000","2002","","0","0","0","competitive","right","3.16022706032","1600.25768995","1.83977293968","1602.254601","3.69305682182","1605.94771791","2.30694317818","1608.28889704","1610.15092707","1610.22409296","1613.22707605","0","1613.24116492","1620.63483",""
"sujeto_e29aeec5","1","2","24","56","1620.79315305","inverse","2","1","1","¿Cuál es la canción con 
mas covers? ","Yesterday","Stand by me","","0","0","0","competitive","right","2.74965906143","1623.54287791","2.25034093857","1625.97924089","4.05756807327","1630.0368669","1.94243192673","1632.03478909","1633.43249607","1633.50254202","1636.50551701","0","1636.51954794","1640.69037795",""
"sujeto_e29aeec5","1","2","25","57","1640.82162809","direct","1","1","4","¿Cuánto duró la guerra
 de los 100 años?","116","123","","0","0","0","competitive","left","1.23541402817","1642.05710793","3.76458597183","1645.993963","4.32501983643","1650.31903791","1.67498016357","1652.0279119","1653.50873399","1653.57927608","1656.582268","0","1656.59667301","1658.91647911",""
"sujeto_e29aeec5","1","2","26","58","1659.04780793","inverse","4","1","4","¿Qué color tiene la  bandera de Brasil?","Amarillo","Naranja","left","0","0","1","competitive","left","1.21430397034","1660.26216102","3.78569602966","1664.21995997","3.35820388794","1667.57820201","2.64179611206","1670.27051592","1671.83705401","1671.9224031","1674.92455292","1","1674.93958497","1677.97236109",""
"sujeto_e29aeec5","1","2","27","59","1678.10812998","direct","4","1","3","¿Qué carabela de 
Colon no volvió del viaje?","Santa María","La pinta","","0","0","1","competitive","left","1.07326388359","1679.18144393","3.92673611641","1683.27824497","4.68612003326","1687.96440411","1.31387996674","1689.33140111","1690.82245803","1690.89802504","1693.90101695","0","1693.91608596","1696.01555395",""
"sujeto_e29aeec5","1","2","28","60","1696.15011597","inverse","4","1","4","¿Cuántos huesos tiene
 un adulto humano?","217","206","","0","0","1","competitive","right","0.996422052383","1697.14658999","4.00357794762","1701.32213306","3.82137513161","1705.1435461","2.17862486839","1707.36986208","1708.6408689","1708.72090006","1711.72389197","0","1711.73828912","1719.57599497",""
"sujeto_e29aeec5","1","2","29","61","1719.73988509","direct","1","1","1","¿Qué país africano fue 
fundado por esclavos?","Liberia","Chad","","0","0","0","competitive","left","1.07779097557","1720.81774092","3.92220902443","1724.88485289","4.53086304665","1729.41577411","1.46913695335","1730.93643594","1732.92806911","1733.00358105","1736.00653601","0","1736.02144694","1744.00858498",""
"sujeto_e29aeec5","1","2","30","62","1744.13961911","inverse","4","1","2","¿A cuánto asciende la cima
 del monte Everest?","7.990 mts","8.848 mts","","0","0","1","competitive","left","1.76023197174","1745.89992189","3.23976802826","1749.33115005","3.73477911949","1753.06598592","2.26522088051","1755.38246298","1756.56728411","1756.65081906","1759.65381002","0","1759.6677711","1766.85179806",""
"sujeto_e29aeec5","1","2","31","63","1766.98412895","direct","4","1","1","¿Cuál es el país mas chico?","Sealand","Luxemburgo","","1","1","1","competitive","left","1.24893784523","1768.2331109","3.75106215477","1772.17676806","2.90933203697","1775.08615994","3.09066796303","1778.22708607","1780.09061408","1780.17851305","1783.1815021","1","1783.19658995","1786.31887102",""
"sujeto_e29aeec5","1","2","32","64","1786.46480393","inverse","2","1","4","¿Cuántas pirámides hay en Egipto?","10000","11000","","1","1","1","competitive","left","0.959482908249","1787.42435598","4.04051709175","1791.6530931","3.04126906395","1794.69442892","2.95873093605","1797.70360589","1798.73720598","1798.82173991","1801.824687","1","1801.83897495","1806.94804406",""
"sujeto_e29aeec5","1","3","1","65","1918.26596594","direct","2","1","2","¿Cuál es el quinto país con 
mas extensión?","Canadá","Brasil","","1","1","0","competitive","right","1.12346291542","1919.3894701","3.87653708458","1923.42219901","3.47427797318","1926.89653611","2.52572202682","1929.45686793","1930.790169","1930.87453604","1933.87655497","1","1933.89185405","1941.61654997","1806.95931911"
"sujeto_e29aeec5","1","3","2","66","1941.74358106","inverse","1","1","2","¿Qué rasgo facial no tiene
 la Mona Lisa?","Cejas","Pómulos","","0","0","1","competitive","right","1.07214617729","1942.81585097","3.92785382271","1946.90166998","3.88996982574","1950.79169798","2.11003017426","1952.95252895","1954.70293498","1954.78653193","1957.78850603","0","1957.80465388","1964.075984",""
"sujeto_e29aeec5","1","3","3","67","1964.23954701","direct","4","1","3","¿Cuál es el país con 
mayor población?","Esados Unidos","China","right","0","0","1","competitive","right","1.57231807709","1965.8119421","3.42768192291","1969.39629412","3.60659003258","1973.00294304","2.39340996742","1975.44682598","1977.09279108","1977.18171191","1980.18470192","1","1980.19871998","1983.56603289",""
"sujeto_e29aeec5","1","3","4","68","1983.70069695","inverse","1","1","1","La palabra dinosaurio significa","Lagarto Terrible","Lagarto Dragón","","1","1","0","competitive","left","1.07234692574","1984.77308798","3.92765307426","1988.85649896","4.87355804443","1993.73011398","1.12644195557","1994.89082503","1996.06055903","1996.1417141","1999.14469695","1","1999.15900302","2002.02082705",""
"sujeto_e29aeec5","1","3","5","69","2002.16224599","direct","2","1","3","¿Qué es el membrillero?","Arbol","Arbusto","","0","0","0","competitive","left","1.15090703964","2003.31321406","3.84909296036","2007.31674695","3.76346707344","2011.08027506","2.23653292656","2013.3499999","2015.30409503","2015.38425207","2018.38720798","0","2018.40241909","2024.86644506",""
"sujeto_e29aeec5","1","3","6","70","2025.00426602","inverse","3","1","3","¿Alrededor de qué planeta orbita 
el satélite Europa?","Jupiter","Saturno","","1","1","1","competitive","right","3.99210190773","2028.99646497","1.00789809227","2030.1465559","4.74787592888","2034.89447594","1.25212407112","2036.19674397","2037.74153304","2037.81385803","2040.81652594","1","2040.83155107","2043.03669095",""
"sujeto_e29aeec5","1","3","7","71","2043.16680789","direct","3","1","1","¿Donde fue el mundial de 
fútbol de 1954?","Suiza","Suecia","","1","1","1","competitive","left","2.30304813385","2045.46990609","2.69695186615","2048.33367491","4.05039000511","2052.38410401","1.94960999489","2054.38737512","2055.64000702","2055.72191811","2058.72491097","1","2058.73824501","2062.65002608",""
"sujeto_e29aeec5","1","3","8","72","2062.80830312","inverse","1","1","4","¿Cuál de los 7 enanitos
no tenía barba?","Bashful","Mudito","","1","1","0","competitive","right","2.19926095009","2065.00762606","2.80073904991","2067.98110509","4.27164912224","2072.25279808","1.72835087776","2074.03345799","2075.61362195","2075.68486595","2078.68782496","1","2078.70193791","2083.63101506",""
"sujeto_e29aeec5","1","3","9","73","2083.77052307","direct","3","1","2","¿Cual red social es
mas utilizada mundialmente?","Instagram","Facebook","","1","1","0","competitive","right","3.09079313278","2086.86137795","1.90920686722","2088.92673397","3.33977198601","2092.26656604","2.66022801399","2094.9785521","2096.89435196","2096.98049903","2099.98349094","1","2099.99749708","2102.93199897",""
"sujeto_e29aeec5","1","3","10","74","2103.06514812","inverse","4","1","1","¿Cuándo se inició la copa
 América de fútbol?","1916","1923","","1","1","1","competitive","left","2.18776011467","2105.25297689","2.81223988533","2108.23618603","4.75798201561","2112.99423289","1.24201798439","2114.2714901","2116.168962","2116.25524902","2119.2582221","1","2119.27245498","2121.92857909",""
"sujeto_e29aeec5","1","3","11","75","2122.07630706","direct","3","1","4","¿Cuántos presidentes de EEUU
han muerto asesinados?","3","4","","0","0","1","competitive","left","4.5432741642","2126.6196301","0.4567258358","2127.23183703","4.77392697334","2132.0058229","1.22607302666","2133.28311992","2134.76707292","2134.85093999","2137.85391307","0","2137.86826396","2141.51238108",""
"sujeto_e29aeec5","1","3","12","76","2141.65362906","inverse","2","1","4","¿Cuántas veces participó EEUU
 en la copa América?","4","5","","0","0","1","competitive","right","1.25756597519","2142.91126108","3.74243402481","2146.80854702","5.1608569622","2151.96944594","0.839143037796","2152.84350801","2154.28759599","2154.36066294","2157.36364198","0","2157.37859011","2163.49574709",""
"sujeto_e29aeec5","1","3","13","77","2163.62941098","direct","4","1","1","¿Cuál de estos países 
no formaba la URSS?","Azeribayán","Afganistán","","0","0","1","competitive","right","2.80448794365","2166.43396306","2.19551205635","2168.83606601","4.06000900269","2172.89613509","1.93999099731","2174.87297106","2176.18603492","2176.27313089","2179.27609396","0","2179.29113197","2187.27328491",""
"sujeto_e29aeec5","1","3","14","78","2187.41013694","inverse","1","1","1","¿En qué año se inauguró
 el teatro Solís?","1867","1856","","0","0","0","competitive","right","2.07848906517","2189.4886899","2.92151093483","2192.5616169","3.96414899826","2196.52583003","2.03585100174","2198.60113096","2199.65746307","2199.73542094","2202.73840594","0","2202.75275707","2209.40048599",""
"sujeto_e29aeec5","1","3","15","79","2209.53762889","direct","1","1","4","¿A qué velocidad vuela 
el avión más rápido?","3529","3874","","0","0","0","competitive","left","1.3375749588","2210.87524891","3.6624250412","2214.69579005","4.25164103508","2218.94748998","1.74835896492","2220.74688411","2222.50236011","2222.58148503","2225.58447409","0","2225.5987711","2227.7090559",""
"sujeto_e29aeec5","1","3","16","80","2227.85100603","inverse","3","1","4","¿De qué año es la primer 
película cinematográfica?","1897","1888","","0","0","0","competitive","left","3.04682517052","2230.89789796","1.95317482948","2233.0392909","3.46664404869","2236.50599909","2.53335595131","2239.0897851","2240.22281098","2240.30844808","2243.31143999","0","2243.32062411","2248.73046803",""
"sujeto_e29aeec5","1","3","17","81","2248.87122202","direct","2","1","3","¿Cuántos países 
tiene nuestro planeta?","191","194","","1","1","1","competitive","right","0.82314991951","2249.69444203","4.17685008049","2254.03260994","3.08194899559","2257.11459899","2.91805100441","2260.08383703","2261.44060802","2261.51932693","2264.52230406","1","2264.53637195","2267.77467203",""
"sujeto_e29aeec5","1","3","18","82","2267.92109299","inverse","2","1","2","¿Cuántos habitantes
 tiene Buenos Aires?","2.9000.000","3650000","","0","0","0","competitive","right","1.02380418777","2268.94496703","3.97619581223","2273.09452605","3.03655910492","2276.13114095","2.96344089508","2279.14472604","2280.54201102","2280.61252999","2283.61546206","0","2283.62979388","2289.45652008",""
"sujeto_e29aeec5","1","3","19","83","2289.58129191","direct","2","1","1","¿Cuántos kilos forman una tonelada?","1000","1500","left","1","1","1","competitive","left","1.20695590973","2290.78834391","3.79304409027","2294.73910999","3.54951190948","2298.2886579","2.45048809052","2300.78980303","2302.67656112","2302.756603","2305.75960493","1","2305.77393198","2311.73129702",""
"sujeto_e29aeec5","1","3","20","84","2311.85878992","inverse","4","1","4","¿Cuántos estados tiene la 
República del Perú? ","24","23","","0","0","1","competitive","left","0.997360944748","2312.85620308","4.00263905525","2317.03460908","3.28867602348","2320.3233459","2.71132397652","2323.08530402","2324.10749292","2324.18657207","2327.188591","0","2327.203475","2332.14879704",""
"sujeto_e29aeec5","1","3","21","85","2332.30559707","direct","3","1","3","¿En qué año nació Cristóbal Colón? ","1451","1447","","0","0","1","competitive","left","3.65714597702","2335.96278811","1.34285402298","2337.49584103","3.70896887779","2341.20486808","2.29103112221","2343.54689407","2345.39256001","2345.46468401","2348.46764588","0","2348.48266506","2352.71066093",""
"sujeto_e29aeec5","1","3","22","86","2352.85057998","inverse","4","1","4","¿Cuánto mide la 
Montaña Aconcagua? ","6234","6962","","0","0","1","competitive","right","1.08965992928","2353.94031906","3.91034007072","2358.0049839","3.40537309647","2361.41040206","2.59462690353","2364.0579319","2365.34726906","2365.42568803","2368.42855501","0","2368.44264293","2375.62629104",""
"sujeto_e29aeec5","1","3","23","87","2375.760499","direct","2","1","4","¿Cuánto mide el punto
 más profundo del océano? ","12508","11003","","0","0","1","competitive","left","1.29530692101","2377.05587506","3.70469307899","2380.95243907","4.26655817032","2385.21903706","1.73344182968","2387.00285602","2388.25437403","2388.33784795","2391.34084702","0","2391.35500503","2395.560534",""
"sujeto_e29aeec5","1","3","24","88","2395.69031906","inverse","1","1","3","¿Cuántos álbumes ha publicado 
el cantante Jaime Roos? ","41","34","","0","0","1","competitive","right","0.950966119766","2396.641366","4.04903388023","2400.86288404","3.92158317566","2404.78452802","2.07841682434","2406.91488409","2408.40474105","2408.48165298","2411.48460388","0","2411.49954796","2417.69568491",""
"sujeto_e29aeec5","1","3","25","89","2417.83478999","direct","4","1","3","¿En qué año nació el 
ex-presidente Jorge Battle? ","1921","1927","","1","1","1","competitive","left","1.2299888134","2419.06484294","3.7700111866","2423.00868511","3.44026994705","2426.44899511","2.55973005295","2429.05971003","2430.79040098","2430.87737894","2433.88035893","1","2433.89455509","2437.3805759",""
"sujeto_e29aeec5","1","3","26","90","2437.51367497","inverse","1","1","3","¿Cuántas presidencias 
constitucionales  hubo en Uruguay? ","41","42","","0","0","1","competitive","left","3.37764501572","2440.89138699","1.62235498428","2442.71968007","4.08375501633","2446.80350089","1.91624498367","2448.77025509","2449.9740169","2450.0546031","2453.05756402","0","2453.07149196","2458.85514498",""
"sujeto_e29aeec5","1","3","27","91","2459.0070529","direct","1","1","2","¿Quién escribió mas sinfonías?","Mozart","Haydn","","1","1","0","competitive","left","1.04673695564","2460.0538671","3.95326304436","2464.18032908","3.1026070118","2467.28299403","2.8973929882","2470.23112893","2471.44853902","2471.53222609","2474.53256106","1","2474.54984212","2478.30051804",""
"sujeto_e29aeec5","1","3","28","92","2478.45187712","inverse","4","1","2","¿En qué año nació Michael Jackson?","1958","1953","","1","1","1","competitive","right","0.821357011795","2479.27330089","4.1786429882","2483.62462091","2.83970594406","2486.46438503","3.16029405594","2489.67515492","2491.65250897","2491.72690797","2494.72987103","1","2494.74387002","2500.60619307",""
"sujeto_e29aeec5","1","3","29","93","2500.74539304","direct","3","1","2","¿En qué año entró en vigencia 
la ley antitabaco en Uruguay?","2005","2006","","1","1","1","competitive","left","1.24233913422","2501.98783207","3.75766086578","2505.918643","4.41824293137","2510.33695197","1.58175706863","2511.97077107","2513.56552911","2513.63920212","2516.64215493","1","2516.65631008","2521.99030304",""
"sujeto_e29aeec5","1","3","30","94","2522.12459898","inverse","3","1","1","¿Cuándo se subió el 
primer video a youtube?","2004","2005","","0","0","1","competitive","left","1.67282795906","2523.79748988","3.32717204094","2527.26404905","2.58431506157","2529.84840298","3.41568493843","2533.314358","2534.62002897","2534.69946194","2537.70236611","0","2537.71675301","2545.4724021",""
"sujeto_e29aeec5","1","3","31","95","2545.61866212","direct","2","1","1","¿Cuántos habitantes tiene India?","1200 millones","1300 millones","","0","0","0","competitive","left","1.37008404732","2546.98885012","3.62991595268","2550.81124401","3.01557278633","2553.8268609","2.98442721367","2556.86058807","2558.83022904","2558.91217208","2561.91515803","0","2561.9305439","2567.97802496",""
"sujeto_e29aeec5","1","3","32","96","2568.11519599","inverse","4","1","2","¿A qué edad murió Bob Marley?","36","37","","0","0","1","competitive","right","1.12595582008","2569.24121594","3.87404417992","2573.27267098","3.21860694885","2576.49133396","2.78139305115","2579.32346892","2581.22055793","2581.30848789","2584.31146693","0","2584.32565594","2587.4281261",""
"sujeto_e29aeec5","1","4","1","97","2702.9326551","direct","2","1","1","¿Cuantos años dirigió la selección 
uruguaya Tabarez?","15 años","13 años","","0","0","0","competitive","left","1.18926596642","2704.12198496","3.81073403358","2708.09446001","4.18364977837","2712.27817011","1.81635022163","2714.145895","2715.33691692","2715.41358495","2718.41656399","0","2718.43062592","2725.50265598","2587.43984389"
"sujeto_e29aeec5","1","4","2","98","2725.65073705","inverse","4","1","1","¿Cuantas teclas tiene un teclado 
de computadora generalmente? ","Entre 99 y 108","Entre 109 y 113","","1","1","1","competitive","left","2.26256299019","2727.91335797","2.73743700981","2730.806499","3.60798287392","2734.41452599","2.39201712608","2736.85758901","2737.86036491","2737.94228911","2740.94454694","1","2740.95984602","2743.33127189",""
"sujeto_e29aeec5","1","4","3","99","2743.46129799","direct","1","1","1","¿Cuál Departamento tiene
 mayor superficie?","Río Negro","Soriano","","0","0","0","competitive","right","1.16641187668","2744.62778091","3.83358812332","2748.63295794","3.9868710041","2752.61987305","2.0131289959","2754.684618","2756.39810205","2756.48488212","2759.48783588","0","2759.50213194","2763.82457709",""
"sujeto_e29aeec5","1","4","4","100","2763.9706769","inverse","3","1","2","¿Cuál es el apellido de las 
hermanastras  de  cenicienta?","Tremaine","Truman","","0","0","1","competitive","right","0.88546204567","2764.85622311","4.11453795433","2769.14352798","4.22566199303","2773.36923003","1.77433800697","2775.17828202","2777.04780197","2777.12942195","2780.1323781","0","2780.14642406","2782.84053612",""
"sujeto_e29aeec5","1","4","5","101","2783.01383305","direct","4","1","4","¿Cuál película ganó un
 Oscar a mejor película?","Alto Impacto","Cache","","0","0","1","competitive","left","1.26863098145","2784.28253388","3.73136901855","2788.20221806","4.30934119225","2792.51162505","1.69065880775","2794.23785996","2795.35652995","2795.43872809","2798.44055891","0","2798.45582199","2800.72046399",""
"sujeto_e29aeec5","1","4","6","102","2800.89099789","inverse","1","1","3","¿A cuántos centímetros
equivale la medida pié?","25","30","","0","0","1","competitive","left","1.39079809189","2802.28186107","3.60920190811","2806.04665399","4.15827584267","2810.20500207","1.84172415733","2812.0809629","2813.12092805","2813.19836593","2816.20051694","0","2816.21574903","2821.61655903",""
"sujeto_e29aeec5","1","4","7","103","2821.75061202","direct","2","1","2","¿Qué departamento es mas grande?","Cerro Largo","Paysandú","","0","0","0","competitive","right","2.35155391693","2824.10221195","2.64844608307","2826.92360997","3.03464198112","2829.95829701","2.96535801888","2832.97558498","2834.57531691","2834.66077709","2837.66376305","0","2837.67777109","2841.78776503",""
"sujeto_e29aeec5","1","4","8","104","2841.92790198","inverse","2","1","3","¿Quién pintó la Mona Lisa?","Picasso","Da Vinci","right","0","0","1","competitive","right","0.862501859665","2842.7904439","4.13749814034","2847.11729908","3.80225896835","2850.91961598","2.19774103165","2853.16918612","2854.77505708","2854.85420203","2857.85656309","1","2857.8715899","2860.03392911",""
"sujeto_e29aeec5","1","4","9","105","2860.17295289","direct","4","1","3","¿Cuántos litros hay en un galon?","3.54","3.78","","1","1","1","competitive","right","0.921897888184","2861.09495211","4.07810211182","2865.36140203","2.84347319603","2868.20493793","3.15652680397","2871.39537311","2872.91322708","2872.99682903","2875.99981904","1","2876.014117","2881.80646896",""
"sujeto_e29aeec5","1","4","10","106","2881.96567702","inverse","4","1","1","¿Cuántas teclas tiene
 un piano moderno?","80","88","","0","0","1","competitive","left","1.45849204063","2883.42421198","3.54150795937","2887.12305307","3.49120903015","2890.61429906","2.50879096985","2893.15679312","2894.16523695","2894.25779605","2897.26051593","0","2897.2752459","2904.07249904",""
"sujeto_e29aeec5","1","4","11","107","2904.22746706","direct","4","1","3","¿Cuántos países hay en África?","54","62","","0","0","1","competitive","left","0.918443202972","2905.14597702","4.08155679703","2909.38525009","3.73041915894","2913.11572599","2.26958084106","2915.41882491","2917.10935307","2917.18689203","2920.18987989","0","2920.20482707","2928.00827098",""
"sujeto_e29aeec5","1","4","12","108","2928.13955212","inverse","1","1","3","¿En qué siglo se crearon
 las primeras pistolas?","XV","XIII","","1","1","1","competitive","left","1.61348795891","2929.7530849","3.38651204109","2933.29547811","4.53155112267","2937.82706404","1.46844887733","2939.33189392","2941.27981591","2941.34978294","2944.35276604","1","2944.36774993","2947.60085392",""
"sujeto_e29aeec5","1","4","13","109","2947.73589206","direct","3","1","4","¿En qué año se estrenó 
la serie friends?","1994","1995","","0","0","1","competitive","right","0.893460988998","2948.62941694","4.106539011","2952.8917141","5.01867294312","2957.91044307","0.981327056885","2958.942981","2960.81833911","2960.89336801","2963.89635897","0","2963.91170597","2968.91652608",""
"sujeto_e29aeec5","1","4","14","110","2969.06239796","inverse","3","1","4","¿En qué año nació Hitler?","1889","1887","","0","0","1","competitive","left","0.791343927383","2969.85379505","4.20865607262","2974.219594","3.1482591629","2977.36789203","2.8517408371","2980.25368595","2981.36806989","2981.4376359","2984.44062495","0","2984.45489192","2989.48185492",""
"sujeto_e29aeec5","1","4","15","111","2989.60654712","direct","1","1","4","¿Cuánto pesa un elefante Africano?","6000 kilos","5400 kilos","","0","0","0","competitive","left","0.953655958176","2990.56027102","4.04634404182","2994.78049493","2.95065593719","2997.7312119","3.04934406281","3000.83123994","3002.18710399","3002.26619005","3005.26853299","0","3005.28341198","3011.99047899",""
"sujeto_e29aeec5","1","4","16","112","3012.13550496","inverse","1","1","2","¿Qué porcentaje de 
la población es zurda?","10%","7%","","1","1","0","competitive","right","0.807894945145","3012.94346309","4.19210505486","3017.2908299","3.15559792519","3020.44646406","2.84440207481","3023.34380198","3024.58688688","3024.66044402","3027.66344309","1","3027.67742991","3033.65717411",""
"sujeto_e29aeec5","1","4","17","113","3033.7962811","direct","1","1","2","¿En qué año se estrenó
Volver al futuro?","1984","1985","","0","0","1","competitive","right","1.95357108116","3035.74995589","3.04642891884","3038.9709549","4.53788685799","3043.50887895","1.46211314201","3045.02176189","3046.58358312","3046.6562891","3049.65923905","0","3049.67354894","3056.76496196",""
"sujeto_e29aeec5","1","4","18","114","3056.9084661","inverse","3","1","2","¿Cuántos jugadores hay en un 
equipo de baseball?","9","8","","1","1","0","competitive","left","1.08264803886","3057.991184","3.91735196114","3062.06606793","3.90117001534","3065.96729589","2.09882998466","3068.11696696","3069.73120093","3069.80186296","3072.80486703","1","3072.81914997","3077.79635191",""
"sujeto_e29aeec5","1","4","19","115","3077.93753409","direct","2","1","1","¿Cuántos Oscar ganó
 la película titanic?","13","11","","1","1","1","competitive","left","1.06503200531","3079.00263906","3.93496799469","3083.0921371","3.7634601593","3086.85565591","2.2365398407","3089.14440894","3090.44644499","3090.52885199","3093.53183389","1","3093.546911","3098.14959097",""
"sujeto_e29aeec5","1","4","20","116","3098.28142405","inverse","4","1","4","¿En qué año comenzó
la segunda guerra mundial?","1939","1976","left","0","0","1","competitive","left","0.743564128876","3099.025069","4.25643587112","3103.43733311","3.89158797264","3107.32898998","2.10841202736","3109.4723959","3111.27227712","3111.35720897","3114.36019802","1","3114.37431192","3118.36055207",""
"sujeto_e29aeec5","1","4","21","117","3118.49238801","direct","2","1","4","¿Cuántos biomas hay en Uruguay?","5","4","","0","0","1","competitive","right","2.73475289345","3121.22718406","2.26524710655","3123.64755988","4.23259496689","3127.88020992","1.76740503311","3129.68302989","3131.4803431","3131.55025291","3134.55320811","0","3134.5685451","3140.81656408",""
"sujeto_e29aeec5","1","4","22","118","3140.95258904","inverse","2","1","3","¿Cuándo murió Pablo Escobar?","1993","1997","","1","1","1","competitive","left","2.64698410034","3143.59963608","2.35301589966","3146.10774493","4.18076300621","3150.28856301","1.81923699379","3152.1453681","3153.92821407","3154.01277304","3157.01575089","1","3157.03105092","3162.73468804",""
"sujeto_e29aeec5","1","4","23","119","3162.86588407","direct","1","1","4","¿Qué serie ha ganado mas premios?","Friends","Murphy Brown","","1","1","0","competitive","left","3.01993703842","3165.8858881","1.98006296158","3168.05519891","3.87272405624","3171.92796993","2.12727594376","3174.107692","3175.4600811","3175.54223609","3178.54458809","1","3178.55854011","3184.117383",""
"sujeto_e29aeec5","1","4","24","120","3184.26055694","inverse","4","1","2","¿Cuántas fichas tiene el dominó?","26","28","","1","1","1","competitive","right","1.00165987015","3185.26229095","3.99834012985","3189.41630292","3.20996689796","3192.62633109","2.79003310204","3195.45082903","3196.50611711","3196.58579993","3199.58850694","1","3199.60253406","3204.84451294",""
"sujeto_e29aeec5","1","4","25","121","3204.96965408","direct","2","1","4","¿Cuántos son los dientes de leche?","20","25","","0","0","1","competitive","left","2.67187094688","3207.6415689","2.32812905312","3210.1250639","4.76458096504","3214.88968992","1.23541903496","3216.16053295","3217.87090492","3217.94410706","3220.94709492","0","3220.96234012","3223.10798907",""
"sujeto_e29aeec5","1","4","26","122","3223.24858403","inverse","3","1","3","¿Cuántos gramos son una onza?","22","28","","0","0","1","competitive","left","2.80719304085","3226.05583","2.19280695915","3228.40384698","3.48198890686","3231.88590002","2.51801109314","3234.43935204","3236.4341979","3236.50644398","3239.50941491","0","3239.52473497","3245.8149581",""
"sujeto_e29aeec5","1","4","27","123","3245.99323392","direct","3","1","1","¿Cuándo salió el primer album
 de los Beatles?","1963","1962","","1","1","1","competitive","left","0.890914916992","3246.88421392","4.10908508301","3251.14932203","2.62486100197","3253.7742219","3.37513899803","3257.19998407","3258.36358309","3258.43529105","3261.43821192","1","3261.45222807","3265.22421503",""
"sujeto_e29aeec5","1","4","28","124","3265.35238504","inverse","3","1","3","¿Quién fundó la empresa apple?","Carlos Slim","Steve Jobs","","1","1","1","competitive","right","1.16701102257","3266.51944089","3.83298897743","3270.5057869","4.3047580719","3274.81058598","1.6952419281","3276.55826902","3277.6725111","3277.74226308","3280.74526","1","3280.75952005","3287.05655789",""
"sujeto_e29aeec5","1","4","29","125","3287.20743799","direct","4","1","2","¿Cuántos municipios hay
 en Montevideo?","8","7","","1","1","1","competitive","left","0.964328050613","3288.17183208","4.03567194939","3292.38788104","4.10290312767","3296.49084401","1.89709687233","3298.43959689","3300.35437298","3300.439955","3303.44291997","1","3303.45816898","3305.53931308",""
"sujeto_e29aeec5","1","4","30","126","3305.67646408","inverse","1","1","1","¿Cuántos kilómetros hay
 de Montevideo a Artigas?","632","599","","0","0","0","competitive","left","1.2385699749","3306.91507697","3.7614300251","3310.84779811","5.19233202934","3316.04018903","0.807667970657","3316.88259411","3318.36454105","3318.45013905","3321.45307708","0","3321.46754098","3327.51965308",""
"sujeto_e29aeec5","1","4","31","127","3327.65046906","direct","2","1","2","¿En qué año nació 
Leonardo Da Vinci?","1452","1511","","1","1","0","competitive","left","1.09684419632","3328.74737692","3.90315580368","3332.8258841","2.94548201561","3335.77142501","3.05451798439","3338.85975409","3340.71334291","3340.79476595","3343.79771495","1","3343.81274009","3346.95915198",""
"sujeto_e29aeec5","1","4","32","128","3347.09753108","inverse","3","1","1","¿A qué continente
 pertenece el país Gabón?","Africa","Oceanía","","0","0","1","competitive","right","0.855104923248","3347.95267892","4.14489507675","3352.26784897","3.02876091003","3355.29667091","2.97123908997","3358.30252504","3360.11420393","3360.18747807","3363.19044995","0","3363.20477891","3368.44268298",""
