"code","nro_aplicante","nro_bloque","nro_trial_bloque","nro_trial_global","show_game_type","choice_order","rival","pay_individual","pay_competitive","question","answer_left_text","answer_right_text","correct_answer","outcome_individual","outcome_competitive","outcome_rival","game_type","answer","social_time","rt_game_type","feedback_delay","show_question","answer_time","rt_answer_global","feedback_delay_2","show_jitter","jitter_time","show_outcome","outcome_time","outcome_participant_real","show_final_jitter","second_jitter_time","inicio_descanso"
"sujeto_0025043","1","1","1","1","576.902151823","direct","3","1","4","¿Cuántos centímetros corresponden
al talle 36 del calzado?","23","24","","0","0","1","competitive","right","1.71187996864","578.614097834","3.28812003136","582.064781904","3.33419680595","585.399040937","2.66580319405","588.114835978","589.143087864","589.216185808","592.219111919","0","592.234081984","594.396603823",""
"sujeto_0025043","1","1","2","2","594.551404953","inverse","3","1","2","¿Cuántas metros mide la Intendencia
Municipal de Montevideo? ","84","78","","0","0","1","individual","right","2.02062797546","596.57209897","2.97937202454","599.724174976","3.0988368988","602.823071003","2.9011631012","605.757360935","607.635405779","607.676093817","610.679006815","0","610.69313693","612.78585887",""
"sujeto_0025043","1","1","3","3","612.945616007","direct","1","1","3","¿Cuántas La Pasiva
 hay en uruguay?","15","11","","1","1","1","competitive","left","2.0264339447","614.97211194","2.9735660553","618.099627972","2.97841405869","621.07810688","3.02158594131","624.133401871","625.745082855","625.819061995","628.822025776","1","628.836205006","633.114544868",""
"sujeto_0025043","1","1","4","4","633.254695892","inverse","3","1","3","¿De que color es la camiseta de uruguay?","blanca","celeste","right","1","1","1","individual","right","2.61137509346","635.866136789","2.38862490654","638.409007788","2.61703205109","641.026079893","3.38296794891","644.444436789","645.64920187","645.696256876","648.699238777","1","648.713099003","652.167006969",""
"sujeto_0025043","1","1","5","5","652.314324856","direct","2","1","1","¿Cuánto metros mide
la torre Eiffel?","333","324","","1","1","1","competitive","right","1.40074682236","653.715163946","3.59925317764","657.520674944","2.67336201668","660.194093943","3.32663798332","663.568815947","665.090206861","665.170431852","668.173404932","1","668.187558889","675.223248005",""
"sujeto_0025043","1","1","6","6","675.355832815","inverse","3","1","4","¿Cuantas ciudades existen
 en todo el uruguay?","63","72","","0","0","1","competitive","right","1.58117508888","676.937076807","3.41882491112","680.516012907","2.91099905968","683.427054882","3.08900094032","686.548870802","687.603218794","687.684156895","690.687141895","0","690.701265812","698.327275991",""
"sujeto_0025043","1","1","7","7","698.485765934","direct","1","1","1","¿Cuantos estados tiene África?","52","54","","1","1","0","competitive","right","1.61528205872","700.101142883","3.38471794128","703.660756826","3.44520688057","707.106020927","2.55479311943","709.694396973","711.558393955","711.629152775","714.632087946","1","714.64613986","720.407121897",""
"sujeto_0025043","1","1","8","8","720.548570871","inverse","4","1","4","¿En qué año nació
 Stephen Hawking?","1952","1942","","0","0","1","individual","left","1.62246990204","722.171105862","3.37753009796","725.721278906","3.6496758461","729.370991945","2.3503241539","731.772556782","733.21685791","733.256724834","736.259692907","0","736.273672819","742.373017788",""
"sujeto_0025043","1","1","9","9","742.509332895","direct","2","1","3","¿Cuánto años tenía Artigas
 cuando se fue a Paraguay?","56","57","","1","1","1","competitive","right","1.71869707108","744.228124857","3.28130292892","747.73304081","3.47797894478","751.211061954","2.52202105522","753.766955853","755.315241814","755.402094841","758.405072927","1","758.418918848","764.463276863",""
"sujeto_0025043","1","1","10","10","764.603763819","inverse","1","1","2","¿Cuantos milímetros 
mide una hoja A2?","420x592","420x594","","0","0","1","competitive","right","1.34728598595","765.951095819","3.65271401405","769.760970831","3.32903385162","773.09004283","2.67096614838","775.794757843","777.363170862","777.44650197","780.447281837","0","780.463523865","787.537153959",""
"sujeto_0025043","1","1","11","11","787.68171978","direct","3","1","3","¿Cuál es la menor temperatura 
registrada en Uruguay?","-5.4","-7.4","","0","0","1","individual","right","1.74630999565","789.428101778","3.25369000435","792.856133938","3.24890708923","796.105083942","2.75109291077","798.906494856","800.588537931","800.624389887","803.627317905","0","803.641317844","807.371277809",""
"sujeto_0025043","1","1","12","12","807.510331869","inverse","2","1","2","¿Cuantos años hace que 
se fundó facebook?","18","17","","0","0","0","competitive","left","1.09030294418","808.600767851","3.90969705582","812.666388988","3.20868515968","815.875135899","2.79131484032","818.717684984","820.090415001","820.16792798","823.170880795","0","823.185977936","825.960619926",""
"sujeto_0025043","1","1","13","13","826.104203939","direct","1","1","4","¿Cuál animal es más
 pesado en promedio?","Rinoceronte","Hipopotamo","","0","0","0","competitive","right","1.36285805702","827.467123985","3.63714194298","831.326156855","2.64194297791","833.968141794","3.35805702209","837.359394789","838.438628912","838.510983944","841.513882875","0","841.528846979","845.367241859",""
"sujeto_0025043","1","1","14","14","845.496529818","inverse","1","1","2","¿Qué personaje de dragon ball 
murió más veces?","Chaoz","Krillin","","1","1","0","competitive","right","1.08461689949","846.581210852","3.91538310051","850.666791916","3.30030298233","853.967132807","2.69969701767","856.718192816","858.175954819","858.252929926","861.255895853","1","861.269980907","869.04287982",""
"sujeto_0025043","1","1","15","15","869.171620846","direct","3","1","2","La universidad de oxford. 
existe desde:","1096","1249","","1","1","0","individual","right","1.58244895935","870.754143953","3.41755104065","874.332221985","4.12987208366","878.462153912","1.87012791634","880.365948915","881.414735794","881.450919867","884.453881979","1","884.467969894","891.158819914",""
"sujeto_0025043","1","1","16","16","891.319072008","inverse","3","1","1","¿Qué escritor latino ganó antes
 el premio nobel?"," García Marquez","Neruda","","0","0","1","individual","left","1.50996112823","892.829077959","3.49003887177","896.476152897","4.46889400482","900.94508791","1.53110599518","902.526942968","904.266889811","904.310829878","907.311235905","0","907.329761982","910.790237904",""
"sujeto_0025043","1","1","17","17","910.930990934","direct","4","1","3","¿Cuántos dientes tiene un
 tiburón blanco?","6000","3000","","0","0","1","individual","right","1.46907806396","912.40011692","3.53092193604","916.103604794","2.72544693947","918.82909584","3.27455306053","922.153307915","923.19231391","923.238501787","926.241490841","0","926.256115913","931.065802813",""
"sujeto_0025043","1","1","18","18","931.20648098","inverse","4","1","1","¿Cuánto mide el paralelo Ecuador?","40.000km","70.000km","","0","0","1","individual","left","1.27358102798","932.480133772","3.72641897202","936.360899925","3.08210611343","939.443069935","2.91789388657","942.412204981","944.368315935","944.414094925","947.417059898","0","947.431100845","951.03368783",""
"sujeto_0025043","1","1","19","19","951.199482918","direct","4","1","2","¿Cuál fue el primer libro 
de Stephen King?","Carrie","The Stand","","1","1","1","individual","left","1.33457803726","952.534122944","3.66542196274","956.373759985","1.90027809143","958.274096966","4.09972190857","962.423024893","964.167088985","964.209272861","967.21219182","1","967.226376772","971.70083189",""
"sujeto_0025043","1","1","20","20","971.844258785","inverse","2","1","3","¿Qué civilización practicaba
 la momificación?","Grecia","Egipto","right","0","0","1","competitive","right","1.12877511978","972.973106861","3.87122488022","977.000566959","2.32740092278","979.328023911","3.67259907722","983.034657001","984.973909855","985.053644896","988.055230856","1","988.070242882","992.298975945",""
"sujeto_0025043","1","1","21","21","992.472338915","direct","4","1","4","¿Cuántos millones de visitas
 recibe google por minuto?","3.0","4.5","","0","0","1","competitive","right","1.57975411415","994.052145004","3.42024588585","997.628186941","3.28591799736","1000.91416383","2.71408200264","1003.67831779","1005.19320488","1005.27957392","1008.28256083","0","1008.29650092","1015.41918588",""
"sujeto_0025043","1","1","22","22","1015.56458187","inverse","1","1","3","La máquina de fax. se inventó en:","1843","1960","","0","0","1","competitive","left","0.976591825485","1016.54122686","4.02340817451","1020.72014189","2.7629339695","1023.48313594","3.2370660305","1026.75570083","1027.99781179","1028.07333779","1031.07526779","0","1031.09149694","1034.32727289",""
"sujeto_0025043","1","1","23","23","1034.459378","direct","2","1","4","En la verdadera historia de los
 300 espartanos. habían:","300 soldados","4300 soldados","","1","1","1","competitive","right","1.19471907616","1035.65414381","3.80528092384","1039.61631393","4.88067317009","1044.49704981","1.11932682991","1045.66804385","1046.92926383","1047.00162387","1050.004601","1","1050.0187459","1053.82052279",""
"sujeto_0025043","1","1","24","24","1053.98734593","inverse","1","1","4","¿Cuántos milímetros crece
 el pelo por día?","0.4","0.04","","0","0","0","competitive","right","1.26474618912","1055.25214386","3.73525381088","1059.14313293","3.11589813232","1062.25909901","2.88410186768","1065.19362378","1066.9543438","1067.02817488","1070.0311749","0","1070.0461688","1076.779284",""
"sujeto_0025043","1","1","25","25","1076.91409588","direct","4","1","1","¿Cuánto mide la baldosa gris 
clásica de Montevideo?","22x22 cm.","20x20 cm.","","1","1","1","individual","right","1.19900894165","1078.11317086","3.80099105835","1082.10191894","3.02912521362","1085.1311028","2.97087478638","1088.15406179","1090.14929581","1090.18901682","1093.1919558","1","1093.20586681","1098.74867797",""
"sujeto_0025043","1","1","26","26","1098.8912189","inverse","2","1","2","¿Cuántas películas de rápidos
 y furiosos hay?","10","11","","1","1","0","competitive","left","0.879973888397","1099.77124977","4.1200261116","1104.04956889","2.821434021","1106.87103891","3.178565979","1110.09984589","1111.45784497","1111.53495789","1114.53790498","1","1114.5522778","1116.58695984",""
"sujeto_0025043","1","1","27","27","1116.72092986","direct","3","1","1","¿Cuántos masters 1000
 ganó Del Potro?","1","2","","1","1","1","competitive","right","1.28911495209","1118.01011682","3.71088504791","1121.85865092","3.60140299797","1125.46011186","2.39859700203","1127.91001797","1129.66464686","1129.74423981","1132.74722695","1","1132.76117182","1140.15751886",""
"sujeto_0025043","1","1","28","28","1140.29664493","inverse","2","1","4","¿Cuántos meses dura el 
embarazo de una leona?","3 meses","4 meses","","0","0","1","competitive","right","1.23147201538","1141.5281918","3.76852798462","1145.45402694","3.35508799553","1148.80918288","2.64491200447","1151.5050478","1152.61613798","1152.68973088","1155.69271278","0","1155.70655394","1162.42897487",""
"sujeto_0025043","1","1","29","29","1162.60790896","direct","1","1","1","¿En qué año fue creado
 el sandwich?","1762","1653","","1","1","0","competitive","right","1.54319310188","1164.15116382","3.45680689812","1167.76545882","2.80666899681","1170.57216692","3.19333100319","1173.81624579","1175.41480279","1175.48486185","1178.487849","1","1178.50169683","1181.97232795",""
"sujeto_0025043","1","1","30","30","1182.11998487","inverse","4","1","2","El nombre de la moneda de Vietnam es:","Dinar","Dong","","0","0","1","individual","left","1.14718198776","1183.26725078","3.85281801224","1187.2917819","3.03632283211","1190.3281498","2.96367716789","1193.34307599","1194.77505398","1194.81065798","1197.81362081","0","1197.82809687","1203.99652696",""
"sujeto_0025043","1","1","31","31","1204.12988591","direct","2","1","1","¿cuantos aleteos puede dar 
un colibrí por segundo?","120","50","","0","0","0","competitive","left","1.74919915199","1205.87917781","3.25080084801","1209.32126093","2.59976100922","1211.92107892","3.40023899078","1215.37069297","1217.103055","1217.17204595","1220.17496991","0","1220.190166","1224.402421",""
"sujeto_0025043","1","1","32","32","1224.54108596","inverse","4","1","3","¿Qué altura promedio tienen
 los hombres uruguayos?","1.73 m","1.72 m","","1","1","1","individual","right","1.23404097557","1225.77521992","3.76595902443","1229.69730091","3.07078790665","1232.76812887","2.92921209335","1235.74806285","1237.01048589","1237.04917192","1240.05213499","1","1240.06696391","1244.54169798",""
"sujeto_0025043","1","2","1","33","1393.30777884","direct","1","1","1","¿En qué año nació 
el actor Bradd Pitt?","1967","1963","","1","1","1","competitive","left","1.65033793449","1394.95817995","3.34966206551","1398.46783185","3.42529988289","1401.89317083","2.57470011711","1404.5180769","1405.61391592","1405.68650484","1408.68948984","1","1408.70345378","1414.63101888","1244.55670691"
"sujeto_0025043","1","2","2","34","1414.77118397","inverse","2","1","1","¿Cual es el segundo 
monte más alto?","Kanchenjunga","K2","","1","1","1","competitive","left","0.836050033569","1415.60728598","4.16394996643","1419.92627192","2.95285797119","1422.87919998","3.04714202881","1425.977777","1427.43018079","1427.51349783","1430.51530886","1","1430.53039289","1433.96029401",""
"sujeto_0025043","1","2","3","35","1434.09867477","direct","3","1","1","¿Cuándo finalizó la construcción
 del Palacio Legislativo?","1925","1917","","0","0","1","individual","right","1.46245098114","1435.56120491","3.53754901886","1439.30484891","3.45329093933","1442.7581799","2.54670906067","1445.35614181","1446.9978528","1447.04058695","1450.0430789","0","1450.058285","1455.7558589",""
"sujeto_0025043","1","2","4","36","1455.92587185","inverse","3","1","3","¿Cuántos integrantes tenía
 en su inicio  el cuarteto de nos?","3","4","","1","1","1","individual","right","1.49723696709","1457.42321587","3.50276303291","1461.1172328","2.76483893394","1463.88210988","3.23516106606","1467.16698384","1468.29997897","1468.35183787","1471.35481977","1","1471.36925077","1477.01901293",""
"sujeto_0025043","1","2","5","37","1477.153687","direct","2","1","3","¿Qué valor tiene el número pi?","3.14","4.18","left","0","0","1","competitive","left","1.40748810768","1478.56125879","3.59251189232","1482.3274219","1.80166077614","1484.12914181","4.19833922386","1488.37759781","1489.83126092","1489.91303992","1492.91600084","1","1492.929878","1499.85085487",""
"sujeto_0025043","1","2","6","38","1499.98206687","inverse","2","1","2","¿Cuál es la esperanza de vida
 en Uruguay?","75","77","","1","1","0","competitive","left","1.12902712822","1501.1111989","3.87097287178","1505.169245","2.9358689785","1508.10517383","3.0641310215","1511.22157097","1512.87528491","1512.95641994","1515.95941091","1","1515.97366381","1522.43529081",""
"sujeto_0025043","1","2","7","39","1522.62568188","direct","1","1","2","¿Cuantos pisos tiene la torre 
de las comunicaciones?","26","32","","1","1","0","competitive","right","1.75142812729","1524.37715197","3.24857187271","1527.80180788","3.5162358284","1531.31810784","2.4837641716","1533.8517189","1535.68051386","1535.7526958","1538.75568295","1","1538.77094579","1540.91715693",""
"sujeto_0025043","1","2","8","40","1541.05505586","inverse","2","1","4","¿En qué país sudamericano 
no hay McDonalds?","Bolivia","Venezuela","","0","0","1","competitive","right","1.07620191574","1542.13133597","3.92379808426","1546.2099309","3.08914089203","1549.2991128","2.91085910797","1552.26097393","1553.57031488","1553.64533091","1556.647223","0","1556.66264677","1563.02235985",""
"sujeto_0025043","1","2","9","41","1563.164217","direct","3","1","1","¿En qué año empieza
 la Edad Media?","476","512","","1","1","1","individual","left","1.64788508415","1564.81216788","3.35211491585","1568.32280278","3.04325795174","1571.36611891","2.95674204826","1574.35545588","1575.75917983","1575.80748892","1578.81043196","1","1578.82433486","1581.81124187",""
"sujeto_0025043","1","2","10","42","1581.94295478","inverse","3","1","4","¿Hace cuántos años surgió
 el ser humano?","200mil","300mil","","0","0","0","competitive","left","1.62026190758","1583.56328797","3.37973809242","1587.11584878","3.19630289078","1590.3122139","2.80369710922","1593.16573882","1595.05176592","1595.13433695","1598.13727093","0","1598.15121198","1601.46169686",""
"sujeto_0025043","1","2","11","43","1601.60267496","direct","3","1","4","¿Cuántas cuadras tiene
 actualmente 18 de julio? ","36","33","","0","0","1","competitive","right","1.85841703415","1603.46113682","3.14158296585","1606.79119587","3.51090097427","1610.3021369","2.48909902573","1612.82570791","1614.52791595","1614.6103909","1617.61337686","0","1617.62769794","1622.35127282",""
"sujeto_0025043","1","2","12","44","1622.49572587","inverse","1","1","4","¿Qué juego de equipo se 
considera mas rápido?","Lacrosse","Badminton","","0","0","0","competitive","left","1.01244616508","1623.5082438","3.98755383492","1627.65197396","4.24613618851","1631.89815784","1.75386381149","1633.70346284","1634.94656301","1635.02130795","1638.02428389","0","1638.03834486","1646.03349495",""
"sujeto_0025043","1","2","13","45","1646.1891098","direct","1","1","3","¿Qué promedio de edad 
vive una jirafa? ","25","20","","0","0","1","competitive","left","1.44903993607","1647.63819599","3.55096006393","1651.36457777","2.9685280323","1654.333148","3.0314719677","1657.4146688","1659.17614484","1659.25050879","1662.25344682","0","1662.26749396","1668.22317982",""
"sujeto_0025043","1","2","14","46","1668.38603187","inverse","1","1","2","¿Cuántos grandes lagos hay?","7","5","","0","0","1","competitive","left","1.57713198662","1669.96321392","3.42286801338","1673.54373479","2.58838200569","1676.13217783","3.41161799431","1679.59321499","1680.88537097","1680.96149993","1683.96449685","0","1683.9787569","1691.79923296",""
"sujeto_0025043","1","2","15","47","1691.9804728","direct","3","1","2","¿Cuántos discos de estudio
 grabó Johhny Cash? ","54","43","","1","1","0","competitive","right","1.48565196991","1693.46618795","3.51434803009","1697.15489292","3.43625807762","1700.591223","2.56374192238","1703.20573497","1704.48329377","1704.55670285","1707.55926585","1","1707.57344198","1714.22325683",""
"sujeto_0025043","1","2","16","48","1714.35817385","inverse","4","1","1","¿Cuántos barrios tiene
 Montevideo? ","71","62","","0","0","1","individual","right","1.8929438591","1716.25119686","3.1070561409","1719.53282094","3.1093120575","1722.64219999","2.8906879425","1725.56685185","1726.57393885","1726.61807585","1729.62100792","0","1729.63510084","1735.09710598",""
"sujeto_0025043","1","2","17","49","1735.23642087","direct","3","1","3","¿Qué edad tiene Homero Simpson?","36","42","","0","0","1","competitive","left","1.86071681976","1737.09718394","3.13928318024","1740.427562","2.18957996368","1742.617208","3.81042003632","1746.47708082","1747.85309887","1747.92933893","1750.93231392","0","1750.94617987","1755.334939",""
"sujeto_0025043","1","2","18","50","1755.46405387","inverse","4","1","2","¿Cuántos países con monarquía 
hay en europa actualmente? ","6","10","","1","1","1","individual","left","1.93613386154","1757.40023994","3.06386613846","1760.65475488","3.6913690567","1764.34618092","2.3086309433","1766.68650699","1768.12481594","1768.17077899","1771.17127681","1","1771.18839192","1777.34521484",""
"sujeto_0025043","1","2","19","51","1777.47328877","direct","2","1","3","¿Cuántos capítulos de
 Friends existen? ","236","228","","1","1","1","competitive","left","1.62385296822","1779.09719086","3.37614703178","1782.63240886","2.89174199104","1785.52421689","3.10825800896","1788.68303084","1789.98859787","1790.06723499","1793.07021284","1","1793.08518291","1795.46081781",""
"sujeto_0025043","1","2","20","52","1795.60349584","inverse","1","1","3","¿Cuántas óperas compuso Mozart? ","27","22","","1","1","1","competitive","left","1.13665485382","1796.74019289","3.86334514618","1800.79199195","2.68210411072","1803.47415781","3.31789588928","1806.84161878","1808.13377595","1808.2097919","1811.21278501","1","1811.22784185","1818.53931999",""
"sujeto_0025043","1","2","21","53","1818.71153784","direct","4","1","3","¿Cuántos mundiales de fútbol 
femenino ha realizado FIFA? ","9","7","","1","1","1","individual","right","1.01971507072","1819.73132777","3.98028492928","1823.886415","4.11171007156","1827.99818492","1.88828992844","1829.92051101","1831.16417789","1831.204952","1834.20791578","1","1834.22293496","1840.32331181",""
"sujeto_0025043","1","2","22","54","1840.49008989","inverse","3","1","2","¿Cuál es la temperatura 
media anual en Montevideo? ","17.5","16.3","","0","0","1","individual","left","1.64503479004","1842.13521099","3.35496520996","1845.64803386","2.43711900711","1848.08521295","3.56288099289","1851.69853091","1853.63713193","1853.68367887","1856.686656","0","1856.70075798","1863.26720595",""
"sujeto_0025043","1","2","23","55","1863.41964579","direct","2","1","2","¿En qué año se estrenó el
 videojuego The Sims? ","2000","2002","","0","0","0","competitive","left","1.30855202675","1864.72827482","3.69144797325","1868.57595181","2.53918290138","1871.11521578","3.46081709862","1874.62708879","1876.48908091","1876.56182098","1879.56480598","0","1879.5788939","1886.97254491",""
"sujeto_0025043","1","2","24","56","1887.11389089","inverse","2","1","1","¿Cuál es la canción con 
mas covers? ","Yesterday","Stand by me","","0","0","0","competitive","left","1.85724401474","1888.97122478","3.14275598526","1892.30534887","3.26877689362","1895.574193","2.73122310638","1898.35611677","1899.75467896","1899.82458591","1902.82728291","0","1902.8409338","1907.01177096",""
"sujeto_0025043","1","2","25","57","1907.14281297","direct","1","1","4","¿Cuánto duró la guerra
 de los 100 años?","116","123","","0","0","0","competitive","left","1.58260798454","1908.72549295","3.41739201546","1912.33093786","3.18919992447","1915.52017879","2.81080007553","1918.38225389","1919.86308289","1919.93392301","1922.93690586","0","1922.95131993","1925.27109098",""
"sujeto_0025043","1","2","26","58","1925.4367938","inverse","4","1","4","¿Qué color tiene la  bandera de Brasil?","Amarillo","Naranja","left","0","0","1","competitive","left","1.45390200615","1926.89074779","3.54609799385","1930.58883286","2.7852768898","1933.37414789","3.2147231102","1936.64044499","1938.206954","1938.29197097","1941.29493785","1","1941.31011987","1944.34291387",""
"sujeto_0025043","1","2","27","59","1944.47844291","direct","4","1","3","¿Qué carabela de 
Colon no volvió del viaje?","Santa María","La pinta","","0","0","1","competitive","left","2.23765993118","1946.71617198","2.76234006882","1949.65056682","4.74356889725","1954.39417696","1.25643110275","1955.68612599","1957.17718482","1957.25386786","1960.25685883","0","1960.27101994","1962.37047887",""
"sujeto_0025043","1","2","28","60","1962.50538087","inverse","4","1","4","¿Cuántos huesos tiene
 un adulto humano?","217","206","","0","0","1","competitive","right","1.71677803993","1964.22226501","3.28322196007","1967.67787194","3.28317499161","1970.96108794","2.71682500839","1973.72784591","1974.99888182","1975.07897186","1978.081949","0","1978.09686399","1985.93455386",""
"sujeto_0025043","1","2","29","61","1986.06412578","direct","1","1","1","¿Qué país africano fue 
fundado por esclavos?","Liberia","Chad","","0","0","0","competitive","left","2.18698406219","1988.25118589","2.81301593781","1991.25388384","3.82230496407","1995.07623696","2.17769503593","1997.30766487","1999.29933095","1999.37476087","2002.37774301","0","2002.39295197","2010.38379979",""
"sujeto_0025043","1","2","30","62","2010.52719092","inverse","4","1","2","¿A cuánto asciende la cima
 del monte Everest?","7.990 mts","8.848 mts","","0","0","1","individual","right","1.80494713783","2012.33218193","3.19505286217","2015.70250893","3.69661712646","2019.39920092","2.30338287354","2021.75274587","2022.93759179","2022.98702884","2025.98997188","0","2026.00426388","2033.18829894",""
"sujeto_0025043","1","2","31","63","2033.32267284","direct","4","1","1","¿Cuál es el país mas chico?","Sealand","Luxemburgo","","1","1","1","individual","right","1.16267800331","2034.48540497","3.83732199669","2038.47988582","3.16230893135","2041.64225483","2.83769106865","2044.51374388","2046.377249","2046.41512394","2049.41809797","1","2049.432724","2052.55499983",""
"sujeto_0025043","1","2","32","64","2052.71789789","inverse","2","1","4","¿Cuántas pirámides hay en Egipto?","10000","11000","","1","1","1","competitive","left","1.55324006081","2054.27120996","3.44675993919","2057.87413287","3.39693784714","2061.27110887","2.60306215286","2063.90779281","2064.9413898","2065.00969696","2068.01127791","1","2068.02582288","2073.13489699",""
"sujeto_0025043","1","3","1","65","2190.25776601","direct","2","1","2","¿Cuál es el quinto país con 
mas extensión?","Canadá","Brasil","","1","1","0","competitive","right","1.41140198708","2191.66921091","3.58859801292","2195.41169286","2.99548196793","2198.40721989","3.00451803207","2201.44451284","2202.7778039","2202.84604597","2205.84899092","1","2205.86403394","2213.58728099","2073.1493938"
"sujeto_0025043","1","3","2","66","2213.74894786","inverse","1","1","2","¿Qué rasgo facial no tiene
 la Mona Lisa?","Cejas","Pómulos","","0","0","1","competitive","left","0.88735294342","2214.6363759","4.11264705658","2218.88988495","2.54527807236","2221.43520498","3.45472192764","2224.92377591","2226.674191","2226.75854182","2229.76151681","0","2229.77550077","2236.04683685",""
"sujeto_0025043","1","3","3","67","2236.19407797","direct","4","1","3","¿Cuál es el país con 
mayor población?","Esados Unidos","China","right","0","0","1","competitive","right","1.42407202721","2237.61819696","3.57592797279","2241.34892583","2.55824804306","2243.90721798","3.44175195694","2247.40015483","2249.046134","2249.11866879","2252.12165785","1","2252.1370039","2255.50432897",""
"sujeto_0025043","1","3","4","68","2255.67090583","inverse","1","1","1","La palabra dinosaurio significa","Lagarto Terrible","Lagarto Dragón","","1","1","0","competitive","left","1.09642195702","2256.76740384","3.90357804298","2260.82823992","3.90098309517","2264.72929192","2.09901690483","2266.87873077","2268.04903579","2268.13004994","2271.13302398","1","2271.14717889","2274.00899482",""
"sujeto_0025043","1","3","5","69","2274.14861679","direct","2","1","3","¿Qué es el membrillero?","Arbol","Arbusto","","0","0","0","competitive","right","1.65254807472","2275.80124378","3.34745192528","2279.30484796","3.59822106361","2282.9031229","2.40177893639","2285.35545278","2287.30953884","2287.38955593","2290.39254498","0","2290.40742278","2296.87146187",""
"sujeto_0025043","1","3","6","70","2297.00933599","inverse","3","1","3","¿Alrededor de qué planeta orbita 
el satélite Europa?","Jupiter","Saturno","","1","1","1","competitive","left","0.947903156281","2297.95728588","4.05209684372","2302.16616488","3.47793006897","2305.6441319","2.52206993103","2308.19992399","2309.74472785","2309.81766582","2312.819242","1","2312.83513498","2315.04028893",""
"sujeto_0025043","1","3","7","71","2315.170331","direct","3","1","1","¿Donde fue el mundial de 
fútbol de 1954?","Suiza","Suecia","","1","1","1","competitive","left","1.34083294868","2316.51121283","3.65916705132","2320.32493877","3.7331969738","2324.0581758","2.2668030262","2326.37564778","2327.62826395","2327.7102809","2330.713274","1","2330.72747087","2334.63925481",""
"sujeto_0025043","1","3","8","72","2334.77987385","inverse","1","1","4","¿Cuál de los 7 enanitos
no tenía barba?","Bashful","Mudito","","1","1","0","competitive","right","1.21432185173","2335.99426699","3.78567814827","2339.93599892","4.36419916153","2344.30026579","1.63580083847","2345.98689485","2347.56702781","2347.63690186","2350.639292","1","2350.65435386","2355.58344889",""
"sujeto_0025043","1","3","9","73","2355.72336292","direct","3","1","2","¿Cual red social es
mas utilizada mundialmente?","Instagram","Facebook","","1","1","0","individual","right","1.24990320206","2356.97334599","3.75009679794","2360.89605594","3.43412613869","2364.33028483","2.56587386131","2366.94705892","2368.86440897","2368.91502285","2371.91799879","1","2371.93293095","2374.86738992",""
"sujeto_0025043","1","3","10","74","2375.00076079","inverse","4","1","1","¿Cuándo se inició la copa
 América de fútbol?","1916","1923","","1","1","1","individual","right","1.45939898491","2376.46022892","3.54060101509","2380.15693378","3.74020600319","2383.89717984","2.25979399681","2386.20777583","2388.10524583","2388.14232278","2391.14522886","1","2391.15942883","2393.8155539",""
"sujeto_0025043","1","3","11","75","2393.96065879","direct","3","1","4","¿Cuántos presidentes de EEUU
han muerto asesinados?","3","4","","0","0","1","competitive","left","1.71461009979","2395.67537379","3.28538990021","2399.13295698","2.47326207161","2401.60627985","3.52673792839","2405.18291998","2406.66688085","2406.75134397","2409.75433278","0","2409.7686038","2413.41271186",""
"sujeto_0025043","1","3","12","76","2413.55391479","inverse","2","1","4","¿Cuántas veces participó EEUU
 en la copa América?","4","5","","0","0","1","competitive","left","1.0764029026","2414.6303668","3.9235970974","2418.70949078","3.88973903656","2422.59927487","2.11026096344","2424.76074982","2426.20486784","2426.27802896","2429.28099799","0","2429.29485798","2435.41201401",""
"sujeto_0025043","1","3","13","77","2435.56408596","direct","4","1","1","¿Cuál de estos países 
no formaba la URSS?","Azeribayán","Afganistán","","0","0","1","individual","left","1.25320100784","2436.81733894","3.74679899216","2440.73540092","4.54272389412","2445.27816486","1.45727610588","2446.77054286","2448.08362699","2448.12161589","2451.12459683","0","2451.13876081","2459.12092996",""
"sujeto_0025043","1","3","14","78","2459.25657797","inverse","1","1","1","¿En qué año se inauguró
 el teatro Solís?","1867","1856","","0","0","0","competitive","left","1.06568217278","2460.322335","3.93431782722","2464.4174149","3.8297958374","2468.24725795","2.1702041626","2470.46698785","2471.5232358","2471.60216784","2474.60512996","0","2474.61929798","2481.26321793",""
"sujeto_0025043","1","3","15","79","2481.40371799","direct","1","1","4","¿A qué velocidad vuela 
el avión más rápido?","3529","3874","","0","0","0","competitive","left","1.52548193932","2482.92924285","3.47451806068","2486.56118178","3.63491010666","2490.19614887","2.36508989334","2492.61137986","2494.36689496","2494.446383","2497.44724584","0","2497.46338391","2499.57365489",""
"sujeto_0025043","1","3","16","80","2499.73185778","inverse","3","1","4","¿De qué año es la primer 
película cinematográfica?","1897","1888","","0","0","0","competitive","left","1.16340112686","2500.89537287","3.83659887314","2504.92077899","3.06230592728","2507.98314595","2.93769407272","2510.95471191","2512.08724284","2512.17276883","2515.17575788","0","2515.18964386","2520.59924984",""
"sujeto_0025043","1","3","17","81","2520.79163599","direct","2","1","3","¿Cuántos países 
tiene nuestro planeta?","191","194","","1","1","1","competitive","right","1.41459298134","2522.20629692","3.58540701866","2525.96470594","3.58749198914","2529.5522368","2.41250801086","2532.01275277","2533.36996484","2533.44794297","2536.45095301","1","2536.46506381","2539.70332789",""
"sujeto_0025043","1","3","18","82","2539.86753583","inverse","2","1","2","¿Cuántos habitantes
 tiene Buenos Aires?","2.9000.000","3650000","","0","0","0","competitive","left","1.55968785286","2541.42728877","3.44031214714","2545.02469182","2.75242686272","2547.77717686","3.24757313728","2551.07471895","2552.47201085","2552.54383683","2555.54684997","0","2555.56101298","2561.38724279",""
"sujeto_0025043","1","3","19","83","2561.52855897","direct","2","1","1","¿Cuántos kilos forman una tonelada?","1000","1500","left","1","1","1","individual","left","1.62861514091","2563.15721989","3.37138485909","2566.70249701","2.42769193649","2569.130229","3.57230806351","2572.73615694","2574.62349582","2574.67158484","2577.67452884","1","2577.68852878","2583.64596391",""
"sujeto_0025043","1","3","20","84","2583.79052997","inverse","4","1","4","¿Cuántos estados tiene la 
República del Perú? ","24","23","","0","0","1","competitive","left","1.28371310234","2585.07429194","3.71628689766","2588.94724298","2.97093915939","2591.9182229","3.02906084061","2594.99731994","2596.01949692","2596.09889579","2599.09923792","0","2599.1162169","2604.06152582",""
"sujeto_0025043","1","3","21","85","2604.20054984","direct","3","1","3","¿En qué año nació Cristóbal Colón? ","1451","1447","","0","0","1","competitive","left","1.75722885132","2605.95785189","3.24277114868","2609.35764599","4.21854400635","2613.57623196","1.78145599365","2615.40862083","2617.25449586","2617.32617593","2620.32725","0","2620.34436083","2624.5712328",""
"sujeto_0025043","1","3","22","86","2624.71293879","inverse","4","1","4","¿Cuánto mide la 
Montaña Aconcagua? ","6234","6962","","0","0","1","competitive","right","0.931354045868","2625.6443398","4.06864595413","2629.88404393","3.60614299774","2633.49024487","2.39385700226","2635.93561196","2637.22500086","2637.30361295","2640.30655193","0","2640.32077479","2647.50323796",""
"sujeto_0025043","1","3","23","87","2647.63863587","direct","2","1","4","¿Cuánto mide el punto
 más profundo del océano? ","12508","11003","","0","0","1","individual","left","1.42355895042","2649.06223893","3.57644104958","2652.81317186","4.09501099586","2656.90824199","1.90498900414","2658.86412191","2660.11564279","2660.16574478","2663.16871786","0","2663.1818068","2667.38805699",""
"sujeto_0025043","1","3","24","88","2667.5170958","inverse","1","1","3","¿Cuántos álbumes ha publicado 
el cantante Jaime Roos? ","41","34","","0","0","1","competitive","right","1.63010692596","2669.14726877","3.36989307404","2672.67211795","3.67707514763","2676.34923291","2.32292485237","2678.70643282","2680.19526291","2680.2747798","2683.27775884","0","2683.29186487","2689.48723793",""
"sujeto_0025043","1","3","25","89","2689.62736082","direct","4","1","3","¿En qué año nació el 
ex-presidente Jorge Battle? ","1921","1927","","1","1","1","individual","left","1.82085609436","2691.44828296","3.17914390564","2694.81835294","3.65281414986","2698.47122788","2.34718585014","2700.86969399","2702.6003859","2702.63754296","2705.63928294","1","2705.65433383","2709.13927484",""
"sujeto_0025043","1","3","26","90","2709.30619884","inverse","1","1","3","¿Cuántas presidencias 
constitucionales  hubo en Uruguay? ","41","42","","0","0","1","competitive","left","1.16112303734","2710.46739292","3.83887696266","2714.46142387","3.53173899651","2717.99321985","2.46826100349","2720.51217389","2721.71594286","2721.7969718","2724.79998398","0","2724.81417179","2730.59525585",""
"sujeto_0025043","1","3","27","91","2730.73231983","direct","1","1","2","¿Quién escribió mas sinfonías?","Mozart","Haydn","","1","1","0","individual","right","1.00301599503","2731.73541284","3.99698400497","2735.88931489","4.03200292587","2739.92136097","1.96799707413","2741.93992281","2743.15735078","2743.20835996","2746.2113018","1","2746.22548199","2749.97523999",""
"sujeto_0025043","1","3","28","92","2750.12645483","inverse","4","1","2","¿En qué año nació Michael Jackson?","1958","1953","","1","1","1","individual","right","1.89176106453","2752.01826477","3.10823893547","2755.3328228","3.09139800072","2758.42426586","2.90860199928","2761.38260579","2763.36084485","2763.40077686","2766.40329599","1","2766.41935492","2772.28168392",""
"sujeto_0025043","1","3","29","93","2772.4375248","direct","3","1","2","¿En qué año entró en vigencia 
la ley antitabaco en Uruguay?","2005","2006","","1","1","1","individual","right","1.86673092842","2774.30433679","3.13326907158","2777.64443588","4.26282215118","2781.9073019","1.73717784882","2783.695225","2785.28998089","2785.32930183","2788.33227682","1","2788.34752584","2793.68151999",""
"sujeto_0025043","1","3","30","94","2793.86505389","inverse","3","1","1","¿Cuándo se subió el 
primer video a youtube?","2004","2005","","0","0","1","individual","left","1.73715114594","2795.60227084","3.26284885406","2799.03927088","2.64800715446","2801.68733692","3.35199284554","2805.08859777","2806.39420199","2806.44056296","2809.44351387","0","2809.45766377","2817.21325088",""
"sujeto_0025043","1","3","31","95","2817.37641382","direct","2","1","1","¿Cuántos habitantes tiene India?","1200 millones","1300 millones","","0","0","0","competitive","right","1.30281996727","2818.6792779","3.69718003273","2822.53403282","3.80321192741","2826.33730578","2.19678807259","2828.58466887","2830.55425477","2830.63621092","2833.63915992","0","2833.65338683","2839.70093584",""
"sujeto_0025043","1","3","32","96","2839.85520387","inverse","4","1","2","¿A qué edad murió Bob Marley?","36","37","","0","0","1","individual","right","1.92316699028","2841.77848697","3.07683300972","2845.02939296","3.56377315521","2848.59320593","2.43622684479","2851.06300783","2852.96084285","2853.0137639","2856.01672482","0","2856.03172994","2859.13417578",""
"sujeto_0025043","1","4","1","97","2982.17883778","direct","2","1","1","¿Cuantos años dirigió la selección 
uruguaya Tabarez?","15 años","13 años","","0","0","0","competitive","left","1.41240692139","2983.59128785","3.58759307861","2987.385144","3.06408119202","2990.4492929","2.93591880798","2993.4362998","2994.6274569","2994.7038548","2997.70681596","0","2997.72092295","3004.79297495","2859.14895296"
"sujeto_0025043","1","4","2","98","3004.9389379","inverse","4","1","1","¿Cuantas teclas tiene un teclado 
de computadora generalmente? ","Entre 99 y 108","Entre 109 y 113","","1","1","1","competitive","left","1.08539295197","3006.02437997","3.91460704803","3010.11256385","4.64257383347","3014.75520587","1.35742616653","3016.14839101","3017.15110397","3017.23266387","3020.235286","1","3020.249295","3022.62072492",""
"sujeto_0025043","1","4","3","99","3022.75051188","direct","1","1","1","¿Cuál Departamento tiene
 mayor superficie?","Río Negro","Soriano","","0","0","0","competitive","left","2.18776297569","3024.9383769","2.81223702431","3027.91964579","3.87262988091","3031.79231381","2.12737011909","3033.9746058","3035.68805599","3035.75896692","3038.76196694","0","3038.77613688","3043.102211",""
"sujeto_0025043","1","4","4","100","3043.24426389","inverse","3","1","2","¿Cuál es el apellido de las 
hermanastras  de  cenicienta?","Tremaine","Truman","","0","0","1","individual","left","1.38996601105","3044.63427281","3.61003398895","3048.40043497","4.03678107262","3052.43727398","1.96321892738","3054.45171595","3056.32118893","3056.36883688","3059.37180686","0","3059.38593793","3062.08189797",""
"sujeto_0025043","1","4","5","101","3062.22136784","direct","4","1","4","¿Cuál película ganó un
 Oscar a mejor película?","Alto Impacto","Cache","","0","0","1","competitive","left","1.65690302849","3063.87834787","3.34309697151","3067.40977979","5.26441192627","3072.67425585","0.73558807373","3073.46195889","3074.58136082","3074.66171384","3077.66466498","0","3077.67854285","3079.9431479",""
"sujeto_0025043","1","4","6","102","3080.08054495","inverse","1","1","3","¿A cuántos centímetros
equivale la medida pié?","25","30","","0","0","1","competitive","left","1.52504205704","3081.60564399","3.47495794296","3085.23544788","4.10585188866","3089.34136391","1.89414811134","3091.28701878","3092.32698393","3092.40439892","3095.40728593","0","3095.42157292","3100.82255077",""
"sujeto_0025043","1","4","7","103","3101.00652981","direct","2","1","2","¿Qué departamento es mas grande?","Cerro Largo","Paysandú","","0","0","0","competitive","right","2.54069900513","3103.54727793","2.45930099487","3106.17967796","2.8875951767","3109.06733489","3.1124048233","3112.23062992","3113.83034587","3113.89941978","3116.90240097","0","3116.91678286","3121.026752",""
"sujeto_0025043","1","4","8","104","3121.16734099","inverse","2","1","3","¿Quién pintó la Mona Lisa?","Picasso","Da Vinci","right","0","0","1","competitive","right","1.48891091347","3122.65631795","3.51108908653","3126.32386684","2.96839690208","3129.29233098","3.03160309792","3132.37374091","3133.9792068","3134.05891585","3137.05929494","1","3137.07613182","3139.23845983",""
"sujeto_0025043","1","4","9","105","3139.37852883","direct","4","1","3","¿Cuántos litros hay en un galon?","3.54","3.78","","1","1","1","individual","right","1.42170095444","3140.80029988","3.57829904556","3144.53235984","2.41890287399","3146.95132899","3.58109712601","3150.58225584","3152.09927487","3152.15125799","3155.1542058","1","3155.16839695","3160.96074891",""
"sujeto_0025043","1","4","10","106","3161.10317183","inverse","4","1","1","¿Cuántas teclas tiene
 un piano moderno?","80","88","","0","0","1","individual","right","1.44608211517","3162.54930186","3.55391788483","3166.27750778","3.86370611191","3170.14125586","2.13629388809","3172.3110199","3173.31924391","3173.36268377","3176.36564994","0","3176.38041997","3183.1752708",""
"sujeto_0025043","1","4","11","107","3183.31390381","direct","4","1","3","¿Cuántos países hay en África?","54","62","","0","0","1","individual","left","1.51135396957","3184.82530284","3.48864603043","3188.50532889","2.80991601944","3191.31530499","3.19008398056","3194.53934479","3196.22989988","3196.27434182","3199.27731586","0","3199.29130077","3207.09607196",""
"sujeto_0025043","1","4","12","108","3207.2766099","inverse","1","1","3","¿En qué siglo se crearon
 las primeras pistolas?","XV","XIII","","1","1","1","competitive","right","1.18376898766","3208.46043992","3.81623101234","3212.43427587","3.91099381447","3216.34530997","2.08900618553","3218.46835399","3220.41626477","3220.50268292","3223.50567389","1","3223.52077699","3226.75387788",""
"sujeto_0025043","1","4","13","109","3226.889045","direct","3","1","4","¿En qué año se estrenó 
la serie friends?","1994","1995","","0","0","1","competitive","left","1.45823192596","3228.34737778","3.54176807404","3232.09088492","3.2483561039","3235.33928299","2.7516438961","3238.12614393","3240.00148797","3240.07773089","3243.08071184","0","3243.09488893","3248.10095692",""
"sujeto_0025043","1","4","14","110","3248.29732299","inverse","3","1","4","¿En qué año nació Hitler?","1889","1887","","0","0","1","competitive","right","1.19599413872","3249.49336696","3.80400586128","3253.45520377","3.02010607719","3256.47534895","2.97989392281","3259.50617695","3260.62055993","3260.69093895","3263.69124198","0","3263.70737386","3268.73431587",""
"sujeto_0025043","1","4","15","111","3268.89302588","direct","1","1","4","¿Cuánto pesa un elefante Africano?","6000 kilos","5400 kilos","","0","0","0","competitive","left","1.12128591537","3270.01438093","3.87871408463","3274.04984188","2.93546199799","3276.98536301","3.06453800201","3280.10018778","3281.45605278","3281.5348568","3284.537853","0","3284.55185485","3291.25521278",""
"sujeto_0025043","1","4","16","112","3291.38718295","inverse","1","1","2","¿Qué porcentaje de 
la población es zurda?","10%","7%","","1","1","0","competitive","right","1.22109413147","3292.60837388","3.77890586853","3296.57756281","2.40667700768","3298.98429894","3.59332299232","3302.62731981","3303.87043881","3303.94559383","3306.94857287","1","3306.96350884","3312.94323993",""
"sujeto_0025043","1","4","17","113","3313.0815289","direct","1","1","2","¿En qué año se estrenó
Volver al futuro?","1984","1985","","0","0","1","competitive","right","1.59028697014","3314.67188787","3.40971302986","3318.23635983","3.35397291183","3321.59039688","2.64602708817","3324.289114","3325.85092688","3325.923666","3328.92663193","0","3328.94095683","3336.03241181",""
"sujeto_0025043","1","4","18","114","3336.17613792","inverse","3","1","2","¿Cuántos jugadores hay en un 
equipo de baseball?","9","8","","1","1","0","individual","left","2.06713819504","3338.24333978","2.93286180496","3341.34909797","3.86013293266","3345.20928979","2.13986706734","3347.3845768","3348.99884892","3349.03486085","3352.03783083","1","3352.05305386","3357.03028584",""
"sujeto_0025043","1","4","19","115","3357.17075777","direct","2","1","1","¿Cuántos Oscar ganó
 la película titanic?","13","11","","1","1","1","individual","right","1.55155706406","3358.72238183","3.44844293594","3362.32756495","3.32171106339","3365.64933491","2.67828893661","3368.37866998","3369.68074584","3369.7297008","3372.73122001","1","3372.74696779","3377.34963799",""
"sujeto_0025043","1","4","20","116","3377.49876189","inverse","4","1","4","¿En qué año comenzó
la segunda guerra mundial?","1939","1976","left","0","0","1","competitive","left","1.23565101624","3378.73448682","3.76434898376","3382.67191195","3.55939793587","3386.23135281","2.44060206413","3388.70581198","3390.5056448","3390.59047484","3393.59345579","1","3393.6078999","3397.59505486",""
"sujeto_0025043","1","4","21","117","3397.74270678","direct","2","1","4","¿Cuántos biomas hay en Uruguay?","5","4","","0","0","1","competitive","right","1.58989810944","3399.3327198","3.41010189056","3402.92968583","4.17446088791","3407.10420799","1.82553911209","3408.96523094","3410.76256585","3410.85053682","3413.85353279","0","3413.86763382","3420.11705995",""
"sujeto_0025043","1","4","22","118","3420.25248384","inverse","2","1","3","¿Cuándo murió Pablo Escobar?","1993","1997","","1","1","1","competitive","left","1.09090304375","3421.3434639","3.90909695625","3425.41048884","3.80978083611","3429.22030997","2.19021916389","3431.44482398","3433.22766685","3433.31243587","3436.3153758","1","3436.32972693","3442.03339386",""
"sujeto_0025043","1","4","23","119","3442.19779181","direct","1","1","4","¿Qué serie ha ganado mas premios?","Friends","Murphy Brown","","1","1","0","competitive","left","1.0266149044","3443.22446084","3.9733850956","3447.35492587","3.80036783218","3451.1553328","2.19963216782","3453.40574193","3454.75808001","3454.84019494","3457.84312296","1","3457.85713482","3463.41875482",""
"sujeto_0025043","1","4","24","120","3463.57578897","inverse","4","1","2","¿Cuántas fichas tiene el dominó?","26","28","","1","1","1","individual","left","1.37247896194","3464.94832993","3.62752103806","3468.73295999","2.77232217789","3471.50532699","3.22767782211","3474.78397679","3475.839257","3475.88513684","3478.88722587","1","3478.90155101","3484.1432178",""
"sujeto_0025043","1","4","25","121","3484.28693795","direct","2","1","4","¿Cuántos son los dientes de leche?","20","25","","0","0","1","competitive","left","0.905409097672","3485.19241691","4.09459090233","3489.44060683","2.6865978241","3492.12726188","3.3134021759","3495.49116492","3497.20149899","3497.27722692","3500.27922487","0","3500.2945118","3502.43922281",""
"sujeto_0025043","1","4","26","122","3502.59624696","inverse","3","1","3","¿Cuántos gramos son una onza?","22","28","","0","0","1","competitive","left","1.16812896729","3503.76445484","3.83187103271","3507.75347996","2.71575903893","3510.46930885","3.28424096107","3513.802526","3515.79734397","3515.87163782","3518.87460399","0","3518.8887949","3525.17907095",""
"sujeto_0025043","1","4","27","123","3525.30757999","direct","3","1","1","¿Cuándo salió el primer album
 de los Beatles?","1963","1962","","1","1","1","individual","right","1.0488049984","3526.356462","3.9511950016","3530.46575594","3.7815310955","3534.24732685","2.2184689045","3536.51549697","3537.6791029","3537.71674085","3540.71971393","1","3540.73360896","3544.50562978",""
"sujeto_0025043","1","4","28","124","3544.68557096","inverse","3","1","3","¿Quién fundó la empresa apple?","Carlos Slim","Steve Jobs","","1","1","1","competitive","right","1.2757101059","3545.96132493","3.7242898941","3549.84143281","2.40276098251","3552.24423099","3.59723901749","3555.89113379","3557.00584292","3557.07633686","3560.07926798","1","3560.09413886","3566.39124584",""
"sujeto_0025043","1","4","29","125","3566.52898479","direct","4","1","2","¿Cuántos municipios hay
 en Montevideo?","8","7","","1","1","1","individual","right","1.11138892174","3567.64044881","3.88861107826","3571.69990182","3.53235602379","3575.23229599","2.46764397621","3577.75253677","3579.66731787","3579.70359683","3582.70656991","1","3582.72074294","3584.80188894",""
"sujeto_0025043","1","4","30","126","3584.94004297","inverse","1","1","1","¿Cuántos kilómetros hay
 de Montevideo a Artigas?","632","599","","0","0","0","competitive","left","1.11240506172","3586.05252695","3.88759493828","3590.09591985","3.75938391685","3593.85534286","2.24061608315","3596.12996292","3597.61307383","3597.6976068","3600.70059681","0","3600.71489477","3606.7670269",""
"sujeto_0025043","1","4","31","127","3606.91602278","direct","2","1","2","¿En qué año nació 
Leonardo Da Vinci?","1452","1511","","1","1","0","competitive","right","1.47076797485","3608.38685799","3.52923202515","3612.07282591","2.31948494911","3614.39237499","3.68051505089","3618.1232729","3619.97686386","3620.05857778","3623.06156182","1","3623.07607889","3626.22248793",""
"sujeto_0025043","1","4","32","128","3626.37752891","inverse","3","1","1","¿A qué continente
 pertenece el país Gabón?","Africa","Oceanía","","0","0","1","individual","left","1.21584010124","3627.59341979","3.78415989876","3631.53094888","4.180300951","3635.71131086","1.819699049","3637.56664801","3639.37830496","3639.41805387","3642.41925097","0","3642.43546987","3647.67336297",""
