"code","nro_aplicante","nro_bloque","nro_trial_bloque","nro_trial_global","show_game_type","choice_order","rival","pay_individual","pay_competitive","question","answer_left_text","answer_right_text","correct_answer","outcome_individual","outcome_competitive","outcome_rival","game_type","answer","social_time","rt_game_type","feedback_delay","show_question","answer_time","rt_answer_global","feedback_delay_2","show_jitter","jitter_time","show_outcome","outcome_time","outcome_participant_real","show_final_jitter","second_jitter_time","inicio_descanso"
"sujeto_1bb5ad4b","1","1","1","1","640.613240004","direct","3","1","4","¿Cuántos centímetros corresponden
al talle 36 del calzado?","23","24","","0","0","1","competitive","right","1.86638021469","642.479682922","3.13361978531","645.783036947","5.28860902786","651.071709871","0.711390972137","651.833947897","652.862267971","652.934738874","655.937670946","0","655.951699972","658.114235878",""
"sujeto_1bb5ad4b","1","1","2","2","658.253470898","inverse","3","1","2","¿Cuántas metros mide la Intendencia
Municipal de Montevideo? ","84","78","","0","0","1","competitive","","1.78522491455","660.038764","3.21477508545","663.408346891","6","669.408487082","0","669.424227953","671.301313877","671.376731873","674.379688025","0","674.394964933","676.487709999",""
"sujeto_1bb5ad4b","1","1","3","3","676.645885944","direct","1","1","3","¿Cuántas La Pasiva
 hay en uruguay?","15","11","","1","1","1","competitive","left","2.47979998589","679.125750065","2.52020001411","681.797175884","4.05059409142","685.847828865","1.94940590858","687.834847927","689.446551085","689.518846035","692.521811008","1","692.536421061","696.814719915",""
"sujeto_1bb5ad4b","1","1","4","4","696.957239866","inverse","3","1","3","¿De que color es la camiseta de uruguay?","blanca","celeste","right","1","1","1","competitive","right","1.29451489449","698.251847982","3.70548510551","702.111612082","4.16225910187","706.273930073","1.83774089813","708.145298958","709.350044966","709.430189848","712.433152914","1","712.447645903","715.901578903",""
"sujeto_1bb5ad4b","1","1","5","5","716.050351858","direct","2","1","1","¿Cuánto metros mide
la torre Eiffel?","333","324","","1","1","1","competitive","left","1.35855507851","717.408972025","3.64144492149","721.18789506","4.02405500412","725.212018967","1.97594499588","727.238945961","728.760339022","728.840180874","731.843159914","1","731.857332945","738.892400026",""
"sujeto_1bb5ad4b","1","1","6","6","739.030464888","inverse","3","1","4","¿Cuantas ciudades existen
 en todo el uruguay?","63","72","","0","0","1","competitive","right","1.67751693726","740.708044052","3.32248306274","744.183325052","3.77761292458","747.960994005","2.22238707542","750.231971025","751.286813974","751.366603851","754.369590044","0","754.384386063","762.010954857",""
"sujeto_1bb5ad4b","1","1","7","7","762.156693935","direct","1","1","1","¿Cuantos estados tiene África?","52","54","","1","1","0","competitive","left","1.32840800285","763.485163927","3.67159199715","767.31114006","4.40902709961","771.720227003","1.59097290039","773.34522891","775.209233046","775.279605865","778.282562017","1","778.297165871","784.055405855",""
"sujeto_1bb5ad4b","1","1","8","8","784.200204849","inverse","4","1","4","¿En qué año nació
 Stephen Hawking?","1952","1942","","0","0","1","competitive","right","1.46511793137","785.665386915","3.53488206863","789.35730505","4.84902501106","794.206390858","1.15097498894","795.408365965","796.85263896","796.925061941","799.928030968","0","799.942766905","806.042151928",""
"sujeto_1bb5ad4b","1","1","9","9","806.179913044","direct","2","1","3","¿Cuánto años tenía Artigas
 cuando se fue a Paraguay?","56","57","","1","1","1","competitive","left","1.4795191288","807.659476995","3.5204808712","811.335263014","4.69912004471","816.034443855","1.30087995529","817.386671066","818.936192036","819.020318985","822.023298025","1","822.037586927","828.084897995",""
"sujeto_1bb5ad4b","1","1","10","10","828.22290802","inverse","1","1","2","¿Cuantos milímetros 
mide una hoja A2?","420x592","420x594","","0","0","1","individual","right","2.72659802437","830.94954896","2.27340197563","833.379876852","4.70666313171","838.086606026","1.29333686829","839.448144913","841.016586065","841.066264868","844.068418026","0","844.083664894","851.157343864",""
"sujeto_1bb5ad4b","1","1","11","11","851.321204901","direct","3","1","3","¿Cuál es la menor temperatura 
registrada en Uruguay?","-5.4","-7.4","","0","0","1","competitive","left","1.2634499073","852.584722996","3.7365500927","856.474447966","5.34821796417","861.822735071","0.651782035828","862.526129961","864.207350969","864.293148041","867.296130896","0","867.310839891","871.044112921",""
"sujeto_1bb5ad4b","1","1","12","12","871.180633068","inverse","2","1","2","¿Cuantos años hace que 
se fundó facebook?","18","17","","0","0","0","competitive","left","1.83101296425","873.011685848","3.16898703575","876.369054079","4.92875599861","881.297869921","1.07124400139","882.403300047","883.776032925","883.853671074","886.856648922","0","886.871217966","889.645377874",""
"sujeto_1bb5ad4b","1","1","13","13","889.791627884","direct","1","1","4","¿Cuál animal es más
 pesado en promedio?","Rinoceronte","Hipopotamo","","0","0","0","competitive","","1.64026904106","891.431944847","3.35973095894","894.945174932","6","900.945345879","0","900.960216999","902.039366961","902.113857031","905.116802931","0","905.130522013","908.971531868",""
"sujeto_1bb5ad4b","1","1","14","14","909.164108992","inverse","1","1","2","¿Qué personaje de dragon ball 
murió más veces?","Chaoz","Krillin","","1","1","0","competitive","right","2.55744385719","911.721629858","2.44255614281","914.32032299","4.86674785614","919.187114","1.13325214386","920.37399292","921.831842899","921.907157898","924.91009593","1","924.925288916","932.698171854",""
"sujeto_1bb5ad4b","1","1","15","15","932.847403049","direct","3","1","2","La universidad de oxford. 
existe desde:","1096","1249","","1","1","0","competitive","left","1.0857360363","933.933181047","3.9142639637","937.999325991","5.01086497307","943.010231018","0.989135026932","944.034267902","945.083050013","945.16848588","948.171429873","1","948.185101986","954.875987053",""
"sujeto_1bb5ad4b","1","1","16","16","955.020313978","inverse","3","1","1","¿Qué escritor latino ganó antes
 el premio nobel?"," García Marquez","Neruda","","0","0","1","competitive","right","1.24200487137","956.262379885","3.75799512863","960.1625669","5.25477290154","965.417382956","0.745227098465","966.213824987","967.953809023","968.031079054","971.03408289","0","971.048757076","974.509270906",""
"sujeto_1bb5ad4b","1","1","17","17","974.649832964","direct","4","1","3","¿Cuántos dientes tiene un
 tiburón blanco?","6000","3000","","0","0","1","competitive","left","1.01463103294","975.664524078","3.98536896706","979.806011915","4.46746087074","984.273535013","1.53253912926","985.85731101","986.896332979","986.975017071","989.978013039","0","989.992514849","994.802190065",""
"sujeto_1bb5ad4b","1","1","18","18","994.942461014","inverse","4","1","1","¿Cuánto mide el paralelo Ecuador?","40.000km","70.000km","","0","0","1","competitive","right","1.92118501663","996.86371994","3.07881498337","1000.11656404","4.33608102798","1004.45268393","1.66391897202","1006.16827297","1008.12443399","1008.20249987","1011.20540404","0","1011.22082806","1014.82342696",""
"sujeto_1bb5ad4b","1","1","19","19","1014.97100401","direct","4","1","2","¿Cuál fue el primer libro 
de Stephen King?","Carrie","The Stand","","1","1","1","competitive","right","1.55868911743","1016.52975488","3.44131088257","1020.12751889","5.0942709446","1025.22185087","0.905729055405","1026.17885089","1027.922925","1027.99615002","1030.99907804","1","1031.01355886","1035.48799491",""
"sujeto_1bb5ad4b","1","1","20","20","1035.63437986","inverse","2","1","3","¿Qué civilización practicaba
 la momificación?","Grecia","Egipto","right","0","0","1","competitive","","1.2065410614","1036.84096503","3.7934589386","1040.78743601","6","1046.78757501","0","1046.80372095","1048.74299788","1048.82287598","1051.82580996","0","1051.84063506","1056.06946707",""
"sujeto_1bb5ad4b","1","1","21","21","1056.21044493","direct","4","1","4","¿Cuántos millones de visitas
 recibe google por minuto?","3.0","4.5","","0","0","1","competitive","left","1.69859600067","1057.90910602","3.30140399933","1061.36532187","4.22275996208","1065.58812189","1.77724003792","1067.41678405","1068.93166804","1069.01737905","1072.02034688","0","1072.03458691","1079.15727901",""
"sujeto_1bb5ad4b","1","1","22","22","1079.2899859","inverse","1","1","3","La máquina de fax. se inventó en:","1843","1960","","0","0","1","individual","left","3.55026888847","1082.84032488","1.44973111153","1084.44456506","4.1267220974","1088.57133508","1.8732779026","1090.47898006","1091.72109389","1091.763304","1094.766289","0","1094.78080106","1098.01710105",""
"sujeto_1bb5ad4b","1","1","23","23","1098.16657996","direct","2","1","4","En la verdadera historia de los
 300 espartanos. habían:","300 soldados","4300 soldados","","1","1","1","competitive","left","2.57682585716","1100.74347496","2.42317414284","1103.31808591","5.94143199921","1109.25957894","0.0585680007935","1109.35591698","1110.6171689","1110.68926692","1113.6923039","1","1113.7069149","1117.50869703",""
"sujeto_1bb5ad4b","1","1","24","24","1117.66002202","inverse","1","1","4","¿Cuántos milímetros crece
 el pelo por día?","0.4","0.04","","0","0","0","competitive","left","0.788483142853","1118.44854808","4.21151685715","1122.83000302","4.51958608627","1127.34964991","1.48041391373","1128.88213491","1130.64281607","1130.71653295","1133.719455","0","1133.73389792","1140.46897292",""
"sujeto_1bb5ad4b","1","1","25","25","1140.62204695","direct","4","1","1","¿Cuánto mide la baldosa gris 
clásica de Montevideo?","22x22 cm.","20x20 cm.","","1","1","1","competitive","right","1.33969902992","1141.96179199","3.66030097008","1145.79249001","5.82225418091","1151.61478901","0.177745819092","1151.82803488","1153.82328606","1153.91154289","1156.91452789","1","1156.92888904","1162.47169185",""
"sujeto_1bb5ad4b","1","1","26","26","1162.60948205","inverse","2","1","2","¿Cuántas películas de rápidos
 y furiosos hay?","10","11","","1","1","0","competitive","left","2.50738811493","1165.11691904","2.49261188507","1167.76683092","4.76409602165","1172.530972","1.23590397835","1173.80543303","1175.16342807","1175.23944998","1178.24244094","1","1178.25690794","1180.29161596",""
"sujeto_1bb5ad4b","1","1","27","27","1180.42467093","direct","3","1","1","¿Cuántos masters 1000
 ganó Del Potro?","1","2","","1","1","1","competitive","","1.58728885651","1182.01200604","3.41271114349","1185.563766","6","1191.56389499","0","1191.5791049","1193.33331704","1193.41606092","1196.41899085","0","1196.43321085","1203.82960987",""
"sujeto_1bb5ad4b","1","1","28","28","1203.98889303","inverse","2","1","4","¿Cuántos meses dura el 
embarazo de una leona?","3 meses","4 meses","","0","0","1","competitive","right","1.08031797409","1205.069309","3.91968202591","1209.14275289","5.2065448761","1214.34934092","0.793455123901","1215.17779994","1216.28887987","1216.36100292","1219.36401105","0","1219.37880802","1226.1012609",""
"sujeto_1bb5ad4b","1","1","29","29","1226.23016691","direct","1","1","1","¿En qué año fue creado
 el sandwich?","1762","1653","","1","1","0","competitive","right","1.6502289772","1227.88046598","3.3497710228","1231.3874619","4.65998601913","1236.04751301","1.34001398087","1237.42171907","1239.02027893","1239.11065507","1242.11362791","1","1242.12370396","1245.59433293",""
"sujeto_1bb5ad4b","1","1","30","30","1245.75944304","inverse","4","1","2","El nombre de la moneda de Vietnam es:","Dinar","Dong","","0","0","1","competitive","right","1.61316108704","1247.37267089","3.38683891296","1250.91260886","5.1780128479","1256.09068799","0.8219871521","1256.94812894","1258.38010287","1258.46505904","1261.46805286","0","1261.48220897","1267.65063787",""
"sujeto_1bb5ad4b","1","1","31","31","1267.78421497","direct","2","1","1","¿cuantos aleteos puede dar 
un colibrí por segundo?","120","50","","0","0","0","competitive","right","0.98153591156","1268.76580191","4.01846408844","1272.94208097","4.64072990417","1277.58287191","1.35927009583","1278.97667098","1280.70906806","1280.79436898","1283.79736805","0","1283.81269407","1288.024966",""
"sujeto_1bb5ad4b","1","1","32","32","1288.16326499","inverse","4","1","3","¿Qué altura promedio tienen
 los hombres uruguayos?","1.73 m","1.72 m","","1","1","1","competitive","left","1.16368579865","1289.3269949","3.83631420135","1293.3197999","5.01319694519","1298.33305788","0.98680305481","1299.37069798","1300.63309193","1300.70488286","1303.70784402","1","1303.72226787","1308.198174",""
"sujeto_1bb5ad4b","1","2","1","33","1472.89379096","direct","1","1","1","¿En qué año nació 
el actor Bradd Pitt?","1967","1963","","1","1","1","competitive","right","1.405782938","1474.29963493","3.594217062","1478.04859185","3.99005198479","1482.03870296","2.00994801521","1484.09899688","1485.19485402","1485.26718688","1488.26844907","1","1488.28385401","1494.21147108","1308.21320295"
"sujeto_1bb5ad4b","1","2","2","34","1494.35267591","inverse","2","1","1","¿Cual es el segundo 
monte más alto?","Kanchenjunga","K2","","1","1","1","competitive","left","1.00407385826","1495.356812","3.99592614174","1499.52746797","5.52537798882","1505.05288792","0.474622011185","1505.5631299","1507.01555705","1507.0965209","1510.09951591","1","1510.11421704","1513.54413486",""
"sujeto_1bb5ad4b","1","2","3","35","1513.69903708","direct","3","1","1","¿Cuándo finalizó la construcción
 del Palacio Legislativo?","1925","1917","","0","0","1","competitive","right","1.64283394814","1515.34193206","3.35716605186","1518.85527587","5.77675890923","1524.63209796","0.223241090775","1524.88954687","1526.53121805","1526.606457","1529.60942888","0","1529.62380195","1535.32131696",""
"sujeto_1bb5ad4b","1","2","4","36","1535.46041894","inverse","3","1","3","¿Cuántos integrantes tenía
 en su inicio  el cuarteto de nos?","3","4","","1","1","1","competitive","right","1.55877184868","1537.01927805","3.44122815132","1540.61666799","5.16653490067","1545.78327703","0.833465099335","1546.66783905","1547.80095792","1547.88420987","1550.88719893","1","1550.90246797","1556.55228591",""
"sujeto_1bb5ad4b","1","2","5","37","1556.68664098","direct","2","1","3","¿Qué valor tiene el número pi?","3.14","4.18","left","0","0","1","competitive","left","1.17264485359","1557.85933495","3.82735514641","1561.82580686","4.56360602379","1566.38945508","1.43639397621","1567.87631106","1569.33032894","1569.41056204","1572.41354394","1","1572.42814207","1579.34913206",""
"sujeto_1bb5ad4b","1","2","6","38","1579.50002694","inverse","2","1","2","¿Cuál es la esperanza de vida
 en Uruguay?","75","77","","1","1","0","competitive","left","1.90659594536","1581.40671587","3.09340405464","1584.68647885","4.14217090607","1588.82870793","1.85782909393","1590.74021506","1592.39406085","1592.47522497","1595.47823286","1","1595.49286389","1601.95588303",""
"sujeto_1bb5ad4b","1","2","7","39","1602.09435296","direct","1","1","2","¿Cuantos pisos tiene la torre 
de las comunicaciones?","26","32","","1","1","0","competitive","left","2.24139404297","1604.33579206","2.75860595703","1607.25152493","4.93433403969","1612.18590093","1.06566596031","1613.30236697","1615.13117194","1615.20337486","1618.20636702","1","1618.221066","1620.36729908",""
"sujeto_1bb5ad4b","1","2","8","40","1620.50565004","inverse","2","1","4","¿En qué país sudamericano 
no hay McDonalds?","Bolivia","Venezuela","","0","0","1","competitive","right","1.52733516693","1622.03305292","3.47266483307","1625.66055202","4.57938599586","1630.23999596","1.42061400414","1631.71195698","1633.02133489","1633.09553599","1636.09852505","0","1636.11384296","1642.47357392",""
"sujeto_1bb5ad4b","1","2","9","41","1642.61563897","direct","3","1","1","¿En qué año empieza
 la Edad Media?","476","512","","1","1","1","competitive","left","0.942525863647","1643.558218","4.05747413635","1647.77104497","4.86722779274","1652.63832498","1.13277220726","1653.82196689","1655.22574401","1655.30571508","1658.30869794","1","1658.32329607","1661.3118639",""
"sujeto_1bb5ad4b","1","2","10","42","1661.45933604","inverse","3","1","4","¿Hace cuántos años surgió
 el ser humano?","200mil","300mil","","0","0","0","competitive","right","0.745193004608","1662.20460486","4.25480699539","1666.61568904","5.37873506546","1671.99446702","0.62126493454","1672.66727304","1674.5532999","1674.63360906","1677.63659501","0","1677.65223098","1680.96272302",""
"sujeto_1bb5ad4b","1","2","11","43","1681.10338306","direct","3","1","4","¿Cuántas cuadras tiene
 actualmente 18 de julio? ","36","33","","0","0","1","competitive","","0.926200151443","1682.02964997","4.07379984856","1686.25881195","6","1692.25896597","0","1692.27413106","1693.97641802","1694.06114388","1697.06412387","0","1697.07843995","1701.80433607",""
"sujeto_1bb5ad4b","1","2","12","44","1701.92897201","inverse","1","1","4","¿Qué juego de equipo se 
considera mas rápido?","Lacrosse","Badminton","","0","0","0","competitive","left","0.956742048264","1702.88578606","4.04325795174","1707.06685686","5.6419069767","1712.70882487","0.3580930233","1713.10393","1714.34633303","1714.420223","1717.42321491","0","1717.43789887","1725.43237305",""
"sujeto_1bb5ad4b","1","2","13","45","1725.57771492","direct","1","1","3","¿Qué promedio de edad 
vive una jirafa? ","25","20","","0","0","1","competitive","right","1.54624295235","1727.12402701","3.45375704765","1730.74730492","4.36868786812","1735.11603308","1.63131213188","1736.79836988","1738.55987906","1738.63281202","1741.63578892","0","1741.65046692","1747.60618186",""
"sujeto_1bb5ad4b","1","2","14","46","1747.73506904","inverse","1","1","2","¿Cuántos grandes lagos hay?","7","5","","0","0","1","competitive","left","1.04606699944","1748.78119993","3.95393300056","1752.89346504","3.25873112679","1756.15226293","2.74126887321","1758.94452691","1760.23669696","1760.31271195","1763.31533885","0","1763.32998991","1771.15135694",""
"sujeto_1bb5ad4b","1","2","15","47","1771.30234098","direct","3","1","2","¿Cuántos discos de estudio
 grabó Johhny Cash? ","54","43","","1","1","0","competitive","right","0.8271048069","1772.12949085","4.1728951931","1776.45622802","4.93821406364","1781.39451003","1.06178593636","1782.50833106","1783.78698206","1783.85750103","1786.86047101","1","1786.87602806","1793.52694488",""
"sujeto_1bb5ad4b","1","2","16","48","1793.6657989","inverse","4","1","1","¿Cuántos barrios tiene
 Montevideo? ","71","62","","0","0","1","competitive","right","0.930904865265","1794.59681487","4.06909513474","1798.81764698","4.08297801018","1802.90068293","1.91702198982","1804.86864591","1805.87568188","1805.95353985","1808.95654988","0","1808.97078896","1814.43276787",""
"sujeto_1bb5ad4b","1","2","17","49","1814.57485485","direct","3","1","3","¿Qué edad tiene Homero Simpson?","36","42","","0","0","1","competitive","right","1.32693099976","1815.90182805","3.67306900024","1819.72484708","3.49497413635","1823.21986008","2.50502586365","1825.76016092","1827.136163","1827.21177006","1830.21478796","0","1830.22936201","1834.61809087",""
"sujeto_1bb5ad4b","1","2","18","50","1834.76564503","inverse","4","1","2","¿Cuántos países con monarquía 
hay en europa actualmente? ","6","10","","1","1","1","competitive","left","1.2543721199","1836.02008104","3.7456278801","1839.93981099","4.5053358078","1844.44519091","1.4946641922","1845.99047589","1847.42875004","1847.50787592","1850.51090288","1","1850.525594","1856.68237901",""
"sujeto_1bb5ad4b","1","2","19","51","1856.82740402","direct","2","1","3","¿Cuántos capítulos de
 Friends existen? ","236","228","","1","1","1","competitive","left","1.5548222065","1858.38229895","3.4451777935","1861.98459101","4.94879317284","1866.93344307","1.05120682716","1868.03545094","1869.34100199","1869.41995001","1872.42293501","1","1872.4364779","1874.81212497",""
"sujeto_1bb5ad4b","1","2","20","52","1874.97163796","inverse","1","1","3","¿Cuántas óperas compuso Mozart? ","27","22","","1","1","1","competitive","left","3.63481688499","1878.6065259","1.36518311501","1880.12634492","5.07819986343","1885.20460296","0.921800136566","1886.16217589","1887.45434499","1887.53009105","1890.5330689","1","1890.547544","1897.85902405",""
"sujeto_1bb5ad4b","1","2","21","53","1897.99805689","direct","4","1","3","¿Cuántos mundiales de fútbol 
femenino ha realizado FIFA? ","9","7","","1","1","1","competitive","left","1.11464500427","1899.11275101","3.88535499573","1903.15125895","4.1444940567","1907.29579902","1.8555059433","1909.18754888","1910.4312849","1910.50459003","1913.50758791","1","1913.52226186","1919.62469792",""
"sujeto_1bb5ad4b","1","2","22","54","1919.77348208","inverse","3","1","2","¿Cuál es la temperatura 
media anual en Montevideo? ","17.5","16.3","","0","0","1","competitive","left","1.16234493256","1920.93588901","3.83765506744","1924.93391705","4.1330139637","1929.06697392","1.8669860363","1930.98475504","1932.92334008","1933.00334001","1936.00631094","0","1936.02095485","1942.59048486",""
"sujeto_1bb5ad4b","1","2","23","55","1942.74081898","direct","2","1","2","¿En qué año se estrenó el
 videojuego The Sims? ","2000","2002","","0","0","0","competitive","right","0.810229063034","1943.55109191","4.18977093697","1947.8958869","4.76326489449","1952.65921187","1.23673510551","1953.94748497","1955.809515","1955.89843202","1958.90139103","0","1958.91623497","1966.30991507",""
"sujeto_1bb5ad4b","1","2","24","56","1966.46932292","inverse","2","1","1","¿Cuál es la canción con 
mas covers? ","Yesterday","Stand by me","","0","0","0","competitive","left","2.91201496124","1969.38141203","2.08798503876","1971.64196801","4.84841299057","1976.49044895","1.15158700943","1977.69385386","1979.09238005","1979.177387","1982.17984486","0","1982.19521689","1986.36608195",""
"sujeto_1bb5ad4b","1","2","25","57","1986.49658489","direct","1","1","4","¿Cuánto duró la guerra
 de los 100 años?","116","123","","0","0","0","competitive","left","1.28689408302","1987.78353786","3.71310591698","1991.65037894","4.995251894","1996.64569306","1.004748106","1997.68627191","1999.16639304","1999.25353599","2002.25650501","0","2002.27181101","2004.59157705",""
"sujeto_1bb5ad4b","1","2","26","58","2004.73927307","inverse","4","1","4","¿Qué color tiene la  bandera de Brasil?","Amarillo","Naranja","left","0","0","1","competitive","left","1.5954709053","2006.334795","3.4045290947","2009.91193604","4.07581496239","2013.98781705","1.92418503761","2015.94591808","2017.51245189","2017.59707904","2020.60008001","1","2020.61469603","2023.64749694",""
"sujeto_1bb5ad4b","1","2","27","59","2023.80151391","direct","4","1","3","¿Qué carabela de 
Colon no volvió del viaje?","Santa María","La pinta","","0","0","1","competitive","right","0.989461898804","2024.79104304","4.0105381012","2028.972399","5.47260904312","2034.44505286","0.527390956879","2035.00744605","2036.4984839","2036.57301092","2039.57596588","0","2039.59102798","2041.69049501",""
"sujeto_1bb5ad4b","1","2","28","60","2041.84012985","inverse","4","1","4","¿Cuántos huesos tiene
 un adulto humano?","217","206","","0","0","1","competitive","right","0.891907930374","2042.73210788","4.10809206963","2046.99494696","4.43819689751","2051.43318892","1.56180310249","2053.04807496","2054.31909704","2054.39903188","2057.40132785","0","2057.41593695","2065.25363708",""
"sujeto_1bb5ad4b","1","2","29","61","2065.40422106","direct","1","1","1","¿Qué país africano fue 
fundado por esclavos?","Liberia","Chad","","0","0","0","competitive","right","1.58612513542","2066.99039602","3.41387486458","2070.55921197","5.88219881058","2076.44147897","0.117801189423","2076.61069703","2078.60230494","2078.67781687","2081.68037105","0","2081.69549489","2089.68634987",""
"sujeto_1bb5ad4b","1","2","30","62","2089.85078692","inverse","4","1","2","¿A cuánto asciende la cima
 del monte Everest?","7.990 mts","8.848 mts","","0","0","1","competitive","left","0.778769016266","2090.62962294","4.22123098373","2095.00648403","5.36911010742","2100.37565589","0.630889892578","2101.05856991","2102.24343801","2102.32487702","2105.3278029","0","2105.34253788","2112.52658701",""
"sujeto_1bb5ad4b","1","2","31","63","2112.67698789","direct","4","1","1","¿Cuál es el país mas chico?","Sealand","Luxemburgo","","1","1","1","competitive","right","1.03681588173","2113.713866","3.96318411827","2117.83555508","3.51828503609","2121.35388303","2.48171496391","2123.88669205","2125.75022197","2125.83730006","2128.84028792","1","2128.85504007","2131.97733998",""
"sujeto_1bb5ad4b","1","2","32","64","2132.12307405","inverse","2","1","4","¿Cuántas pirámides hay en Egipto?","10000","11000","","1","1","1","competitive","left","1.07690215111","2133.20003891","3.92309784889","2137.27883792","4.52624487877","2141.80512404","1.47375512123","2143.31318188","2144.3467629","2144.43053102","2147.43350196","1","2147.44775295","2152.55685401",""
"sujeto_1bb5ad4b","1","3","1","65","2291.10861707","direct","2","1","2","¿Cuál es el quinto país con 
mas extensión?","Canadá","Brasil","","1","1","0","competitive","right","1.14901208878","2292.25769997","3.85098791122","2296.26069093","4.37202501297","2300.63277888","1.62797498703","2302.31262207","2303.64587402","2303.72983885","2306.73277092","1","2306.74736786","2314.47370505","2152.57230592"
"sujeto_1bb5ad4b","1","3","2","66","2314.61606503","inverse","1","1","2","¿Qué rasgo facial no tiene
 la Mona Lisa?","Cejas","Pómulos","","0","0","1","competitive","left","2.37177419662","2316.98790503","2.62822580338","2319.77475095","3.99013090134","2323.76494288","2.00986909866","2325.82630587","2327.57676005","2327.66031408","2330.6632719","0","2330.67802906","2336.94932795",""
"sujeto_1bb5ad4b","1","3","3","67","2337.11071301","direct","4","1","3","¿Cuál es el país con 
mayor población?","Esados Unidos","China","right","0","0","1","individual","right","1.54633402824","2338.6570859","3.45366597176","2342.26956701","3.98362398148","2346.25327587","2.01637601852","2348.32009387","2349.96535397","2350.00418305","2353.007128","1","2353.02262402","2356.389961",""
"sujeto_1bb5ad4b","1","3","4","68","2356.52389503","inverse","1","1","1","La palabra dinosaurio significa","Lagarto Terrible","Lagarto Dragón","","1","1","0","competitive","right","0.742506980896","2357.26647091","4.2574930191","2361.67856288","4.32876801491","2366.00738597","1.67123198509","2367.73046088","2368.90079999","2368.98198104","2371.98431897","1","2371.99862194","2374.86038399",""
"sujeto_1bb5ad4b","1","3","5","69","2375.00105405","direct","2","1","3","¿Qué es el membrillero?","Arbol","Arbusto","","0","0","0","competitive","right","2.25141501427","2377.25251293","2.74858498573","2380.17389894","4.18963599205","2384.3635819","1.81036400795","2386.22467089","2388.17879391","2388.25921488","2391.26220393","0","2391.27667594","2397.74070287",""
"sujeto_1bb5ad4b","1","3","6","70","2397.87722802","inverse","3","1","3","¿Alrededor de qué planeta orbita 
el satélite Europa?","Jupiter","Saturno","","1","1","1","competitive","left","1.05747413635","2398.93476391","3.94252586365","2403.01779294","4.93204689026","2407.94990993","1.06795310974","2409.06911087","2410.61392188","2410.68702006","2413.69000101","1","2413.70455503","2415.90938592",""
"sujeto_1bb5ad4b","1","3","7","71","2416.0563159","direct","3","1","1","¿Donde fue el mundial de 
fútbol de 1954?","Suiza","Suecia","","1","1","1","competitive","left","3.65864300728","2419.71503997","1.34135699272","2421.24463201","5.90439105034","2427.14906502","0.0956089496613","2427.29677296","2428.54939699","2428.62991405","2431.63286686","1","2431.64809608","2435.55989504",""
"sujeto_1bb5ad4b","1","3","8","72","2435.69937897","inverse","1","1","4","¿Cuál de los 7 enanitos
no tenía barba?","Bashful","Mudito","","1","1","0","competitive","right","3.00975704193","2438.709198","1.99024295807","2440.85191393","5.30629682541","2446.15827394","0.693703174591","2446.90474701","2448.484869","2448.55495286","2451.55795002","1","2451.57258391","2456.50166106",""
"sujeto_1bb5ad4b","1","3","9","73","2456.65828705","direct","3","1","2","¿Cual red social es
mas utilizada mundialmente?","Instagram","Facebook","","1","1","0","individual","right","1.23511910439","2457.89345098","3.76488089561","2461.81523299","5.18617677689","2467.00145507","0.813823223114","2467.86732388","2469.78471303","2469.83455992","2472.83754587","1","2472.85247302","2475.78697705",""
"sujeto_1bb5ad4b","1","3","10","74","2475.937078","inverse","4","1","1","¿Cuándo se inició la copa
 América de fútbol?","1916","1923","","1","1","1","competitive","right","1.13747000694","2477.07459402","3.86252999306","2481.10896802","4.75950407982","2485.8685379","1.24049592018","2487.14432287","2489.04179001","2489.12776303","2492.13076901","1","2492.14583993","2494.80196691",""
"sujeto_1bb5ad4b","1","3","11","75","2494.94676805","direct","3","1","4","¿Cuántos presidentes de EEUU
han muerto asesinados?","3","4","","0","0","1","competitive","left","4.29463815689","2499.24145198","0.705361843109","2500.10009003","5.45727801323","2505.55741","0.542721986771","2506.15416098","2507.638134","2507.72127008","2510.72421908","0","2510.73848486","2514.38259888",""
"sujeto_1bb5ad4b","1","3","12","76","2514.52280188","inverse","2","1","4","¿Cuántas veces participó EEUU
 en la copa América?","4","5","","0","0","1","competitive","left","4.13853001595","2518.66139507","0.861469984055","2519.67941904","1.32587409019","2521.00533485","4.67412590981","2525.74743104","2527.191504","2527.28110385","2530.28412294","0","2530.29788208","2536.41508293",""
"sujeto_1bb5ad4b","1","3","13","77","2536.54942608","direct","4","1","1","¿Cuál de estos países 
no formaba la URSS?","Azeribayán","Afganistán","","0","0","1","competitive","left","1.68591403961","2538.23538589","3.31408596039","2541.72359705","5.20168399811","2546.92534304","0.798316001892","2547.7753799","2549.08846807","2549.17572498","2552.17869997","0","2552.19230604","2560.17436504",""
"sujeto_1bb5ad4b","1","3","14","78","2560.31020999","inverse","1","1","1","¿En qué año se inauguró
 el teatro Solís?","1867","1856","","0","0","0","competitive","right","0.815005779266","2561.12529898","4.18499422073","2565.4856329","5.02055597305","2570.50623298","0.979444026947","2571.53723502","2572.59359598","2572.67107201","2575.67404485","0","2575.68826485","2582.33603501",""
"sujeto_1bb5ad4b","1","3","15","79","2582.47263098","direct","1","1","4","¿A qué velocidad vuela 
el avión más rápido?","3529","3874","","0","0","0","individual","left","0.75558590889","2583.22831297","4.24441409111","2587.64358401","5.20757007599","2592.85121202","0.792429924011","2593.68038893","2595.43593693","2595.48031187","2598.48134589","0","2598.49801803","2600.60829687",""
"sujeto_1bb5ad4b","1","3","16","80","2600.74918699","inverse","3","1","4","¿De qué año es la primer 
película cinematográfica?","1897","1888","","0","0","0","competitive","left","0.893777132034","2601.64305902","4.10622286797","2605.90589905","5.18817090988","2611.09411502","0.811829090118","2611.95737004","2613.09036493","2613.17512393","2616.17811608","0","2616.19173193","2621.60151291",""
"sujeto_1bb5ad4b","1","3","17","81","2621.74373603","direct","2","1","3","¿Cuántos países 
tiene nuestro planeta?","191","194","","1","1","1","competitive","right","0.896357059479","2622.64014101","4.10364294052","2626.91725898","5.10677289963","2632.02409196","0.893227100372","2632.95121408","2634.30841303","2634.38604188","2637.38839602","1","2637.40247107","2640.64034986",""
"sujeto_1bb5ad4b","1","3","18","82","2640.77058101","inverse","2","1","2","¿Cuántos habitantes
 tiene Buenos Aires?","2.9000.000","3650000","","0","0","0","competitive","right","3.06044316292","2643.83108902","1.93955683708","2645.92516708","5.26181602478","2651.18702197","0.73818397522","2651.96228504","2653.35952592","2653.445678","2656.44867086","0","2656.46302605","2662.29242802",""
"sujeto_1bb5ad4b","1","3","19","83","2662.43326306","direct","2","1","1","¿Cuántos kilos forman una tonelada?","1000","1500","left","1","1","1","competitive","left","2.1018280983","2664.53520203","2.8981719017","2667.6178019","5.55223989487","2673.17008591","0.447760105133","2673.65748191","2675.54485106","2675.62362099","2678.62663794","1","2678.64114404","2684.59856796",""
"sujeto_1bb5ad4b","1","3","20","84","2684.76038289","inverse","4","1","4","¿Cuántos estados tiene la 
República del Perú? ","24","23","","0","0","1","competitive","right","2.10963606834","2686.87006307","2.89036393166","2689.91635299","4.53667378426","2694.45308805","1.46332621574","2695.96762586","2696.98984885","2697.0683279","2700.07131386","0","2700.08589005","2705.03119707",""
"sujeto_1bb5ad4b","1","3","21","85","2705.16987991","direct","3","1","3","¿En qué año nació Cristóbal Colón? ","1451","1447","","0","0","1","individual","right","1.68514299393","2706.85506606","3.31485700607","2710.32667208","4.34934210777","2714.67605591","1.65065789223","2716.37701106","2718.22288799","2718.26162386","2721.26459599","0","2721.272192","2725.50018001",""
"sujeto_1bb5ad4b","1","3","22","86","2725.640728","inverse","4","1","4","¿Cuánto mide la 
Montaña Aconcagua? ","6234","6962","","0","0","1","competitive","right","1.2283449173","2726.86913896","3.7716550827","2730.78720999","4.42780780792","2735.21508598","1.57219219208","2736.82102203","2738.11039495","2738.18866992","2741.191643","0","2741.20605302","2748.38323092",""
"sujeto_1bb5ad4b","1","3","23","87","2748.52396393","direct","2","1","4","¿Cuánto mide el punto
 más profundo del océano? ","12508","11003","","0","0","1","individual","right","1.46604299545","2749.99007893","3.53395700455","2753.68144703","5.0465900898","2758.72806406","0.953409910202","2759.73170185","2760.98322988","2761.03282499","2764.035815","0","2764.050529","2768.25680995",""
"sujeto_1bb5ad4b","1","3","24","88","2768.40127087","inverse","1","1","3","¿Cuántos álbumes ha publicado 
el cantante Jaime Roos? ","41","34","","0","0","1","competitive","","1.00979590416","2769.41110992","3.99020409584","2773.54232693","6","2779.5424819","0","2779.55839801","2781.04824901","2781.12912607","2784.13211989","0","2784.14375305","2790.33989096",""
"sujeto_1bb5ad4b","1","3","25","89","2790.49693108","direct","4","1","3","¿En qué año nació el 
ex-presidente Jorge Battle? ","1921","1927","","1","1","1","competitive","right","0.94017791748","2791.43717194","4.05982208252","2795.65413404","5.16797399521","2800.82214808","0.832026004791","2801.70490289","2803.4356029","2803.52305889","2806.52601886","1","2806.53957891","2810.02563596",""
"sujeto_1bb5ad4b","1","3","26","90","2810.15801406","inverse","1","1","3","¿Cuántas presidencias 
constitucionales  hubo en Uruguay? ","41","42","","0","0","1","individual","left","1.30810213089","2811.46616006","3.69189786911","2815.31391001","5.54319405556","2820.85715103","0.456805944443","2821.34870505","2822.55247092","2822.59935498","2825.60233903","0","2825.61711788","2831.40075994",""
"sujeto_1bb5ad4b","1","3","27","91","2831.534518","direct","1","1","2","¿Quién escribió mas sinfonías?","Mozart","Haydn","","1","1","0","competitive","left","2.22769212723","2833.76229","2.77230787277","2836.68930888","4.57381415367","2841.26316786","1.42618584633","2842.74279904","2843.96028996","2844.0432179","2847.04623389","1","2847.0609889","2850.81240702",""
"sujeto_1bb5ad4b","1","3","28","92","2850.94500089","inverse","4","1","2","¿En qué año nació Michael Jackson?","1958","1953","","1","1","1","competitive","right","2.39519906044","2853.34033799","2.60480093956","2856.11871791","4.52448296547","2860.64326096","1.47551703453","2862.17023492","2864.14850688","2864.23766804","2867.24065304","1","2867.25526094","2873.117589",""
"sujeto_1bb5ad4b","1","3","29","93","2873.256181","direct","3","1","2","¿En qué año entró en vigencia 
la ley antitabaco en Uruguay?","2005","2006","","1","1","1","competitive","","0.817366123199","2874.07362008","4.1826338768","2878.43006492","6","2884.43020201","0","2884.44549704","2886.04028106","2886.11507297","2889.11806393","0","2889.13287807","2894.46689296",""
"sujeto_1bb5ad4b","1","3","30","94","2894.600209","inverse","3","1","1","¿Cuándo se subió el 
primer video a youtube?","2004","2005","","0","0","1","competitive","left","1.35194516182","2895.952209","3.64805483818","2899.75611091","5.01820802689","2904.77435899","0.981791973114","2905.8087399","2907.11441708","2907.19278288","2910.19576597","0","2910.21009588","2917.96571708",""
"sujeto_1bb5ad4b","1","3","31","95","2918.11121607","direct","2","1","1","¿Cuántos habitantes tiene India?","1200 millones","1300 millones","","0","0","0","individual","left","3.11314702034","2921.22440696","1.88685297966","2923.26833606","4.17300701141","2927.44138789","1.82699298859","2929.31928492","2931.28892398","2931.33702707","2934.34000802","0","2934.35466504","2940.40219307",""
"sujeto_1bb5ad4b","1","3","32","96","2940.55698895","inverse","4","1","2","¿A qué edad murió Bob Marley?","36","37","","0","0","1","competitive","right","3.99643802643","2944.55349493","1.00356197357","2945.73162508","4.51379108429","2950.24546194","1.48620891571","2951.76603389","2953.66390586","2953.75081992","2956.75381994","0","2956.76760697","2959.87008691",""
"sujeto_1bb5ad4b","1","4","1","97","3119.80385995","direct","2","1","1","¿Cuantos años dirigió la selección 
uruguaya Tabarez?","15 años","13 años","","0","0","0","competitive","right","1.4452521801","3121.24917388","3.5547478199","3124.95753098","4.71652984619","3129.6741209","1.28347015381","3131.00691795","3132.19805789","3132.27379107","3135.27570605","0","3135.29137802","3142.3634119","2959.885077"
"sujeto_1bb5ad4b","1","4","2","98","3142.51214385","inverse","4","1","1","¿Cuantas teclas tiene un teclado 
de computadora generalmente? ","Entre 99 y 108","Entre 109 y 113","","1","1","1","competitive","left","3.85306096077","3146.36528301","1.14693903923","3147.68523407","5.94505906105","3153.63033891","0.0549409389496","3153.73527193","3154.73804402","3154.81868386","3157.82166004","1","3157.836411","3160.20784903",""
"sujeto_1bb5ad4b","1","4","3","99","3160.33786201","direct","1","1","1","¿Cuál Departamento tiene
 mayor superficie?","Río Negro","Soriano","","0","0","0","competitive","left","1.76347589493","3162.10141301","3.23652410507","3165.51214194","4.84123682976","3170.35343885","1.15876317024","3171.5462749","3173.2597599","3173.3472209","3176.35018992","0","3176.36504698","3180.69116998",""
"sujeto_1bb5ad4b","1","4","4","100","3180.83329201","inverse","3","1","2","¿Cuál es el apellido de las 
hermanastras  de  cenicienta?","Tremaine","Truman","","0","0","1","competitive","right","2.94211101532","3183.77544689","2.05788898468","3186.00586605","5.15953707695","3191.16544485","0.84046292305","3192.04114294","3193.91068506","3193.99144101","3196.99442387","0","3197.00978994","3199.70575905",""
"sujeto_1bb5ad4b","1","4","5","101","3199.86132407","direct","4","1","4","¿Cuál película ganó un
 Oscar a mejor película?","Alto Impacto","Cache","","0","0","1","individual","right","1.5721681118","3201.43355894","3.4278318882","3205.01578903","5.97571802139","3210.99156904","0.0242819786072","3211.05103302","3212.17037797","3212.21702385","3215.22000504","0","3215.23466396","3217.49933887",""
"sujeto_1bb5ad4b","1","4","6","102","3217.65314507","inverse","1","1","3","¿A cuántos centímetros
equivale la medida pié?","25","30","","0","0","1","competitive","left","1.11047697067","3218.76366806","3.88952302933","3222.80800891","3.46162486076","3226.26969504","2.53837513924","3228.84191394","3229.8819139","3229.96000791","3232.96299601","0","3232.97792387","3238.378896",""
"sujeto_1bb5ad4b","1","4","7","103","3238.51201391","direct","2","1","2","¿Qué departamento es mas grande?","Cerro Largo","Paysandú","","0","0","0","competitive","left","4.05668592453","3242.568748","0.94331407547","3243.66948891","3.22725892067","3246.89681005","2.77274107933","3249.72077203","3251.32046604","3251.40549803","3254.4084909","0","3254.42255497","3258.532547",""
"sujeto_1bb5ad4b","1","4","8","104","3258.67430592","inverse","2","1","3","¿Quién pintó la Mona Lisa?","Picasso","Da Vinci","right","0","0","1","competitive","right","2.68249487877","3261.35684586","2.31750512123","3263.84018207","3.65662097931","3267.49687099","2.34337902069","3269.89686394","3271.502702","3271.58170199","3274.58467197","1","3274.59926796","3276.76160908",""
"sujeto_1bb5ad4b","1","4","9","105","3276.91736698","direct","4","1","3","¿Cuántos litros hay en un galon?","3.54","3.78","","1","1","1","competitive","left","2.43847799301","3279.35591292","2.56152200699","3282.07137489","4.13952803612","3286.21094799","1.86047196388","3288.1242919","3289.64217591","3289.72512007","3292.72810006","1","3292.74286985","3298.53521395",""
"sujeto_1bb5ad4b","1","4","10","106","3298.67714691","inverse","4","1","1","¿Cuántas teclas tiene
 un piano moderno?","80","88","","0","0","1","competitive","left","0.979861021042","3299.65706992","4.02013897896","3303.83383608","4.10216999054","3307.93605089","1.89783000946","3309.88550901","3310.89396405","3310.96891308","3313.97189093","0","3313.9863379","3320.78407407",""
"sujeto_1bb5ad4b","1","4","11","107","3320.93949008","direct","4","1","3","¿Cuántos países hay en África?","54","62","","0","0","1","competitive","left","1.95570898056","3322.89525604","3.04429101944","3326.09601188","3.62003493309","3329.71608591","2.37996506691","3332.14481497","3333.83535385","3333.91141987","3336.91440296","0","3336.92966294","3344.73442793",""
"sujeto_1bb5ad4b","1","4","12","108","3344.88108397","inverse","1","1","3","¿En qué siglo se crearon
 las primeras pistolas?","XV","XIII","","1","1","1","competitive","","1.54425787926","3346.42541504","3.45574212074","3350.04187894","6","3356.04204988","0","3356.05521393","3358.00310802","3358.07463694","3361.07762694","0","3361.09292006","3364.32602406",""
"sujeto_1bb5ad4b","1","4","13","109","3364.46027589","direct","3","1","4","¿En qué año se estrenó 
la serie friends?","1994","1995","","0","0","1","competitive","right","2.89714598656","3367.357476","2.10285401344","3369.64815402","4.32027792931","3373.96847391","1.67972207069","3375.70317388","3377.57852602","3377.65350699","3380.65649199","0","3380.67110801","3385.67719007",""
"sujeto_1bb5ad4b","1","4","14","110","3385.82248807","inverse","3","1","4","¿En qué año nació Hitler?","1889","1887","","0","0","1","competitive","right","2.83605504036","3388.65860701","2.16394495964","3390.99398708","5.14157009125","3396.13561893","0.858429908752","3397.03127789","3398.14565492","3398.23167396","3401.234658","0","3401.24903393","3406.276021",""
"sujeto_1bb5ad4b","1","4","15","111","3406.41681194","direct","1","1","4","¿Cuánto pesa un elefante Africano?","6000 kilos","5400 kilos","","0","0","0","competitive","left","0.798818826675","3407.21567392","4.20118117332","3411.57275391","0.969904899597","3412.54269791","5.0300951004","3417.62228394","3418.97821498","3419.05786395","3422.06084204","0","3422.07523298","3428.78232288",""
"sujeto_1bb5ad4b","1","4","16","112","3428.92688704","inverse","1","1","2","¿Qué porcentaje de 
la población es zurda?","10%","7%","","1","1","0","competitive","right","0.674432039261","3429.60137105","4.32556796074","3434.08301806","3.66377305984","3437.74683094","2.33622694016","3440.11875391","3441.36182904","3441.43705201","3444.43839502","1","3444.45395494","3450.43369508",""
"sujeto_1bb5ad4b","1","4","17","113","3450.57132292","direct","1","1","2","¿En qué año se estrenó
Volver al futuro?","1984","1985","","0","0","1","competitive","right","0.979245901108","3451.55063796","4.02075409889","3455.74617505","4.35578989983","3460.10202694","1.64421010017","3461.79731107","3463.35834694","3463.44790101","3466.45085907","0","3466.46564698","3473.55710101",""
"sujeto_1bb5ad4b","1","4","18","114","3473.70100594","inverse","3","1","2","¿Cuántos jugadores hay en un 
equipo de baseball?","9","8","","1","1","0","competitive","left","1.19402480125","3474.89509892","3.80597519875","3478.85859108","2.03854012489","3480.89717102","3.96145987511","3484.90787196","3486.52214789","3486.59384394","3489.59683895","1","3489.61126304","3494.5885129",""
"sujeto_1bb5ad4b","1","4","19","115","3494.74528193","direct","2","1","1","¿Cuántos Oscar ganó
 la película titanic?","13","11","","1","1","1","competitive","left","1.13652205467","3495.88190007","3.86347794533","3499.90228701","4.1739962101","3504.07632494","1.8260037899","3505.95357895","3507.25565386","3507.33766389","3510.34064293","1","3510.35486007","3514.95753598",""
"sujeto_1bb5ad4b","1","4","20","116","3515.106426","inverse","4","1","4","¿En qué año comenzó
la segunda guerra mundial?","1939","1976","left","0","0","1","competitive","left","2.45193719864","3517.55842996","2.54806280136","3520.29226589","5.06307196617","3525.35538507","0.936928033829","3526.33152008","3528.13137507","3528.21588898","3531.21886086","1","3531.23316693","3535.22028804",""
"sujeto_1bb5ad4b","1","4","21","117","3535.36787486","direct","2","1","4","¿Cuántos biomas hay en Uruguay?","5","4","","0","0","1","competitive","left","2.98060202599","3538.34852695","2.01939797401","3540.53715992","3.81330990791","3544.35053492","2.18669009209","3546.57514","3548.37230802","3548.459198","3551.46221805","0","3551.47685599","3557.72630501",""
"sujeto_1bb5ad4b","1","4","22","118","3557.87826991","inverse","2","1","3","¿Cuándo murió Pablo Escobar?","1993","1997","","1","1","1","competitive","right","1.75922894478","3559.63755393","3.24077105522","3563.03611708","4.43651819229","3567.47269702","1.56348180771","3569.08672285","3570.86952186","3570.95387697","3573.95686197","1","3573.97166896","3579.6753459",""
"sujeto_1bb5ad4b","1","4","23","119","3579.82307696","direct","1","1","4","¿Qué serie ha ganado mas premios?","Friends","Murphy Brown","","1","1","0","competitive","left","1.25373387337","3581.07685995","3.74626612663","3584.99652505","3.71523594856","3588.71180296","2.28476405144","3591.04725695","3592.39966297","3592.482301","3595.48528695","1","3595.49956107","3601.06118608",""
"sujeto_1bb5ad4b","1","4","24","120","3601.21744704","inverse","4","1","2","¿Cuántas fichas tiene el dominó?","26","28","","1","1","1","competitive","left","1.60540914536","3602.82289886","3.39459085464","3606.37519693","3.32363200188","3609.69888592","2.67636799812","3612.42392588","3613.47920799","3613.55845499","3616.56144691","1","3616.57526088","3621.818367",""
"sujeto_1bb5ad4b","1","4","25","121","3621.96188593","direct","2","1","4","¿Cuántos son los dientes de leche?","20","25","","0","0","1","competitive","right","1.35814499855","3623.32009292","3.64185500145","3627.11863208","4.64944195747","3631.768116","1.35055804253","3633.16954708","3634.87992501","3634.95296907","3637.95594001","0","3637.97196507","3640.11738992",""
"sujeto_1bb5ad4b","1","4","26","122","3640.25595999","inverse","3","1","3","¿Cuántos gramos son una onza?","22","28","","0","0","1","competitive","right","2.41053795815","3642.66661286","2.58946204185","3645.42857385","3.89862108231","3649.32727194","2.10137891769","3651.46298504","3653.457865","3653.53110003","3656.53407407","0","3656.54872704","3662.83901501",""
"sujeto_1bb5ad4b","1","4","27","123","3662.98347902","direct","3","1","1","¿Cuándo salió el primer album
 de los Beatles?","1963","1962","","1","1","1","competitive","left","1.41986298561","3664.40338802","3.58013701439","3668.14031506","3.59103512764","3671.73141193","2.40896487236","3674.17362309","3675.33650899","3675.40882087","3678.41033006","1","3678.42554498","3682.1975379",""
"sujeto_1bb5ad4b","1","4","28","124","3682.32674289","inverse","3","1","3","¿Quién fundó la empresa apple?","Carlos Slim","Steve Jobs","","1","1","1","competitive","right","0.860816001892","3683.18766093","4.13918399811","3687.48231506","5.08120799065","3692.563586","0.918792009354","3693.53403687","3694.64867806","3694.73415589","3697.73717189","1","3697.7512579","3704.049124",""
"sujeto_1bb5ad4b","1","4","29","125","3704.20260286","direct","4","1","2","¿Cuántos municipios hay
 en Montevideo?","8","7","","1","1","1","competitive","left","2.55103802681","3706.75370908","2.44896197319","3709.37494397","3.96171379089","3713.33669901","2.03828620911","3715.41252494","3717.32730198","3717.4144659","3720.4174509","1","3720.431988","3722.51314092",""
"sujeto_1bb5ad4b","1","4","30","126","3722.65018606","inverse","1","1","1","¿Cuántos kilómetros hay
 de Montevideo a Artigas?","632","599","","0","0","0","competitive","left","0.863543987274","3723.51379991","4.13645601273","3727.80400085","4.93373513222","3732.73779988","1.06626486778","3733.85591388","3735.33837891","3735.42367196","3738.42663789","0","3738.44106293","3744.49319386",""
"sujeto_1bb5ad4b","1","4","31","127","3744.63701487","direct","2","1","2","¿En qué año nació 
Leonardo Da Vinci?","1452","1511","","1","1","0","competitive","right","4.65389704704","3749.29097486","0.346102952957","3749.79947901","4.0224738121","3753.82201505","1.9775261879","3755.85107803","3757.70470786","3757.78553796","3760.78852487","1","3760.80279589","3763.94920301",""
"sujeto_1bb5ad4b","1","4","32","128","3764.08819795","inverse","3","1","1","¿A qué continente
 pertenece el país Gabón?","Africa","Oceanía","","0","0","1","individual","right","4.88586783409","3768.97412992","0.114132165909","3769.27350593","5.14154887199","3774.41511393","0.858451128006","3775.30891991","3777.12060404","3777.15901899","3780.16194987","0","3780.17642999","3785.41429901",""
