"code","nro_aplicante","nro_bloque","nro_trial_bloque","nro_trial_global","show_game_type","choice_order","rival","pay_individual","pay_competitive","question","answer_left_text","answer_right_text","correct_answer","outcome_individual","outcome_competitive","outcome_rival","game_type","answer","social_time","rt_game_type","feedback_delay","show_question","answer_time","rt_answer_global","feedback_delay_2","show_jitter","jitter_time","show_outcome","outcome_time","outcome_participant_real","show_final_jitter","second_jitter_time","inicio_descanso"
"sujeto_282108e8","1","1","1","1","680.182356119","direct","3","1","4","¿Cuántos centímetros corresponden
al talle 36 del calzado?","23","24","","0","0","1","competitive","left","1.50886702538","681.691292048","3.49113297462","685.338433981","2.8758058548","688.214311123","3.1241941452","691.388448","692.416745186","692.490167141","695.493115187","0","695.507397175","697.669929981",""
"sujeto_282108e8","1","1","2","2","697.808900118","inverse","3","1","2","¿Cuántas metros mide la Intendencia
Municipal de Montevideo? ","84","78","","0","0","1","competitive","right","1.37535309792","699.184296131","3.62464690208","702.947098017","4.10105705261","707.048222065","1.89894294739","708.998471022","710.876475096","710.948953152","713.951936007","0","713.967061996","716.059822083",""
"sujeto_282108e8","1","1","3","3","716.201501131","direct","1","1","3","¿Cuántas La Pasiva
 hay en uruguay?","15","11","","1","1","1","competitive","left","1.38354516029","717.585111141","3.61645483971","721.370913029","3.43921303749","724.810191154","2.56078696251","727.422244072","729.033899069","729.107858181","732.11084199","1","732.12480402","736.403149128",""
"sujeto_282108e8","1","1","4","4","736.526235104","inverse","3","1","3","¿De que color es la camiseta de uruguay?","blanca","celeste","right","1","1","1","competitive","right","1.06485700607","737.591189146","3.93514299393","741.700110197","1.93799710274","743.638146162","4.06200289726","747.749665976","748.954213142","749.035394192","752.038109064","1","752.052186966","755.506105185",""
"sujeto_282108e8","1","1","5","5","755.637819052","direct","2","1","1","¿Cuánto metros mide
la torre Eiffel?","333","324","","1","1","1","competitive","left","1.55027699471","757.188163996","3.44972300529","760.793423176","2.45760607719","763.251087189","3.54239392281","766.843460083","768.364830971","768.445770025","771.448781013","1","771.462970972","778.499696016",""
"sujeto_282108e8","1","1","6","6","778.647499084","inverse","3","1","4","¿Cuantas ciudades existen
 en todo el uruguay?","63","72","","0","0","1","competitive","right","0.843505859375","779.491070032","4.15649414062","783.804440022","3.55155205727","787.356032133","2.44844794273","789.856062174","790.910133123","790.99000001","793.992998123","0","794.007215977","801.633779049",""
"sujeto_282108e8","1","1","7","7","801.808788061","direct","1","1","1","¿Cuantos estados tiene África?","52","54","","1","1","0","competitive","left","1.50908899307","803.317924976","3.49091100693","806.967288017","3.49153399467","810.45886302","2.50846600533","812.999503136","814.86353898","814.93366313","817.936640978","1","817.951834202","823.710165977",""
"sujeto_282108e8","1","1","8","8","823.853288174","inverse","4","1","4","¿En qué año nació
 Stephen Hawking?","1952","1942","","0","0","1","competitive","right","1.51554512978","825.36887908","3.48445487022","829.012006998","3.21885704994","832.230925083","2.78114295006","835.061988115","836.506333113","836.58031702","839.583304167","0","839.597655058","845.697026014",""
"sujeto_282108e8","1","1","9","9","845.849714994","direct","2","1","3","¿Cuánto años tenía Artigas
 cuando se fue a Paraguay?","56","57","","1","1","1","competitive","left","1.05115008354","846.900910139","3.94884991646","851.006827116","4.10791707039","855.114778996","1.89208292961","857.040678978","858.590195179","858.674643993","861.6776371","1","861.691897154","867.739211082",""
"sujeto_282108e8","1","1","10","10","867.877424002","inverse","1","1","2","¿Cuantos milímetros 
mide una hoja A2?","420x592","420x594","","0","0","1","individual","right","2.27337408066","870.150859118","2.72662591934","873.066097975","4.11769390106","877.183852196","1.88230609894","879.118563175","880.686949015","880.73666501","883.73962307","0","883.753669977","890.827306986",""
"sujeto_282108e8","1","1","11","11","890.988653183","direct","3","1","3","¿Cuál es la menor temperatura 
registrada en Uruguay?","-5.4","-7.4","","0","0","1","competitive","right","2.14863300323","893.137341022","2.85136699677","896.163557053","3.76721000671","899.930826187","2.23278999329","902.213598967","903.895621061","903.964853048","906.966144085","0","906.982443094","910.714127064",""
"sujeto_282108e8","1","1","12","12","910.850967169","inverse","2","1","2","¿Cuantos años hace que 
se fundó facebook?","18","17","","0","0","0","competitive","left","1.86873412132","912.719740152","3.13126587868","916.038676023","4.41504096985","920.453780174","1.58495903015","922.088729143","923.461480141","923.539151192","926.542134047","0","926.557408094","929.332048178",""
"sujeto_282108e8","1","1","13","13","929.458886147","direct","1","1","4","¿Cuál animal es más
 pesado en promedio?","Rinoceronte","Hipopotamo","","0","0","0","competitive","right","1.7188501358","931.177783012","3.2811498642","934.666742086","4.35001993179","939.016824007","1.64998006821","940.717477083","941.796663046","941.86849618","944.87014699","0","944.88529706","948.726159096",""
"sujeto_282108e8","1","1","14","14","948.870794058","inverse","1","1","2","¿Qué personaje de dragon ball 
murió más veces?","Chaoz","Krillin","","1","1","0","competitive","right","1.53498697281","950.405825138","3.46501302719","954.025912046","3.40084290504","957.426815033","2.59915709496","960.076326132","961.534175158","961.611620188","964.614579201","1","964.628599167","972.401532173",""
"sujeto_282108e8","1","1","15","15","972.546271086","direct","3","1","2","La universidad de oxford. 
existe desde:","1096","1249","","1","1","0","competitive","right","1.46247291565","974.00880909","3.53752708435","977.703760147","3.16396808624","980.867767096","2.83603191376","983.738288164","984.787077188","984.856462002","987.859395027","1","987.873336077","994.559712172",""
"sujeto_282108e8","1","1","16","16","994.71192503","inverse","3","1","1","¿Qué escritor latino ganó antes
 el premio nobel?"," García Marquez","Neruda","","0","0","1","individual","left","2.00180792809","996.713796139","2.99819207191","999.865633011","3.41010189056","1003.27579403","2.58989810944","1005.91493416","1007.65490103","1007.6996572","1010.70215201","0","1010.71730113","1014.17778206",""
"sujeto_282108e8","1","1","17","17","1014.31904912","direct","4","1","3","¿Cuántos dientes tiene un
 tiburón blanco?","6000","3000","","0","0","1","competitive","right","1.61574411392","1015.93485904","3.38425588608","1019.47717619","3.72356295586","1023.20077801","2.27643704414","1025.52706218","1026.56604815","1026.64507914","1029.64802217","0","1029.66228604","1034.47196603",""
"sujeto_282108e8","1","1","18","18","1034.614393","inverse","4","1","1","¿Cuánto mide el paralelo Ecuador?","40.000km","70.000km","","0","0","1","individual","left","2.2573928833","1036.87182808","2.7426071167","1039.77056503","3.86221504211","1043.63282108","2.13778495789","1045.80410814","1047.76020408","1047.8057611","1050.80866003","0","1050.82372308","1054.42623997",""
"sujeto_282108e8","1","1","19","19","1054.57482219","direct","4","1","2","¿Cuál fue el primer libro 
de Stephen King?","Carrie","The Stand","","1","1","1","competitive","right","2.47898793221","1057.05387616","2.52101206779","1059.73085117","3.4209690094","1063.15188098","2.5790309906","1065.78143597","1067.52554917","1067.59920311","1070.60218501","1","1070.61632109","1075.09073615",""
"sujeto_282108e8","1","1","20","20","1075.25132108","inverse","2","1","3","¿Qué civilización practicaba
 la momificación?","Grecia","Egipto","right","0","0","1","competitive","right","1.22453284264","1076.47589898","3.77546715736","1080.40715909","2.19459104538","1082.60178518","3.80540895462","1086.44079018","1088.38004899","1088.45966911","1091.46269798","1","1091.47696209","1095.70571303",""
"sujeto_282108e8","1","1","21","21","1095.84529018","direct","4","1","4","¿Cuántos millones de visitas
 recibe google por minuto?","3.0","4.5","","0","0","1","competitive","right","1.55958509445","1097.40492201","3.44041490555","1101.00237513","3.3885371685","1104.39097214","2.6114628315","1107.05255103","1108.56616807","1108.63663697","1111.6381762","0","1111.65441513","1118.77710605",""
"sujeto_282108e8","1","1","22","22","1118.90587711","inverse","1","1","3","La máquina de fax. se inventó en:","1843","1960","","0","0","1","competitive","right","1.64202022552","1120.54794002","3.35797977448","1124.04717112","5.39073109627","1129.43796206","0.609268903732","1130.0823462","1131.32445097","1131.39908004","1134.40207314","0","1134.41619301","1137.65017104",""
"sujeto_282108e8","1","1","23","23","1137.78435707","direct","2","1","4","En la verdadera historia de los
 300 espartanos. habían:","300 soldados","4300 soldados","","1","1","1","competitive","right","1.45457983017","1139.23901105","3.54542016983","1142.93646908","5.84845495224","1148.78496909","0.15154504776","1148.98934102","1150.25016308","1150.32264805","1153.3256371","1","1153.33990002","1157.1416862",""
"sujeto_282108e8","1","1","24","24","1157.30840707","inverse","1","1","4","¿Cuántos milímetros crece
 el pelo por día?","0.4","0.04","","0","0","0","competitive","left","1.20151901245","1158.50999618","3.79848098755","1162.46665215","3.11728405952","1165.5839951","2.88271594048","1168.51638818","1170.27711701","1170.35157108","1173.354568","0","1173.36880612","1180.10387516",""
"sujeto_282108e8","1","1","25","25","1180.23783612","direct","4","1","1","¿Cuánto mide la baldosa gris 
clásica de Montevideo?","22x22 cm.","20x20 cm.","","1","1","1","individual","left","1.39017415047","1181.6280582","3.60982584953","1185.39527297","4.09072899818","1189.48607707","1.90927100182","1191.44595718","1193.44123197","1193.47995114","1196.48289514","1","1196.4979322","1202.04073811",""
"sujeto_282108e8","1","1","26","26","1202.18319416","inverse","2","1","2","¿Cuántas películas de rápidos
 y furiosos hay?","10","11","","1","1","0","competitive","right","1.58689403534","1203.77013302","3.41310596466","1207.3239851","2.8750398159","1210.19908905","3.1249601841","1213.37424517","1214.73227406","1214.80859113","1217.81157207","1","1217.82560301","1219.86030102",""
"sujeto_282108e8","1","1","27","27","1219.99420619","direct","3","1","1","¿Cuántos masters 1000
 ganó Del Potro?","1","2","","1","1","1","individual","left","1.41586995125","1221.41012001","3.58413004875","1225.1325841","3.41153097153","1228.54418015","2.58846902847","1231.16566205","1232.92025399","1232.96736503","1235.97032809","1","1235.98465705","1243.38100004",""
"sujeto_282108e8","1","1","28","28","1243.7030952","inverse","2","1","4","¿Cuántos meses dura el 
embarazo de una leona?","3 meses","4 meses","","0","0","1","competitive","right","1.41605305672","1245.11919117","3.58394694328","1248.86143017","3.27779006958","1252.13928699","2.72220993042","1254.91182208","1256.02215099","1256.09713817","1259.10011315","0","1259.11334014","1265.83582306",""
"sujeto_282108e8","1","1","29","29","1265.9657042","direct","1","1","1","¿En qué año fue creado
 el sandwich?","1762","1653","","1","1","0","competitive","right","1.66346693039","1267.62923503","3.33653306961","1271.12044001","4.71377086639","1275.83425498","1.28622913361","1277.15755916","1278.75609803","1278.84141111","1281.84214401","1","1281.85829115","1285.32890105",""
"sujeto_282108e8","1","1","30","30","1285.45973897","inverse","4","1","2","El nombre de la moneda de Vietnam es:","Dinar","Dong","","0","0","1","individual","right","2.49253511429","1287.95231915","2.50746488571","1290.61624503","4.95002484322","1295.56630802","1.04997515678","1296.666013","1298.09805799","1298.15001202","1301.15301013","0","1301.167202","1307.333359",""
"sujeto_282108e8","1","1","31","31","1307.468472","direct","2","1","1","¿cuantos aleteos puede dar 
un colibrí por segundo?","120","50","","0","0","0","competitive","left","1.79685401917","1309.26536918","3.20314598083","1312.62729216","4.40607905388","1317.03341508","1.59392094612","1318.67738199","1320.40976906","1320.49449515","1323.49748611","0","1323.51166201","1327.72394514",""
"sujeto_282108e8","1","1","32","32","1327.87997818","inverse","4","1","3","¿Qué altura promedio tienen
 los hombres uruguayos?","1.73 m","1.72 m","","1","1","1","competitive","left","1.33046388626","1329.21050906","3.66953611374","1333.03847718","4.11594796181","1337.15448713","1.88405203819","1339.08914709","1340.35152006","1340.42379618","1343.4261272","1","1343.44036603","1347.91419315",""
"sujeto_282108e8","1","2","1","33","1463.43278718","direct","1","1","1","¿En qué año nació 
el actor Bradd Pitt?","1967","1963","","1","1","1","competitive","right","1.68208909035","1465.11491799","3.31791090965","1468.59163499","3.7212729454","1472.31294799","2.2787270546","1474.64196205","1475.73780513","1475.82708502","1478.83007717","1","1478.84406805","1484.77165318","1347.92550707"
"sujeto_282108e8","1","2","2","34","1484.94597602","inverse","2","1","1","¿Cual es el segundo 
monte más alto?","Kanchenjunga","K2","","1","1","1","competitive","right","1.23396492004","1486.18000603","3.76603507996","1490.11972308","3.21918320656","1493.33896208","2.78081679344","1496.16954803","1497.62195206","1497.70459414","1500.70757914","1","1500.72153401","1504.15143108",""
"sujeto_282108e8","1","2","3","35","1504.29038715","direct","3","1","1","¿Cuándo finalizó la construcción
 del Palacio Legislativo?","1925","1917","","0","0","1","individual","left","1.54655814171","1505.83698702","3.45344185829","1509.44644713","4.34660410881","1513.79309201","1.65339589119","1515.49588203","1517.13759708","1517.17983603","1520.18282008","0","1520.19706106","1525.89462519",""
"sujeto_282108e8","1","2","4","36","1526.03200603","inverse","3","1","3","¿Cuántos integrantes tenía
 en su inicio  el cuarteto de nos?","3","4","","1","1","1","competitive","left","1.37309193611","1527.40517211","3.62690806389","1531.17380619","3.44526290894","1534.61911106","2.55473709106","1537.20761418","1538.34071016","1538.42590714","1541.42889619","1","1541.44324613","1547.09303212",""
"sujeto_282108e8","1","2","5","37","1547.2281301","direct","2","1","3","¿Qué valor tiene el número pi?","3.14","4.18","left","0","0","1","competitive","left","1.23305082321","1548.46124816","3.76694917679","1552.3855722","2.03163599968","1554.41724801","3.96836400032","1558.43529201","1559.88946605","1559.97045612","1562.97344899","1","1562.98763299","1569.90617299",""
"sujeto_282108e8","1","2","6","38","1570.03963614","inverse","2","1","2","¿Cuál es la esperanza de vida
 en Uruguay?","75","77","","1","1","0","competitive","right","1.24761915207","1571.28730106","3.75238084793","1575.19663501","2.45560288429","1577.65227604","3.54439711571","1581.24644518","1582.900249","1582.98166418","1585.98214412","1","1585.99914503","1592.46215606",""
"sujeto_282108e8","1","2","7","39","1592.60132217","direct","1","1","2","¿Cuantos pisos tiene la torre 
de las comunicaciones?","26","32","","1","1","0","competitive","left","0.779053926468","1593.38041997","4.22094607353","1597.75573111","2.99866580963","1600.7544601","3.00133419037","1603.80783319","1605.63663411","1605.7093122","1608.71227503","1","1608.72657514","1610.87278605",""
"sujeto_282108e8","1","2","8","40","1611.01152205","inverse","2","1","4","¿En qué país sudamericano 
no hay McDonalds?","Bolivia","Venezuela","","0","0","1","competitive","left","1.02134990692","1612.03294206","3.97865009308","1616.16862512","2.54980111122","1618.71846914","3.45019888878","1622.21776414","1623.52713108","1623.60331416","1626.60626817","0","1626.62054801","1632.98027301",""
"sujeto_282108e8","1","2","9","41","1633.12199116","direct","3","1","1","¿En qué año empieza
 la Edad Media?","476","512","","1","1","1","individual","right","1.46155905724","1634.58361197","3.53844094276","1638.29701614","3.39252400398","1641.68957901","2.60747599602","1644.33049703","1645.73424506","1645.78164101","1648.78457904","1","1648.79855514","1651.78711104",""
"sujeto_282108e8","1","2","10","42","1651.93390608","inverse","3","1","4","¿Hace cuántos años surgió
 el ser humano?","200mil","300mil","","0","0","0","competitive","right","1.03876781464","1652.97275519","3.96123218536","1657.10481811","2.95283985138","1660.05770302","3.04716014862","1663.15596914","1665.04206014","1665.124547","1668.12752509","0","1668.14149499","1671.45196509",""
"sujeto_282108e8","1","2","11","43","1671.5930481","direct","3","1","4","¿Cuántas cuadras tiene
 actualmente 18 de julio? ","36","33","","0","0","1","competitive","right","0.862693786621","1672.45581698","4.13730621338","1676.74857998","4.49909186363","1681.24771309","1.50090813637","1682.80089307","1684.50312805","1684.58464313","1687.58761001","0","1687.60184908","1692.32813406",""
"sujeto_282108e8","1","2","12","44","1692.45439005","inverse","1","1","4","¿Qué juego de equipo se 
considera mas rápido?","Lacrosse","Badminton","","0","0","0","competitive","right","0.757441043854","1693.21187615","4.24255895615","1697.60973597","4.68407988548","1702.29387617","1.31592011452","1703.66169214","1704.90476608","1704.97850704","1707.98148513","0","1707.99573898","1715.99015999",""
"sujeto_282108e8","1","2","13","45","1716.11420608","direct","1","1","3","¿Qué promedio de edad 
vive una jirafa? ","25","20","","0","0","1","competitive","left","1.4487259388","1717.56300116","3.5512740612","1721.27267218","3.26028299332","1724.53299499","2.73971700668","1727.30627704","1729.06774616","1729.14144301","1732.14441609","0","1732.15959406","1738.11415005",""
"sujeto_282108e8","1","2","14","46","1738.26035118","inverse","1","1","2","¿Cuántos grandes lagos hay?","7","5","","0","0","1","competitive","left","1.45265293121","1739.71307397","3.54734706879","1743.41700101","2.94804191589","1746.36508703","3.05195808411","1749.45142102","1750.74358416","1750.8195641","1753.82255411","0","1753.83654213","1761.6579082",""
"sujeto_282108e8","1","2","15","47","1761.80517912","direct","3","1","2","¿Cuántos discos de estudio
 grabó Johhny Cash? ","54","43","","1","1","0","individual","right","1.50189399719","1763.30713701","3.49810600281","1766.96046019","4.10462999344","1771.06513405","1.89537000656","1773.01252913","1774.29118609","1774.33031297","1777.33328319","1","1777.34764218","1783.998137",""
"sujeto_282108e8","1","2","16","48","1784.13234401","inverse","4","1","1","¿Cuántos barrios tiene
 Montevideo? ","71","62","","0","0","1","individual","right","1.79279994965","1785.9251821","3.20720005035","1789.29011202","3.17511606216","1792.465271","2.82488393784","1795.34194803","1796.34903097","1796.393821","1799.39680719","0","1799.41101909","1804.87305212",""
"sujeto_282108e8","1","2","17","49","1805.01243615","direct","3","1","3","¿Qué edad tiene Homero Simpson?","36","42","","0","0","1","competitive","right","0.976854085922","1805.98935509","4.02314591408","1810.16817713","2.85916113853","1813.02738214","3.14083886147","1816.20250916","1817.57854819","1817.6539762","1820.65697718","0","1820.67072415","1825.05816507",""
"sujeto_282108e8","1","2","18","50","1825.20628619","inverse","4","1","2","¿Cuántos países con monarquía 
hay en europa actualmente? ","6","10","","1","1","1","competitive","right","1.93416810036","1827.14050198","3.06583189964","1830.378057","4.63738203049","1835.015481","1.36261796951","1836.43020415","1837.86852098","1837.94836712","1840.95132113","1","1840.96557212","1847.12235999",""
"sujeto_282108e8","1","2","19","51","1847.26689601","direct","2","1","3","¿Cuántos capítulos de
 Friends existen? ","236","228","","1","1","1","competitive","left","0.90465593338","1848.17160201","4.09534406662","1852.4377811","3.98776197433","1856.42561197","2.01223802567","1858.49018312","1859.79573202","1859.8747921","1862.87775397","1","1862.89201999","1865.2676661",""
"sujeto_282108e8","1","2","20","52","1865.40990806","inverse","1","1","3","¿Cuántas óperas compuso Mozart? ","27","22","","1","1","1","competitive","left","0.932669878006","1866.34264398","4.06733012199","1870.59962106","3.56196284294","1874.16162801","2.43803715706","1876.63370013","1877.92583704","1878.0024662","1881.00545001","1","1881.01974416","1888.33121419",""
"sujeto_282108e8","1","2","21","53","1888.47112513","direct","4","1","3","¿Cuántos mundiales de fútbol 
femenino ha realizado FIFA? ","9","7","","1","1","1","competitive","right","0.986618041992","1889.457793","4.01338195801","1893.64577413","3.35998511314","1897.0058012","2.64001488686","1899.67915106","1900.92213011","1900.99779105","1904.00078201","1","1904.01502514","1910.11748815",""
"sujeto_282108e8","1","2","22","54","1910.24988317","inverse","3","1","2","¿Cuál es la temperatura 
media anual en Montevideo? ","17.5","16.3","","0","0","1","individual","right","1.83287596703","1912.08283019","3.16712403297","1915.42155099","3.98623108864","1919.40784097","2.01376891136","1921.47241211","1923.4101131","1923.45663118","1926.4596231","0","1926.4748311","1933.04212618",""
"sujeto_282108e8","1","2","23","55","1933.17612505","direct","2","1","2","¿En qué año se estrenó el
 videojuego The Sims? ","2000","2002","","0","0","0","competitive","right","1.06079101562","1934.23699498","3.93920898438","1938.33218312","2.63373017311","1940.96595097","3.36626982689","1944.38458514","1946.24659514","1946.31936908","1949.32211804","0","1949.3372612","1956.73086715",""
"sujeto_282108e8","1","2","24","56","1956.87557507","inverse","2","1","1","¿Cuál es la canción con 
mas covers? ","Yesterday","Stand by me","","0","0","0","individual","left","1.57940387726","1958.455019","3.42059612274","1962.03148603","3.08756089211","1965.11909103","2.91243910789","1968.08101797","1969.47955799","1969.51598215","1972.518929","0","1972.53321314","1976.70402503",""
"sujeto_282108e8","1","2","25","57","1976.83516097","direct","1","1","4","¿Cuánto duró la guerra
 de los 100 años?","116","123","","0","0","0","competitive","left","0.726973056793","1977.562181","4.27302694321","1982.00780416","2.66137599945","1984.66921806","3.33862400055","1988.04195905","1989.52278018","1989.592803","1992.59578013","0","1992.61007905","1994.92987418",""
"sujeto_282108e8","1","2","26","58","1995.06207919","inverse","4","1","4","¿Qué color tiene la  bandera de Brasil?","Amarillo","Naranja","left","0","0","1","competitive","left","0.988153934479","1996.05030012","4.01184606552","2000.24808502","3.27809381485","2003.52622008","2.72190618515","2006.2826252","2007.8491292","2007.93459415","2010.93757606","1","2010.95182514","2013.98462415",""
"sujeto_282108e8","1","2","27","59","2014.12037015","direct","4","1","3","¿Qué carabela de 
Colon no volvió del viaje?","Santa María","La pinta","","0","0","1","competitive","right","0.91298699379","2015.03343415","4.08701300621","2019.27652407","4.11277723312","2023.38933802","1.88722276688","2025.32846117","2026.81952405","2026.89594817","2029.89892817","0","2029.91325498","2032.01272511",""
"sujeto_282108e8","1","2","28","60","2032.14812613","inverse","4","1","4","¿Cuántos huesos tiene
 un adulto humano?","217","206","","0","0","1","competitive","right","0.744292974472","2032.892488","4.25570702553","2037.3368361","2.37959909439","2039.716501","3.62040090561","2043.37053919","2044.6415751","2044.7217772","2047.724756","0","2047.73959804","2055.57731199",""
"sujeto_282108e8","1","2","29","61","2055.70792317","direct","1","1","1","¿Qué país africano fue 
fundado por esclavos?","Liberia","Chad","","0","0","0","individual","right","1.64658808708","2057.35455513","3.35341191292","2060.86576819","4.6628010273","2065.52862906","1.3371989727","2066.90040517","2068.89205909","2068.93496013","2071.9378562","0","2071.95191717","2079.94212198",""
"sujeto_282108e8","1","2","30","62","2080.08783412","inverse","4","1","2","¿A cuánto asciende la cima
 del monte Everest?","7.990 mts","8.848 mts","","0","0","1","competitive","right","0.778764009476","2080.86666012","4.22123599052","2085.24493814","2.94875597954","2088.19373512","3.05124402046","2091.29477906","2092.47957015","2092.56350899","2095.56616497","0","2095.58126712","2102.76213002",""
"sujeto_282108e8","1","2","31","63","2102.93204117","direct","4","1","1","¿Cuál es el país mas chico?","Sealand","Luxemburgo","","1","1","1","competitive","right","0.869698047638","2103.80178118","4.13030195236","2108.10404897","2.21372795105","2110.31783605","3.78627204895","2114.13844419","2116.0019362","2116.07433009","2119.07732606","1","2119.09168601","2122.21393609",""
"sujeto_282108e8","1","2","32","64","2122.34328008","inverse","2","1","4","¿Cuántas pirámides hay en Egipto?","10000","11000","","1","1","1","competitive","left","0.867650032043","2123.21103501","4.13234996796","2127.53338003","3.33944702148","2130.87288404","2.66055297852","2133.58465004","2134.6181941","2134.70157218","2137.70456409","1","2137.71879315","2142.82784319",""
"sujeto_282108e8","1","3","1","65","2276.59064603","direct","2","1","2","¿Cuál es el quinto país con 
mas extensión?","Canadá","Brasil","","1","1","0","competitive","right","1.22100400925","2277.81171203","3.77899599075","2281.74629307","3.45542407036","2285.20177817","2.54457592964","2287.79821515","2289.131531","2289.21597719","2292.21896005","1","2292.23299217","2299.95938396","2142.84006619"
"sujeto_282108e8","1","3","2","66","2300.10149217","inverse","1","1","2","¿Qué rasgo facial no tiene
 la Mona Lisa?","Cejas","Pómulos","","0","0","1","competitive","left","1.07742905617","2301.17902803","3.92257094383","2305.27313519","3.12869906425","2308.40187407","2.87130093575","2311.30834913","2313.0581162","2313.14376712","2316.14672017","0","2316.16098309","2322.43229914",""
"sujeto_282108e8","1","3","3","67","2322.57903409","direct","4","1","3","¿Cuál es el país con 
mayor población?","Esados Unidos","China","right","0","0","1","competitive","right","0.831919908524","2323.41103005","4.16808009148","2327.75364518","2.23932003975","2329.99302697","3.76067996025","2333.8045361","2335.45014215","2335.52232003","2338.52530217","1","2338.54053998","2341.90784597",""
"sujeto_282108e8","1","3","4","68","2342.05843711","inverse","1","1","1","La palabra dinosaurio significa","Lagarto Terrible","Lagarto Dragón","","1","1","0","competitive","right","1.29568481445","2343.35416818","3.70431518555","2347.21458411","3.14350509644","2350.35813498","2.85649490356","2353.24774408","2354.41806817","2354.4993","2357.50217199","1","2357.5173111","2360.37913918",""
"sujeto_282108e8","1","3","5","69","2360.518574","direct","2","1","3","¿Qué es el membrillero?","Arbol","Arbusto","","0","0","0","competitive","left","0.676630973816","2361.19530916","4.32336902618","2365.68720412","3.20299911499","2368.8902452","2.79700088501","2371.7402432","2373.69437408","2373.77488804","2376.77786899","0","2376.79190612","2383.25594616",""
"sujeto_282108e8","1","3","6","70","2383.39401507","inverse","3","1","3","¿Alrededor de qué planeta orbita 
el satélite Europa?","Jupiter","Saturno","","1","1","1","competitive","right","0.679283857346","2384.07340407","4.32071614265","2388.5685792","4.66574597359","2393.23439217","1.33425402641","2394.62007713","2396.16489005","2396.23737001","2399.24034405","1","2399.25464201","2401.45982218",""
"sujeto_282108e8","1","3","7","71","2401.62409711","direct","3","1","1","¿Donde fue el mundial de 
fútbol de 1954?","Suiza","Suecia","","1","1","1","competitive","left","1.62331986427","2403.24748302","3.37668013573","2406.79337716","4.0380320549","2410.83147311","1.9619679451","2412.84431005","2414.09692717","2414.17898512","2417.18197417","1","2417.19592714","2421.1076901",""
"sujeto_282108e8","1","3","8","72","2421.24756312","inverse","1","1","4","¿Cuál de los 7 enanitos
no tenía barba?","Bashful","Mudito","","1","1","0","competitive","right","0.77987909317","2422.02748609","4.22012090683","2426.43877506","4.63571691513","2431.07453418","1.36428308487","2432.49047112","2434.07059002","2434.14118314","2437.14416218","1","2437.15822506","2442.08726501",""
"sujeto_282108e8","1","3","9","73","2442.25966501","direct","3","1","2","¿Cual red social es
mas utilizada mundialmente?","Instagram","Facebook","","1","1","0","competitive","right","0.941030025482","2443.20078111","4.05896997452","2447.44710302","3.34250187874","2450.7896452","2.65749812126","2453.48219013","2455.39815116","2455.48449707","2458.48616505","1","2458.50142598","2461.43588519",""
"sujeto_282108e8","1","3","10","74","2461.6195991","inverse","4","1","1","¿Cuándo se inició la copa
 América de fútbol?","1916","1923","","1","1","1","competitive","right","1.25613999367","2462.87578416","3.74386000633","2466.77645111","4.59428215027","2471.37077403","1.40571784973","2472.81129003","2474.70869803","2474.7953372","2477.79816604","1","2477.81230116","2480.46842098",""
"sujeto_282108e8","1","3","11","75","2480.59754014","direct","3","1","4","¿Cuántos presidentes de EEUU
han muerto asesinados?","3","4","","0","0","1","competitive","left","0.858231067657","2481.45583415","4.14176893234","2485.75316","3.29558706284","2489.04880309","2.70441293716","2491.78733015","2493.271281","2493.35540605","2496.35839605","0","2496.3724072","2500.01652002",""
"sujeto_282108e8","1","3","12","76","2500.17344713","inverse","2","1","4","¿Cuántas veces participó EEUU
 en la copa América?","4","5","","0","0","1","competitive","right","0.814507961273","2500.98801899","4.18549203873","2505.34342813","3.43551516533","2508.77900505","2.56448483467","2511.39536905","2512.83947897","2512.91379809","2515.91681004","0","2515.93105412","2522.04819202",""
"sujeto_282108e8","1","3","13","77","2522.19960618","direct","4","1","1","¿Cuál de estos países 
no formaba la URSS?","Azeribayán","Afganistán","","0","0","1","individual","left","1.46147799492","2523.66115117","3.53852200508","2527.35771203","4.7013399601","2532.059093","1.2986600399","2533.40968299","2534.7227881","2534.75991106","2537.76217318","0","2537.77732611","2545.75416517",""
"sujeto_282108e8","1","3","14","78","2545.92890501","inverse","1","1","1","¿En qué año se inauguró
 el teatro Solís?","1867","1856","","0","0","0","competitive","right","1.76628494263","2547.69525409","3.23371505737","2551.10298109","3.18116116524","2554.28420019","2.81883883476","2557.15401697","2558.2103672","2558.28974104","2561.29272509","0","2561.30591297","2567.95373607",""
"sujeto_282108e8","1","3","15","79","2568.09141898","direct","1","1","4","¿A qué velocidad vuela 
el avión más rápido?","3529","3874","","0","0","0","competitive","right","0.670938014984","2568.76242113","4.32906198502","2573.24888015","4.20040798187","2577.44935703","1.79959201813","2579.29994416","2581.05543613","2581.13410211","2584.13710713","0","2584.15110517","2586.26138902",""
"sujeto_282108e8","1","3","16","80","2586.41925716","inverse","3","1","4","¿De qué año es la primer 
película cinematográfica?","1897","1888","","0","0","0","competitive","right","0.619122982025","2587.03843212","4.38087701797","2591.57335019","3.9700961113","2595.5435071","2.0299038887","2597.62610817","2598.75912499","2598.84297705","2601.84594607","0","2601.85991812","2607.26967597",""
"sujeto_282108e8","1","3","17","81","2607.39497519","direct","2","1","3","¿Cuántos países 
tiene nuestro planeta?","191","194","","1","1","1","competitive","right","1.03457403183","2608.42961717","3.96542596817","2612.55210805","2.86543488503","2615.41761017","3.13456511497","2618.60278201","2619.9599731","2620.0371151","2623.03817201","1","2623.05448604","2626.29278803",""
"sujeto_282108e8","1","3","18","82","2626.43984413","inverse","2","1","2","¿Cuántos habitantes
 tiene Buenos Aires?","2.9000.000","3650000","","0","0","0","competitive","left","0.869749069214","2627.30966902","4.13025093079","2631.59496117","4.68775010109","2636.28277516","1.31224989891","2637.6460681","2639.04215407","2639.1136651","2642.11658001","0","2642.13067698","2647.95816016",""
"sujeto_282108e8","1","3","19","83","2648.11609101","direct","2","1","1","¿Cuántos kilos forman una tonelada?","1000","1500","left","1","1","1","individual","left","1.08360886574","2649.19976616","3.91639113426","2653.30728412","4.0764400959","2657.38376403","1.9235599041","2659.34093118","2661.22827697","2661.27517915","2664.27815318","1","2664.29316401","2670.25061011",""
"sujeto_282108e8","1","3","20","84","2670.3952632","inverse","4","1","4","¿Cuántos estados tiene la 
República del Perú? ","24","23","","0","0","1","competitive","right","0.760610103607","2671.15592504","4.23938989639","2675.54875708","2.66213488579","2678.21095419","3.33786511421","2681.58387017","2682.60602212","2682.689152","2685.69209504","0","2685.70319605","2690.64612007",""
"sujeto_282108e8","1","3","21","85","2690.77071118","direct","3","1","3","¿En qué año nació Cristóbal Colón? ","1451","1447","","0","0","1","competitive","left","0.89226603508","2691.66304016","4.10773396492","2695.9285152","3.89242100716","2699.82097316","2.10757899284","2701.96348619","2703.80935907","2703.88121819","2706.88211703","0","2706.89837599","2711.12612319",""
"sujeto_282108e8","1","3","22","86","2711.2668221","inverse","4","1","4","¿Cuánto mide la 
Montaña Aconcagua? ","6234","6962","","0","0","1","competitive","left","0.658276796341","2711.92514515","4.34172320366","2716.42229414","4.04984116554","2720.47218013","1.95015883446","2722.47422719","2723.76358318","2723.841717","2726.84215808","0","2726.85927105","2734.04294014",""
"sujeto_282108e8","1","3","23","87","2734.17718005","direct","2","1","4","¿Cuánto mide el punto
 más profundo del océano? ","12508","11003","","0","0","1","competitive","left","0.84006690979","2735.01732612","4.15993309021","2739.33493114","3.0604569912","2742.39544916","2.9395430088","2745.36922598","2746.62074614","2746.70566797","2749.70865297","0","2749.72064805","2753.92687607",""
"sujeto_282108e8","1","3","24","88","2754.07254219","inverse","1","1","3","¿Cuántos álbumes ha publicado 
el cantante Jaime Roos? ","41","34","","0","0","1","competitive","left","1.25832796097","2755.33091712","3.74167203903","2759.22584605","3.77922296524","2763.00513411","2.22077703476","2765.26148915","2766.75134802","2766.82906914","2769.83205914","0","2769.84741497","2776.0435791",""
"sujeto_282108e8","1","3","25","89","2776.18232703","direct","4","1","3","¿En qué año nació el 
ex-presidente Jorge Battle? ","1921","1927","","1","1","1","competitive","right","0.847225904465","2777.02961016","4.15277409554","2781.34069705","3.65903997421","2784.99978209","2.34096002579","2787.375489","2789.10615396","2789.19333601","2792.19633412","1","2792.21062708","2795.69667697",""
"sujeto_282108e8","1","3","26","90","2795.82897711","inverse","1","1","3","¿Cuántas presidencias 
constitucionales  hubo en Uruguay? ","41","42","","0","0","1","competitive","right","1.0111978054","2796.84024119","3.9888021946","2801.01822305","3.26510691643","2804.28337097","2.73489308357","2807.06958914","2808.27333498","2808.35471606","2811.3576622","0","2811.37081504","2817.15446711",""
"sujeto_282108e8","1","3","27","91","2817.29022813","direct","1","1","2","¿Quién escribió mas sinfonías?","Mozart","Haydn","","1","1","0","competitive","right","1.53165221214","2818.8219471","3.46834778786","2822.46410799","3.26393294334","2825.72808599","2.73606705666","2828.5138371","2829.73132515","2829.81588507","2832.81888103","1","2832.83311605","2836.58452702",""
"sujeto_282108e8","1","3","28","92","2836.71850514","inverse","4","1","2","¿En qué año nació Michael Jackson?","1958","1953","","1","1","1","competitive","right","0.930901050568","2837.64945316","4.06909894943","2841.89041805","5.44720292091","2847.33766413","0.552797079086","2847.92601418","2849.90427804","2849.97662711","2852.9796021","1","2852.99377799","2858.85612011",""
"sujeto_282108e8","1","3","29","93","2858.99550915","direct","3","1","2","¿En qué año entró en vigencia 
la ley antitabaco en Uruguay?","2005","2006","","1","1","1","competitive","left","0.912518978119","2859.90813398","4.08748102188","2864.18651104","4.30778694153","2868.49435711","1.69221305847","2870.22136712","2871.816149","2871.88861108","2874.89020014","1","2874.90640712","2880.23816514",""
"sujeto_282108e8","1","3","30","94","2880.37478399","inverse","3","1","1","¿Cuándo se subió el 
primer video a youtube?","2004","2005","","0","0","1","individual","left","1.74586105347","2882.12071013","3.25413894653","2885.532233","3.94256091118","2889.47486115","2.05743908882","2891.56618619","2892.87183905","2892.917238","2895.92021799","0","2895.9343822","2903.69000411",""
"sujeto_282108e8","1","3","31","95","2903.8194561","direct","2","1","1","¿Cuántos habitantes tiene India?","1200 millones","1300 millones","","0","0","0","individual","right","2.03182601929","2905.85134506","2.96817398071","2908.977566","5.0618159771","2914.0394392","0.938184022903","2915.02894998","2916.99810815","2917.0458231","2920.04880404","0","2920.06383014","2926.11013818",""
"sujeto_282108e8","1","3","32","96","2926.26559615","inverse","4","1","2","¿A qué edad murió Bob Marley?","36","37","","0","0","1","individual","left","1.35919308662","2927.62485313","3.64080691338","2931.42182612","4.69920110703","2936.12108898","1.30079889297","2937.45779705","2939.35563803","2939.40881109","2942.41178918","0","2942.42590117","2945.52833605",""
"sujeto_282108e8","1","4","1","97","3124.84227204","direct","2","1","1","¿Cuantos años dirigió la selección 
uruguaya Tabarez?","15 años","13 años","","0","0","0","individual","left","1.53409290314","3126.3764112","3.46590709686","3129.9971571","3.46834015846","3133.465554","2.53165984154","3136.04497719","3137.23613119","3137.27989602","3140.28285313","0","3140.29713511","3147.36916614","2945.54035497"
"sujeto_282108e8","1","4","2","98","3147.49820518","inverse","4","1","1","¿Cuantas teclas tiene un teclado 
de computadora generalmente? ","Entre 99 y 108","Entre 109 y 113","","1","1","1","individual","left","1.24067306519","3148.7389462","3.75932693481","3152.65884519","5.91015410423","3158.56904006","0.0898458957672","3158.710078","3159.71280003","3159.76050115","3162.76346803","1","3162.77769518","3165.14911699",""
"sujeto_282108e8","1","4","3","99","3165.29606915","direct","1","1","1","¿Cuál Departamento tiene
 mayor superficie?","Río Negro","Soriano","","0","0","0","competitive","left","1.60416698456","3166.90030408","3.39583301544","3170.45125914","4.28901004791","3174.74030709","1.71098995209","3176.50277901","3178.21624207","3178.28611398","3181.28910613","0","3181.30324602","3185.62934208",""
"sujeto_282108e8","1","4","4","100","3185.77189898","inverse","3","1","2","¿Cuál es el apellido de las 
hermanastras  de  cenicienta?","Tremaine","Truman","","0","0","1","competitive","left","1.13612604141","3186.90809798","3.86387395859","3190.9629271","3.87972903252","3194.84271407","2.12027096748","3197.01320004","3198.88216209","3198.96489215","3201.967839","0","3201.98189402","3204.677809",""
"sujeto_282108e8","1","4","5","101","3204.81696105","direct","4","1","4","¿Cuál película ganó un
 Oscar a mejor película?","Alto Impacto","Cache","","0","0","1","competitive","left","0.833974838257","3205.65098119","4.16602516174","3210.00513506","4.1049258709","3214.11010098","1.8950741291","3216.05712509","3217.17649698","3217.25722599","3220.258111","0","3220.274472","3222.53812408",""
"sujeto_282108e8","1","4","6","102","3222.692693","inverse","1","1","3","¿A cuántos centímetros
equivale la medida pié?","25","30","","0","0","1","competitive","left","0.907618045807","3223.60037804","4.09238195419","3227.84798408","3.56844186783","3231.41646814","2.43155813217","3233.89854217","3234.93815207","3235.01635408","3238.01932812","0","3238.03459907","3243.43555212",""
"sujeto_282108e8","1","4","7","103","3243.56932211","direct","2","1","2","¿Qué departamento es mas grande?","Cerro Largo","Paysandú","","0","0","0","competitive","left","0.84335899353","3244.41272712","4.15664100647","3248.72531819","3.85839104652","3252.58376908","2.14160895348","3254.76007414","3256.35979819","3256.4281981","3259.4301312","0","3259.44507313","3263.55412197",""
"sujeto_282108e8","1","4","8","104","3263.67993212","inverse","2","1","3","¿Quién pintó la Mona Lisa?","Picasso","Da Vinci","right","0","0","1","competitive","right","0.870178222656","3264.550179","4.12982177734","3268.83632016","1.65973711014","3270.49611402","4.34026288986","3274.88644719","3276.49227118","3276.57196617","3279.57498908","1","3279.58912015","3281.750144",""
"sujeto_282108e8","1","4","9","105","3281.90824509","direct","4","1","3","¿Cuántos litros hay en un galon?","3.54","3.78","","1","1","1","competitive","left","0.742060899734","3282.65036917","4.25793910027","3287.06296706","3.35142803192","3290.4144361","2.64857196808","3293.11347008","3294.63133717","3294.71481013","3297.71775508","1","3297.73291802","3303.52527714",""
"sujeto_282108e8","1","4","10","106","3303.66779804","inverse","4","1","1","¿Cuántas teclas tiene
 un piano moderno?","80","88","","0","0","1","individual","left","1.56389594078","3305.23173618","3.43610405922","3308.82560515","4.5872399807","3313.41288614","1.4127600193","3314.87601805","3315.88443303","3315.92732906","3318.93031311","0","3318.94442606","3325.74216318",""
"sujeto_282108e8","1","4","11","107","3325.91228318","direct","4","1","3","¿Cuántos países hay en África?","54","62","","0","0","1","competitive","left","0.751785993576","3326.66413808","4.24821400642","3331.08470511","2.01746416092","3333.10223103","3.98253583908","3337.13640618","3338.82698107","3338.90472817","3341.90772605","0","3341.92287803","3349.72764397",""
"sujeto_282108e8","1","4","12","108","3349.85759115","inverse","1","1","3","¿En qué siglo se crearon
 las primeras pistolas?","XV","XIII","","1","1","1","competitive","right","1.25797104836","3351.11563301","3.74202895164","3355.03290701","3.73663902283","3358.76958919","2.26336097717","3361.08328199","3363.03120208","3363.11772919","3366.1207242","1","3366.13579512","3369.36890912",""
"sujeto_282108e8","1","4","13","109","3369.53767705","direct","3","1","4","¿En qué año se estrenó 
la serie friends?","1994","1995","","0","0","1","competitive","left","0.847048997879","3370.38479614","4.15295100212","3374.69255209","3.95429801941","3378.64688897","2.04570198059","3380.74469113","3382.61997509","3382.6943121","3385.69723201","0","3385.71230006","3390.71833205",""
"sujeto_282108e8","1","4","14","110","3390.84723806","inverse","3","1","4","¿En qué año nació Hitler?","1889","1887","","0","0","1","competitive","left","0.847609996796","3391.69500399","4.1523900032","3396.02092218","4.3532409668","3400.37422204","1.6467590332","3402.07282519","3403.1871531","3403.2570262","3406.25818515","0","3406.27329707","3411.29820704",""
"sujeto_282108e8","1","4","15","111","3411.42583609","direct","1","1","4","¿Cuánto pesa un elefante Africano?","6000 kilos","5400 kilos","","0","0","0","competitive","left","0.844564914703","3412.27044606","4.1554350853","3416.57954407","3.64992403984","3420.22950602","2.35007596016","3422.63208318","3423.98794508","3424.06737709","3427.07016897","0","3427.08409715","3433.79017305",""
"sujeto_282108e8","1","4","16","112","3433.9359901","inverse","1","1","2","¿Qué porcentaje de 
la población es zurda?","10%","7%","","1","1","0","competitive","right","0.683824062347","3434.61985898","4.31617593765","3439.10694313","2.51693701744","3441.62392116","3.48306298256","3445.15908003","3446.40219903","3446.47839904","3449.4813962","1","3449.49460316","3455.47435308",""
"sujeto_282108e8","1","4","17","113","3455.61361098","direct","1","1","2","¿En qué año se estrenó
Volver al futuro?","1984","1985","","0","0","1","competitive","right","0.702528953552","3456.31620717","4.29747104645","3460.78901219","3.94713497162","3464.736202","2.05286502838","3466.83967209","3468.40145612","3468.47404814","3471.47707105","0","3471.49139214","3478.58284903",""
"sujeto_282108e8","1","4","18","114","3478.72625804","inverse","3","1","2","¿Cuántos jugadores hay en un 
equipo de baseball?","9","8","","1","1","0","competitive","left","0.765201807022","3479.49153399","4.23479819298","3483.88435411","4.63820099831","3488.52261615","1.36179900169","3489.93544698","3491.54969001","3491.61997414","3494.62293911","1","3494.63716412","3499.61433411",""
"sujeto_282108e8","1","4","19","115","3499.73853612","direct","2","1","1","¿Cuántos Oscar ganó
 la película titanic?","13","11","","1","1","1","competitive","left","1.6992161274","3501.4378171","3.3007838726","3504.89470005","4.96008491516","3509.85484314","1.03991508484","3510.92958498","3512.23167801","3512.31309104","3515.31607699","1","3515.33110213","3519.93378901",""
"sujeto_282108e8","1","4","20","116","3520.08244014","inverse","4","1","4","¿En qué año comenzó
la segunda guerra mundial?","1939","1976","left","0","0","1","competitive","left","0.644659996033","3520.72720408","4.35534000397","3525.26952314","3.37662911415","3528.64619112","2.62337088585","3531.3050611","3533.10494018","3533.19007397","3536.19305205","1","3536.20731115","3540.19446301",""
"sujeto_282108e8","1","4","21","117","3540.32579803","direct","2","1","4","¿Cuántos biomas hay en Uruguay?","5","4","","0","0","1","competitive","left","1.00456404686","3541.33043003","3.99543595314","3545.49909711","4.06733798981","3549.56649709","1.93266201019","3551.55141711","3553.34877419","3553.41840601","3556.421345","0","3556.43662906","3562.68607306",""
"sujeto_282108e8","1","4","22","118","3562.82094097","inverse","2","1","3","¿Cuándo murió Pablo Escobar?","1993","1997","","1","1","1","competitive","right","0.839707136154","3563.6607182","4.16029286385","3567.97881699","3.72092795372","3571.69981217","2.27907204628","3574.03008604","3575.8129282","3575.89768219","3578.89815617","1","3578.91452503","3584.61820316",""
"sujeto_282108e8","1","4","23","119","3584.78331709","direct","1","1","4","¿Qué serie ha ganado mas premios?","Friends","Murphy Brown","","1","1","0","competitive","left","0.888618946075","3585.67200708","4.11138105392","3589.94034004","3.0026409626","3592.943048","2.9973590374","3595.99042916","3597.34285498","3597.42615914","3600.42914414","1","3600.4423542","3606.00399113",""
"sujeto_282108e8","1","4","24","120","3606.14401913","inverse","4","1","2","¿Cuántas fichas tiene el dominó?","26","28","","1","1","1","competitive","left","0.891246080399","3607.03531504","4.1087539196","3611.29839897","4.60188698769","3615.90034604","1.39811301231","3617.35160518","3618.40693116","3618.48575616","3621.48873806","1","3621.50283098","3626.74594307",""
"sujeto_282108e8","1","4","25","121","3626.88818407","direct","2","1","4","¿Cuántos son los dientes de leche?","20","25","","0","0","1","competitive","left","0.647286891937","3627.53552008","4.35271310806","3632.061867","3.66072702408","3635.7226541","2.33927297592","3638.09703302","3639.80741715","3639.88160419","3642.88215518","0","3642.8984561","3645.04416203",""
"sujeto_282108e8","1","4","26","122","3645.21708202","inverse","3","1","3","¿Cuántos gramos son una onza?","22","28","","0","0","1","competitive","left","1.12665200233","3646.34380198","3.87334799767","3650.38906503","2.59572792053","3652.98483706","3.40427207947","3656.42217207","3658.41700506","3658.49084496","3661.49380517","0","3661.50794101","3667.79816914",""
"sujeto_282108e8","1","4","27","123","3667.943753","direct","3","1","1","¿Cuándo salió el primer album
 de los Beatles?","1963","1962","","1","1","1","individual","left","1.0452940464","3668.98911715","3.9547059536","3673.100811","4.34322094917","3677.44409609","1.65677905083","3679.13506699","3680.29816818","3680.33616304","3683.33813906","1","3683.35318303","3687.12521315",""
"sujeto_282108e8","1","4","28","124","3687.27100301","inverse","3","1","3","¿Quién fundó la empresa apple?","Carlos Slim","Steve Jobs","","1","1","1","competitive","right","0.737314939499","3688.00842118","4.2626850605","3692.42768097","2.58661293983","3695.01435304","3.41338706017","3698.47722507","3699.59190202","3699.67954111","3702.68253112","1","3702.69678307","3708.99417114",""
"sujeto_282108e8","1","4","29","125","3709.13177705","direct","4","1","2","¿Cuántos municipios hay
 en Montevideo?","8","7","","1","1","1","competitive","left","0.977749824524","3710.10957503","4.02225017548","3714.28871012","4.17787790298","3718.46665001","1.82212209702","3720.32342315","3722.23813605","3722.32504606","3725.32708907","1","3725.34246397","3727.42359114",""
"sujeto_282108e8","1","4","30","126","3727.57766008","inverse","1","1","1","¿Cuántos kilómetros hay
 de Montevideo a Artigas?","632","599","","0","0","0","competitive","left","1.58516287804","3729.16289115","3.41483712196","3732.73285913","2.9859662056","3735.7188642","3.0140337944","3738.78217602","3740.2653172","3740.35096598","3743.35393119","0","3743.36798","3749.42009711",""
"sujeto_282108e8","1","4","31","127","3749.553895","direct","2","1","2","¿En qué año nació 
Leonardo Da Vinci?","1452","1511","","1","1","0","competitive","left","0.787330150604","3750.34130311","4.2126698494","3754.72574306","2.61428284645","3757.34006119","3.38571715355","3760.76074409","3762.61413503","3762.69488215","3765.69786","1","3765.71305203","3768.8581512",""
"sujeto_282108e8","1","4","32","128","3768.99824119","inverse","3","1","1","¿A qué continente
 pertenece el país Gabón?","Africa","Oceanía","","0","0","1","individual","left","1.85907697678","3770.85738301","3.14092302322","3774.17060113","4.51375412941","3778.68439603","1.48624587059","3780.22114205","3782.03277397","3782.07145309","3785.07443213","0","3785.08966398","3790.32757497",""
