"code","nro_aplicante","nro_bloque","nro_trial_bloque","nro_trial_global","show_game_type","choice_order","rival","pay_individual","pay_competitive","question","answer_left_text","answer_right_text","correct_answer","outcome_individual","outcome_competitive","outcome_rival","game_type","answer","social_time","rt_game_type","feedback_delay","show_question","answer_time","rt_answer_global","feedback_delay_2","show_jitter","jitter_time","show_outcome","outcome_time","outcome_participant_real","show_final_jitter","second_jitter_time","inicio_descanso"
"sujeto_7e1d6f1a","1","1","1","1","612.48574996","direct","3","1","4","¿Cuántos centímetros corresponden
al talle 36 del calzado?","23","24","","0","0","1","individual","right","2.81130313873","615.297113895","2.18869686127","617.670830965","3.60832309723","621.279221773","2.39167690277","623.723816872","624.752092838","624.791550875","627.794524908","0","627.807871819","629.97039485",""
"sujeto_7e1d6f1a","1","1","2","2","630.110536814","inverse","3","1","2","¿Cuántas metros mide la Intendencia
Municipal de Montevideo? ","84","78","","0","0","1","competitive","right","1.59092998505","631.701509953","3.40907001495","635.265283823","4.48629498482","639.751621962","1.51370501518","641.314934969","643.192926884","643.265690804","646.268647909","0","646.284343004","648.377113819",""
"sujeto_7e1d6f1a","1","1","3","3","648.519410849","direct","1","1","3","¿Cuántas La Pasiva
 hay en uruguay?","15","11","","1","1","1","competitive","right","1.46436905861","649.983822823","3.53563094139","653.675636768","3.57238006592","657.248062849","2.42761993408","659.726965904","661.338642836","661.411288977","664.414264917","1","664.42904377","668.707394838",""
"sujeto_7e1d6f1a","1","1","4","4","668.846393824","inverse","3","1","3","¿De que color es la camiseta de uruguay?","blanca","celeste","right","1","1","1","competitive","right","2.79595398903","671.642392874","2.20404601097","674.003585815","3.5517950058","677.555416822","2.4482049942","680.054775953","681.259494781","681.338638783","684.341610909","1","684.356076956","687.810002804",""
"sujeto_7e1d6f1a","1","1","5","5","687.956727982","direct","2","1","1","¿Cuánto metros mide
la torre Eiffel?","333","324","","1","1","1","competitive","right","3.66201806068","691.618846893","1.33798193932","693.11115098","3.27173900604","696.382952929","2.72826099396","699.164087772","700.685481787","700.766165972","703.769157887","1","703.783289909","710.819983959",""
"sujeto_7e1d6f1a","1","1","6","6","710.951680899","inverse","3","1","4","¿Cuantas ciudades existen
 en todo el uruguay?","63","72","","0","0","1","competitive","right","2.92055511475","713.872277975","2.07944488525","716.122443914","4.57992315292","720.702427864","1.42007684708","722.15773797","723.212578773","723.291612864","726.294597864","0","726.309235811","733.935825825",""
"sujeto_7e1d6f1a","1","1","7","7","734.060373783","direct","1","1","1","¿Cuantos estados tiene África?","52","54","","1","1","0","competitive","left","2.17032003403","736.230776787","2.82967996597","739.222035885","3.56085705757","742.782953978","2.43914294243","745.271073818","747.135106802","747.220978975","750.223951817","1","750.238601923","755.999633789",""
"sujeto_7e1d6f1a","1","1","8","8","756.157151937","inverse","4","1","4","¿En qué año nació
 Stephen Hawking?","1952","1942","","0","0","1","competitive","right","2.20398402214","758.361178875","2.79601597786","761.331773996","4.50552296638","765.837334871","1.49447703362","767.38496995","768.829223871","768.902861834","771.9058249","0","771.919275999","778.018638849",""
"sujeto_7e1d6f1a","1","1","9","9","778.170952797","direct","2","1","3","¿Cuánto años tenía Artigas
 cuando se fue a Paraguay?","56","57","","1","1","1","competitive","left","2.64067697525","780.811671972","2.35932302475","783.328844786","4.71588397026","788.044793844","1.28411602974","789.380350828","790.929876804","790.997200966","794.000181913","1","794.015416861","800.062757969",""
"sujeto_7e1d6f1a","1","1","10","10","800.199918985","inverse","1","1","2","¿Cuantos milímetros 
mide una hoja A2?","420x592","420x594","","0","0","1","competitive","right","2.02017402649","802.220158815","2.97982597351","805.340531826","5.47175192833","810.812328815","0.528248071671","811.392422915","812.959903955","813.043088913","816.04608798","0","816.055062771","823.128693819",""
"sujeto_7e1d6f1a","1","1","11","11","823.256061792","direct","3","1","3","¿Cuál es la menor temperatura 
registrada en Uruguay?","-5.4","-7.4","","0","0","1","competitive","right","2.53251409531","825.788626909","2.46748590469","828.418885946","5.03084897995","833.44980979","0.96915102005","834.470199823","836.152253866","836.23761487","839.24058795","0","839.255291939","842.988605976",""
"sujeto_7e1d6f1a","1","1","12","12","843.138969898","inverse","2","1","2","¿Cuantos años hace que 
se fundó facebook?","18","17","","0","0","0","competitive","left","3.46398878098","846.60303092","1.53601121902","848.310504913","5.82561016083","854.136162996","0.174389839172","854.345603943","855.718332767","855.795550823","858.798531771","0","858.813282967","861.587954998",""
"sujeto_7e1d6f1a","1","1","13","13","861.731709003","direct","1","1","4","¿Cuál animal es más
 pesado en promedio?","Rinoceronte","Hipopotamo","","0","0","0","competitive","right","2.11054396629","863.842324972","2.88945603371","866.890275002","4.40316390991","871.293478966","1.59683609009","872.940987825","874.020241976","874.10836482","877.111332893","0","877.12655592","880.967541933",""
"sujeto_7e1d6f1a","1","1","14","14","881.160637856","inverse","1","1","2","¿Qué personaje de dragon ball 
murió más veces?","Chaoz","Krillin","","1","1","0","competitive","left","2.64072585106","883.801472902","2.35927414894","886.329911947","4.36882209778","890.698781967","1.63117790222","892.382115841","893.839936972","893.917004824","896.919985771","1","896.933964968","904.706877947",""
"sujeto_7e1d6f1a","1","1","15","15","904.852558851","direct","3","1","2","La universidad de oxford. 
existe desde:","1096","1249","","1","1","0","competitive","left","4.09957194328","908.952203989","0.900428056717","910.011750937","5.08339715004","915.095191956","0.91660284996","916.048066854","917.096860886","917.181246996","920.184220791","1","920.198897839","926.889747858",""
"sujeto_7e1d6f1a","1","1","16","16","927.052190781","inverse","3","1","1","¿Qué escritor latino ganó antes
 el premio nobel?"," García Marquez","Neruda","","0","0","1","individual","left","3.5083091259","930.560548782","1.4916908741","932.207296848","5.68732786179","937.894663811","0.312672138214","938.26035881","940.00037384","940.042717934","943.045693874","0","943.06129694","946.521826982",""
"sujeto_7e1d6f1a","1","1","17","17","946.679209948","direct","4","1","3","¿Cuántos dientes tiene un
 tiburón blanco?","6000","3000","","0","0","1","competitive","left","2.63369297981","949.312963963","2.36630702019","951.848496914","5.45938801765","957.30794096","0.540611982346","957.887582779","958.926599979","959.004416943","962.007399797","0","962.021670818","966.831352949",""
"sujeto_7e1d6f1a","1","1","18","18","966.973080873","inverse","4","1","1","¿Cuánto mide el paralelo Ecuador?","40.000km","70.000km","","0","0","1","individual","right","2.46413898468","969.437291861","2.53586101532","972.143661976","3.61463809013","975.758381844","2.38536190987","978.194060802","980.150197983","980.196031809","983.198986769","0","983.214186907","986.81673193",""
"sujeto_7e1d6f1a","1","1","19","19","986.965945959","direct","4","1","2","¿Cuál fue el primer libro 
de Stephen King?","Carrie","The Stand","","1","1","1","individual","right","2.01060605049","988.976614952","2.98939394951","992.139748812","4.26491498947","996.404733896","1.73508501053","998.191819906","999.935890913","999.975718975","1002.97868085","1","1002.99318981","1007.467628",""
"sujeto_7e1d6f1a","1","1","20","20","1007.61088181","inverse","2","1","3","¿Qué civilización practicaba
 la momificación?","Grecia","Egipto","right","0","0","1","competitive","right","1.95721292496","1009.568151","3.04278707504","1012.78438187","4.01068592072","1016.7951138","1.98931407928","1018.81792593","1020.75719595","1020.83671689","1023.83972478","1","1023.853863","1028.08265781",""
"sujeto_7e1d6f1a","1","1","21","21","1028.23916793","direct","4","1","4","¿Cuántos millones de visitas
 recibe google por minuto?","3.0","4.5","","0","0","1","competitive","right","1.65301799774","1029.89222288","3.34698200226","1033.39544296","3.41599607468","1036.81150198","2.58400392532","1039.44555092","1040.9598918","1041.04631686","1044.04930997","0","1044.0645299","1051.1872139",""
"sujeto_7e1d6f1a","1","1","22","22","1051.3312149","inverse","1","1","3","La máquina de fax. se inventó en:","1843","1960","","0","0","1","competitive","right","2.47046995163","1053.80172777","2.52953004837","1056.48785996","4.64902710915","1061.13695192","1.35097289085","1062.53959298","1063.78167987","1063.85684586","1066.85980082","0","1066.87431598","1070.11062479",""
"sujeto_7e1d6f1a","1","1","23","23","1070.25947189","direct","2","1","4","En la verdadera historia de los
 300 espartanos. habían:","300 soldados","4300 soldados","","1","1","1","competitive","left","3.08158588409","1073.34112883","1.91841411591","1075.41656184","5.91962695122","1081.33623385","0.0803730487823","1081.46900392","1082.73022985","1082.80239177","1085.80537081","1","1085.82007694","1089.62184691",""
"sujeto_7e1d6f1a","1","1","24","24","1089.77169991","inverse","1","1","4","¿Cuántos milímetros crece
 el pelo por día?","0.4","0.04","","0","0","0","competitive","left","1.57960677147","1091.35135198","3.42039322853","1094.92760777","3.10878491402","1098.03645587","2.89121508598","1100.97837877","1102.73911285","1102.81278491","1105.8157568","0","1105.83105993","1112.56616282",""
"sujeto_7e1d6f1a","1","1","25","25","1112.71632385","direct","4","1","1","¿Cuánto mide la baldosa gris 
clásica de Montevideo?","22x22 cm.","20x20 cm.","","1","1","1","individual","right","2.71145105362","1115.42784286","2.28854894638","1117.87112689","4.90569782257","1122.77689195","1.09430217743","1123.925529","1125.9207809","1125.95909381","1128.96206188","1","1128.97728992","1134.52010298",""
"sujeto_7e1d6f1a","1","1","26","26","1134.661551","inverse","2","1","2","¿Cuántas películas de rápidos
 y furiosos hay?","10","11","","1","1","0","individual","left","3.28955698013","1137.95117688","1.71044301987","1139.80153894","4.57164692879","1144.37325287","1.42835307121","1145.85268378","1147.21071196","1147.25384378","1150.25681496","1","1150.27107","1152.30581284",""
"sujeto_7e1d6f1a","1","1","27","27","1152.4565289","direct","3","1","1","¿Cuántos masters 1000
 ganó Del Potro?","1","2","","1","1","1","individual","left","2.63888597488","1155.09547591","2.36111402512","1157.61107898","5.81546211243","1163.42658091","0.184537887573","1163.64545584","1165.40008283","1165.44575","1168.44873595","1","1168.4642818","1175.86059189",""
"sujeto_7e1d6f1a","1","1","28","28","1176.00165081","inverse","2","1","4","¿Cuántos meses dura el 
embarazo de una leona?","3 meses","4 meses","","0","0","1","competitive","left","2.84012293816","1178.84182978","2.15987706184","1181.17214394","5.2817800045","1186.45398378","0.718219995499","1187.20864892","1188.31972599","1188.39266586","1191.39565897","0","1191.40999389","1198.13248181",""
"sujeto_7e1d6f1a","1","1","29","29","1198.27802181","direct","1","1","1","¿En qué año fue creado
 el sandwich?","1762","1653","","1","1","0","competitive","right","1.72404098511","1200.00212193","3.27595901489","1203.435215","3.96693897247","1207.40219784","2.03306102753","1209.4865458","1211.08511496","1211.170362","1214.17333198","1","1214.18856883","1217.65919089",""
"sujeto_7e1d6f1a","1","1","30","30","1217.8067379","inverse","4","1","2","El nombre de la moneda de Vietnam es:","Dinar","Dong","","0","0","1","competitive","left","3.4117128849","1221.21851182","1.5882871151","1222.96209788","4.77841901779","1227.740556","1.22158098221","1228.99700785","1230.42899585","1230.51434088","1233.51735997","0","1233.53181386","1239.70025492",""
"sujeto_7e1d6f1a","1","1","31","31","1239.83389783","direct","2","1","1","¿cuantos aleteos puede dar 
un colibrí por segundo?","120","50","","0","0","0","competitive","left","2.41393089294","1242.24789596","2.58606910706","1245.00644898","3.37742900848","1248.38393784","2.62257099152","1251.04196382","1252.77433991","1252.86027694","1255.86284184","0","1255.87730384","1260.08958888",""
"sujeto_7e1d6f1a","1","1","32","32","1260.24579287","inverse","4","1","3","¿Qué altura promedio tienen
 los hombres uruguayos?","1.73 m","1.72 m","","1","1","1","","","","","","","","","","","","","","","1265.26899195","1269.74494791",""
"sujeto_7e1d6f1a","1","2","1","33","1406.63983297","direct","1","1","1","¿En qué año nació 
el actor Bradd Pitt?","1967","1963","","1","1","1","competitive","left","1.60143494606","1408.24132895","3.39856505394","1411.81239486","3.37597894669","1415.18843389","2.62402105331","1417.8626368","1418.95844483","1419.03083491","1422.03381681","1","1422.04830194","1427.97291684","1269.75841284"
"sujeto_7e1d6f1a","1","2","2","34","1428.1160078","inverse","2","1","1","¿Cual es el segundo 
monte más alto?","Kanchenjunga","K2","","1","1","1","competitive","left","2.56566596031","1430.68172288","2.43433403969","1433.28969598","3.38998913765","1436.6797328","2.61001086235","1439.34162498","1440.794029","1440.87565279","1443.87863994","1","1443.89400291","1447.32391882",""
"sujeto_7e1d6f1a","1","2","3","35","1447.46181798","direct","3","1","1","¿Cuándo finalizó la construcción
 del Palacio Legislativo?","1925","1917","","0","0","1","competitive","","1.4761390686","1448.93800378","3.5238609314","1452.61554193","6","1458.61568594","0","1458.63099194","1460.27267694","1460.35253596","1463.3555119","0","1463.37096","1469.06782293",""
"sujeto_7e1d6f1a","1","2","4","36","1469.22164679","inverse","3","1","3","¿Cuántos integrantes tenía
 en su inicio  el cuarteto de nos?","3","4","","1","1","1","competitive","right","1.66163897514","1470.88333392","3.33836102486","1474.37869692","3.77368211746","1478.15245199","2.22631788254","1480.43024278","1481.56332684","1481.64812183","1484.65109897","1","1484.66482496","1490.3146348",""
"sujeto_7e1d6f1a","1","2","5","37","1490.44989991","direct","2","1","3","¿Qué valor tiene el número pi?","3.14","4.18","left","0","0","1","competitive","left","1.72560477257","1492.17555499","3.27439522743","1495.60750699","2.07206606865","1497.6796298","3.92793393135","1501.65662193","1503.1098299","1503.19260788","1506.19555593","1","1506.20981979","1513.130795",""
"sujeto_7e1d6f1a","1","2","6","38","1513.27746677","inverse","2","1","2","¿Cuál es la esperanza de vida
 en Uruguay?","75","77","","1","1","0","competitive","right","1.12343716621","1514.40095687","3.87656283379","1518.43514895","3.83077096939","1522.26596498","2.16922903061","1524.48654199","1526.14036179","1526.22062898","1529.22286201","1","1529.23809099","1535.70109797",""
"sujeto_7e1d6f1a","1","2","7","39","1535.84022498","direct","1","1","2","¿Cuantos pisos tiene la torre 
de las comunicaciones?","26","32","","1","1","0","competitive","right","2.40339398384","1538.24368787","2.59660601616","1540.99779081","3.90345001221","1544.90128088","2.09654998779","1547.04797697","1548.87681484","1548.96608996","1551.96827483","1","1551.983953","1554.13017178",""
"sujeto_7e1d6f1a","1","2","8","40","1554.26815581","inverse","2","1","4","¿En qué país sudamericano 
no hay McDonalds?","Bolivia","Venezuela","","0","0","1","competitive","left","2.00032901764","1556.26856089","2.99967098236","1559.43869877","3.48381209373","1562.92255282","2.51618790627","1565.49089885","1566.800282","1566.87602091","1569.87901187","0","1569.8931489","1576.2528708",""
"sujeto_7e1d6f1a","1","2","9","41","1576.39510393","direct","3","1","1","¿En qué año empieza
 la Edad Media?","476","512","","1","1","1","competitive","left","2.00173711777","1578.39688778","2.99826288223","1581.550807","3.93804597855","1585.48891497","2.06195402145","1587.60382199","1589.00759792","1589.08800292","1592.09098291","1","1592.105371","1595.09390187",""
"sujeto_7e1d6f1a","1","2","10","42","1595.22298789","inverse","3","1","4","¿Hace cuántos años surgió
 el ser humano?","200mil","300mil","","0","0","0","competitive","left","1.96912479401","1597.192168","3.03087520599","1600.41172385","3.96735692024","1604.37913895","2.03264307976","1606.46322179","1608.34926677","1608.43119788","1611.43416595","0","1611.44833684","1614.7588129",""
"sujeto_7e1d6f1a","1","2","11","43","1614.90035582","direct","3","1","4","¿Cuántas cuadras tiene
 actualmente 18 de julio? ","36","33","","0","0","1","competitive","right","2.24495100975","1617.14535284","2.75504899025","1620.07172084","3.84570193291","1623.91748786","2.15429806709","1626.10725188","1627.80952096","1627.89142895","1630.89439487","0","1630.90899587","1635.63529491",""
"sujeto_7e1d6f1a","1","2","12","44","1635.77796078","inverse","1","1","4","¿Qué juego de equipo se 
considera mas rápido?","Lacrosse","Badminton","","0","0","0","competitive","right","2.34270191193","1638.12073588","2.65729808807","1640.93349981","3.99616003036","1644.92972088","2.00383996964","1646.96823287","1648.211339","1648.28530288","1651.28828979","0","1651.30302095","1659.298141",""
"sujeto_7e1d6f1a","1","2","13","45","1659.43879986","direct","1","1","3","¿Qué promedio de edad 
vive una jirafa? ","25","20","","0","0","1","competitive","left","1.79918003082","1661.23804593","3.20081996918","1664.61208677","4.06195807457","1668.67410779","1.93804192543","1670.64753985","1672.40904093","1672.48141479","1675.48441291","0","1675.49977398","1681.45549989",""
"sujeto_7e1d6f1a","1","2","14","46","1681.60041785","inverse","1","1","2","¿Cuántos grandes lagos hay?","7","5","","0","0","1","competitive","right","3.15779805183","1684.75828886","1.84220194817","1686.75602984","4.40628504753","1691.16237593","1.59371495247","1692.80976391","1694.101928","1694.17702484","1697.17999792","0","1697.19434381","1705.01573396",""
"sujeto_7e1d6f1a","1","2","15","47","1705.16221285","direct","3","1","2","¿Cuántos discos de estudio
 grabó Johhny Cash? ","54","43","","1","1","0","individual","right","3.67738485336","1708.839643","1.32261514664","1710.31890678","3.81868290901","1714.13764691","2.18131709099","1716.37154388","1717.65018892","1717.68868494","1720.69160295","1","1720.70608687","1727.35698891",""
"sujeto_7e1d6f1a","1","2","16","48","1727.52550793","inverse","4","1","1","¿Cuántos barrios tiene
 Montevideo? ","71","62","","0","0","1","individual","right","2.90566420555","1730.43123889","2.09433579445","1732.69553781","2.98640799522","1735.68200898","3.01359200478","1738.73312283","1739.7401998","1739.78470683","1742.7876718","0","1742.80121088","1748.2632339",""
"sujeto_7e1d6f1a","1","2","17","49","1748.4188869","direct","3","1","3","¿Qué edad tiene Homero Simpson?","36","42","","0","0","1","competitive","left","2.84910178185","1751.26807785","2.15089821815","1753.58931994","4.6509540081","1758.24033499","1.3490459919","1759.62766194","1761.00371385","1761.09591079","1764.09891987","0","1764.10694695","1768.49570298",""
"sujeto_7e1d6f1a","1","2","18","50","1768.64138079","inverse","4","1","2","¿Cuántos países con monarquía 
hay en europa actualmente? ","6","10","","1","1","1","individual","left","2.50408291817","1771.14551377","2.49591708183","1773.81968999","3.2247979641","1777.0445478","2.7752020359","1779.87104392","1781.30935478","1781.35603595","1784.35902381","1","1784.37332797","1790.53014994",""
"sujeto_7e1d6f1a","1","2","19","51","1790.67532587","direct","2","1","3","¿Cuántos capítulos de
 Friends existen? ","236","228","","1","1","1","competitive","left","1.66637301445","1792.34174585","3.33362698555","1795.8299458","3.04185700417","1798.87184882","2.95814299583","1801.88031387","1803.18589497","1803.26483488","1806.26778388","1","1806.28236985","1808.65799594",""
"sujeto_7e1d6f1a","1","2","20","52","1808.798733","inverse","1","1","3","¿Cuántas óperas compuso Mozart? ","27","22","","1","1","1","competitive","right","1.67922401428","1810.47800088","3.32077598572","1813.95758986","3.50041604042","1817.45804977","2.49958395958","1820.00947785","1821.30161786","1821.3773458","1824.38030195","1","1824.39177179","1831.70321989",""
"sujeto_7e1d6f1a","1","2","21","53","1831.84172678","direct","4","1","3","¿Cuántos mundiales de fútbol 
femenino ha realizado FIFA? ","9","7","","1","1","1","competitive","left","1.5986058712","1833.44039798","3.4013941288","1837.00415492","4.58519005775","1841.58939981","1.41480994225","1843.055583","1844.29924393","1844.37291789","1847.37590194","1","1847.39037395","1853.49285197",""
"sujeto_7e1d6f1a","1","2","22","54","1853.62490797","inverse","3","1","2","¿Cuál es la temperatura 
media anual en Montevideo? ","17.5","16.3","","0","0","1","competitive","right","1.51266717911","1855.1376369","3.48733282089","1858.78187394","2.62777400017","1861.40968895","3.37222599983","1864.81523299","1866.75379586","1866.83378696","1869.83677578","0","1869.85204077","1876.42087483",""
"sujeto_7e1d6f1a","1","2","23","55","1876.57008481","direct","2","1","2","¿En qué año se estrenó el
 videojuego The Sims? ","2000","2002","","0","0","0","competitive","left","2.04080891609","1878.61096787","2.95919108391","1881.72558093","3.37946009636","1885.105088","2.62053990364","1887.77600098","1889.63800788","1889.71036983","1892.71334696","0","1892.72861695","1900.12227178",""
"sujeto_7e1d6f1a","1","2","24","56","1900.26314092","inverse","2","1","1","¿Cuál es la canción con 
mas covers? ","Yesterday","Stand by me","","0","0","0","competitive","left","2.0840921402","1902.34728193","2.9159078598","1905.43884397","2.83446192741","1908.27337193","3.16553807259","1911.49034882","1912.888906","1912.9749279","1915.97791195","0","1915.99253583","1920.16334295",""
"sujeto_7e1d6f1a","1","2","25","57","1920.32726383","direct","1","1","4","¿Cuánto duró la guerra
 de los 100 años?","116","123","","0","0","0","competitive","right","2.27318406105","1922.600492","2.72681593895","1925.48339486","4.33818292618","1929.82163787","1.66181707382","1931.53541088","1933.01626277","1933.10315299","1936.10614491","0","1936.11991191","1938.43965983",""
"sujeto_7e1d6f1a","1","2","26","58","1938.58869481","inverse","4","1","4","¿Qué color tiene la  bandera de Brasil?","Amarillo","Naranja","left","0","0","1","individual","left","1.95210695267","1940.54088378","3.04789304733","1943.77684093","3.15293312073","1946.929842","2.84706687927","1949.82729197","1951.3938098","1951.44526982","1954.44823885","1","1954.46358085","1957.49637985",""
"sujeto_7e1d6f1a","1","2","27","59","1957.64822078","direct","4","1","3","¿Qué carabela de 
Colon no volvió del viaje?","Santa María","La pinta","","0","0","1","competitive","right","1.65971302986","1959.30798197","3.34028697014","1962.81882882","5.0012280941","1967.82012582","0.998771905899","1968.87083387","1970.36189699","1970.43888092","1973.44187784","0","1973.4552238","1975.55469489",""
"sujeto_7e1d6f1a","1","2","28","60","1975.69113588","inverse","4","1","4","¿Cuántos huesos tiene
 un adulto humano?","217","206","","0","0","1","competitive","right","2.18712186813","1977.87832093","2.81287813187","1980.84679198","2.61247515678","1983.45931077","3.38752484322","1986.88026094","1988.15127683","1988.232409","1991.23485684","0","1991.24947","1999.08717799",""
"sujeto_7e1d6f1a","1","2","29","61","1999.23377395","direct","1","1","1","¿Qué país africano fue 
fundado por esclavos?","Liberia","Chad","","0","0","0","competitive","left","1.32278323174","2000.55661178","3.67721676826","2004.37503791","3.50956082344","2007.88466382","2.49043917656","2010.40936995","2012.40103292","2012.47736287","2015.48034","0","2015.4945178","2023.48537087",""
"sujeto_7e1d6f1a","1","2","30","62","2023.64544177","inverse","4","1","2","¿A cuánto asciende la cima
 del monte Everest?","7.990 mts","8.848 mts","","0","0","1","individual","right","3.02944111824","2026.67494988","1.97055888176","2028.81871486","4.41832184792","2033.23709798","1.58167815208","2034.87295294","2036.0577898","2036.1072228","2039.11020184","0","2039.12446094","2046.30849981",""
"sujeto_7e1d6f1a","1","2","31","63","2046.45912099","direct","4","1","1","¿Cuál es el país mas chico?","Sealand","Luxemburgo","","1","1","1","competitive","right","2.40104699135","2048.8602128","2.59895300865","2051.616817","3.09036397934","2054.70722198","2.90963602066","2057.6669848","2059.53051281","2059.61881995","2062.62180495","1","2062.63636088","2065.75864697",""
"sujeto_7e1d6f1a","1","2","32","64","2065.9037869","inverse","2","1","4","¿Cuántas pirámides hay en Egipto?","10000","11000","","1","1","1","competitive","left","1.19161200523","2067.09546185","3.80838799477","2071.07718277","2.89631891251","2073.97355986","3.10368108749","2077.11043191","2078.14390779","2078.22900796","2081.23199177","1","2081.24650192","2086.355551",""
"sujeto_7e1d6f1a","1","3","1","65","2208.27788377","direct","2","1","2","¿Cuál es el quinto país con 
mas extensión?","Canadá","Brasil","","1","1","0","competitive","right","2.79058909416","2211.0685358","2.20941090584","2213.46601677","4.37232303619","2217.83838201","1.62767696381","2219.52042079","2220.8537159","2220.93872881","2223.94095588","1","2223.95557189","2231.68195581","2086.37168097"
"sujeto_7e1d6f1a","1","3","2","66","2231.83976579","inverse","1","1","2","¿Qué rasgo facial no tiene
 la Mona Lisa?","Cejas","Pómulos","","0","0","1","competitive","left","2.30479693413","2234.14461493","2.69520306587","2237.01383591","3.8867688179","2240.90064478","2.1132311821","2243.06628299","2244.81668377","2244.90001798","2247.90300584","0","2247.916574","2254.18791294",""
"sujeto_7e1d6f1a","1","3","3","67","2254.338094","direct","4","1","3","¿Cuál es el país con 
mayor población?","Esados Unidos","China","right","0","0","1","competitive","right","3.40180706978","2257.73996186","1.59819293022","2259.51027489","2.6866979599","2262.1970408","3.3133020401","2265.56052279","2267.20653582","2267.29563999","2270.29863095","1","2270.3130188","2273.68035483",""
"sujeto_7e1d6f1a","1","3","4","68","2273.83170199","inverse","1","1","1","La palabra dinosaurio significa","Lagarto Terrible","Lagarto Dragón","","1","1","0","competitive","right","1.65244412422","2275.48421383","3.34755587578","2279.00372601","4.66242408752","2283.66618896","1.33757591248","2285.05574179","2286.22606993","2286.3054378","2289.30843878","1","2289.32301784","2292.18485498",""
"sujeto_7e1d6f1a","1","3","5","69","2292.34167385","direct","2","1","3","¿Qué es el membrillero?","Arbol","Arbusto","","0","0","0","competitive","left","2.76871490479","2295.11043191","2.23128509521","2297.49629784","4.09915590286","2301.59551477","1.90084409714","2303.53179789","2305.48593187","2305.56493497","2308.5678978","0","2308.58259797","2315.04662395",""
"sujeto_7e1d6f1a","1","3","6","70","2315.18355584","inverse","3","1","3","¿Alrededor de qué planeta orbita 
el satélite Europa?","Jupiter","Saturno","","1","1","1","competitive","","2.26515388489","2317.44879889","2.73484611511","2320.35797477","6","2326.35809779","0","2326.37649393","2327.92131877","2328.01116896","2331.01385093","0","2331.02834177","2333.23352981",""
"sujeto_7e1d6f1a","1","3","7","71","2333.37985682","direct","3","1","1","¿Donde fue el mundial de 
fútbol de 1954?","Suiza","Suecia","","1","1","1","individual","left","2.54856300354","2335.92849088","2.45143699646","2338.53342199","2.95459198952","2341.48807383","3.04540801048","2344.5859499","2345.83858085","2345.8871789","2348.89014482","1","2348.90454292","2352.816329",""
"sujeto_7e1d6f1a","1","3","8","72","2352.95616293","inverse","1","1","4","¿Cuál de los 7 enanitos
no tenía barba?","Bashful","Mudito","","1","1","0","competitive","right","1.55397820473","2354.51018381","3.44602179527","2358.11222696","5.41504907608","2363.52733493","0.58495092392","2364.16283894","2365.7429738","2365.82933497","2368.832304","1","2368.84579492","2373.77489877",""
"sujeto_7e1d6f1a","1","3","9","73","2373.92578197","direct","3","1","2","¿Cual red social es
mas utilizada mundialmente?","Instagram","Facebook","","1","1","0","individual","right","3.73061013222","2377.6564548","1.26938986778","2379.08963394","3.17587399483","2382.26557779","2.82412600517","2385.14069486","2387.05808783","2387.10842586","2390.11138797","1","2390.12484789","2393.05936289",""
"sujeto_7e1d6f1a","1","3","10","74","2393.20965481","inverse","4","1","1","¿Cuándo se inició la copa
 América de fútbol?","1916","1923","","1","1","1","individual","left","2.40444207191","2395.61416793","2.59555792809","2398.39918494","5.00947499275","2403.40871978","0.990525007248","2404.43509984","2406.33252978","2406.38565993","2409.38856077","1","2409.40345192","2412.059515",""
"sujeto_7e1d6f1a","1","3","11","75","2412.20456481","direct","3","1","4","¿Cuántos presidentes de EEUU
han muerto asesinados?","3","4","","0","0","1","competitive","right","1.85813689232","2414.06278896","3.14186310768","2417.37537479","4.22026491165","2421.59570193","1.77973508835","2423.42614293","2424.90987396","2424.99243188","2427.99542594","0","2428.01033497","2431.65444183",""
"sujeto_7e1d6f1a","1","3","12","76","2431.81142592","inverse","2","1","4","¿Cuántas veces participó EEUU
 en la copa América?","4","5","","0","0","1","competitive","left","1.47013187408","2433.2815969","3.52986812592","2436.9695158","3.74103093147","2440.71058488","2.25896906853","2443.02025199","2444.46438289","2444.5375948","2447.54055691","0","2447.5551548","2453.67236781",""
"sujeto_7e1d6f1a","1","3","13","77","2453.8219409","direct","4","1","1","¿Cuál de estos países 
no formaba la URSS?","Azeribayán","Afganistán","","0","0","1","individual","right","2.59270381927","2456.41468692","2.40729618073","2458.99725795","4.10235118866","2463.09966898","1.89764881134","2465.04923177","2466.36178899","2466.40023899","2469.40286589","0","2469.41729784","2477.39940977",""
"sujeto_7e1d6f1a","1","3","14","78","2477.53528285","inverse","1","1","1","¿En qué año se inauguró
 el teatro Solís?","1867","1856","","0","0","0","competitive","left","1.39726305008","2478.93259287","3.60273694992","2482.69332099","3.46715307236","2486.16054082","2.53284692764","2488.74373293","2489.80007291","2489.87849092","2492.881459","0","2492.89574194","2499.54355884",""
"sujeto_7e1d6f1a","1","3","15","79","2499.68142486","direct","1","1","4","¿A qué velocidad vuela 
el avión más rápido?","3529","3874","","0","0","0","competitive","right","1.71804785728","2501.39953995","3.28195214272","2504.85425186","3.60718297958","2508.4614749","2.39281702042","2510.906178","2512.66170192","2512.73994589","2515.74293184","0","2515.75816679","2517.86843395",""
"sujeto_7e1d6f1a","1","3","16","80","2518.00972795","inverse","3","1","4","¿De qué año es la primer 
película cinematográfica?","1897","1888","","0","0","0","competitive","right","2.48373007774","2520.49352384","2.51626992226","2523.17985988","4.81767392159","2527.997576","1.18232607841","2529.23263288","2530.36561799","2530.44913292","2533.45213079","0","2533.46678185","2538.87591696",""
"sujeto_7e1d6f1a","1","3","17","81","2539.01809192","direct","2","1","3","¿Cuántos países 
tiene nuestro planeta?","191","194","","1","1","1","competitive","right","1.72036504745","2540.73852181","3.27963495255","2544.158216","4.05021619797","2548.20847082","1.94978380203","2550.20927477","2551.56645989","2551.64372087","2554.64589691","1","2554.6612258","2557.89953899",""
"sujeto_7e1d6f1a","1","3","18","82","2558.04555392","inverse","2","1","2","¿Cuántos habitantes
 tiene Buenos Aires?","2.9000.000","3650000","","0","0","0","competitive","left","2.30895495415","2560.35457182","2.69104504585","2563.21512079","2.88631296158","2566.1014998","3.11368703842","2569.2680378","2570.66530085","2570.75311899","2573.75610781","0","2573.77057195","2579.59997392",""
"sujeto_7e1d6f1a","1","3","19","83","2579.73764181","direct","2","1","1","¿Cuántos kilos forman una tonelada?","1000","1500","left","1","1","1","competitive","left","2.25693392754","2581.99464798","2.74306607246","2584.91375184","2.20882487297","2587.12263799","3.79117512703","2590.96199989","2592.84933186","2592.93132186","2595.93430686","1","2595.94800687","2601.90541792",""
"sujeto_7e1d6f1a","1","3","20","84","2602.04955697","inverse","4","1","4","¿Cuántos estados tiene la 
República del Perú? ","24","23","","0","0","1","competitive","right","1.46896696091","2603.51859188","3.53103303909","2607.22444892","3.10314702988","2610.32765889","2.89685297012","2613.27419281","2614.29635978","2614.37603498","2617.3790319","0","2617.39238","2622.33769178",""
"sujeto_7e1d6f1a","1","3","21","85","2622.47785282","direct","3","1","3","¿En qué año nació Cristóbal Colón? ","1451","1447","","0","0","1","competitive","right","3.86973595619","2626.34763098","1.13026404381","2627.63384795","3.14966201782","2630.78356481","2.85033798218","2633.66865683","2635.51454997","2635.58653879","2638.589463","0","2638.60463285","2642.83261681",""
"sujeto_7e1d6f1a","1","3","22","86","2642.98896194","inverse","4","1","4","¿Cuánto mide la 
Montaña Aconcagua? ","6234","6962","","0","0","1","individual","right","2.71463108063","2645.70363593","2.28536891937","2648.16087198","4.24173402786","2652.40264392","1.75826597214","2654.21297097","2655.5023489","2655.54743791","2658.55043197","0","2658.56484485","2665.74845195",""
"sujeto_7e1d6f1a","1","3","23","87","2665.90094185","direct","2","1","4","¿Cuánto mide el punto
 más profundo del océano? ","12508","11003","","0","0","1","competitive","right","2.76568698883","2668.66666985","2.23431301117","2671.07271981","4.20692110062","2675.27968287","1.79307889938","2677.12235188","2678.37388277","2678.45593095","2681.45889091","0","2681.47355485","2685.67982197",""
"sujeto_7e1d6f1a","1","3","24","88","2685.82517481","inverse","1","1","3","¿Cuántos álbumes ha publicado 
el cantante Jaime Roos? ","41","34","","0","0","1","competitive","right","2.76549887657","2688.59072685","2.23450112343","2690.99952984","3.92316198349","2694.92276478","2.07683801651","2697.05182481","2698.54166698","2698.61980796","2701.62279487","0","2701.63621283","2707.83237982",""
"sujeto_7e1d6f1a","1","3","25","89","2707.97198796","direct","4","1","3","¿En qué año nació el 
ex-presidente Jorge Battle? ","1921","1927","","1","1","1","individual","right","1.80181598663","2709.77387881","3.19818401337","2713.14332294","3.96546506882","2717.10886097","2.03453493118","2719.19672585","2720.92745781","2720.98133278","2723.98286581","1","2723.99840879","2727.48446488",""
"sujeto_7e1d6f1a","1","3","26","90","2727.61561394","inverse","1","1","3","¿Cuántas presidencias 
constitucionales  hubo en Uruguay? ","41","42","","0","0","1","competitive","right","1.6631731987","2729.2788589","3.3368268013","2732.77081084","4.25106406212","2737.02194595","1.74893593788","2738.82325697","2740.02703285","2740.10770798","2743.10890484","0","2743.12457395","2748.90822697",""
"sujeto_7e1d6f1a","1","3","27","91","2749.04342198","direct","1","1","2","¿Quién escribió mas sinfonías?","Mozart","Haydn","","1","1","0","competitive","left","3.89245200157","2752.93594599","1.10754799843","2754.20022798","2.24767994881","2756.44797277","3.75232005119","2760.23258185","2761.45005798","2761.53457689","2764.53755283","1","2764.55210686","2768.30282593",""
"sujeto_7e1d6f1a","1","3","28","92","2768.45342278","inverse","4","1","2","¿En qué año nació Michael Jackson?","1958","1953","","1","1","1","individual","left","1.81658291817","2770.27007985","3.18341708183","2773.62449384","2.2734348774","2775.8979919","3.7265651226","2779.67682195","2781.65506482","2781.69521499","2784.69819689","1","2784.71050382","2790.57019877",""
"sujeto_7e1d6f1a","1","3","29","93","2790.7121079","direct","3","1","2","¿En qué año entró en vigencia 
la ley antitabaco en Uruguay?","2005","2006","","1","1","1","competitive","left","1.91197991371","2792.62415791","3.08802008629","2795.88814187","5.88389897346","2801.77210784","0.116101026535","2801.9406898","2803.53544593","2803.60738087","2806.61036491","1","2806.62462592","2811.95794392",""
"sujeto_7e1d6f1a","1","3","30","94","2812.09283781","inverse","3","1","1","¿Cuándo se subió el 
primer video a youtube?","2004","2005","","0","0","1","competitive","right","3.41727399826","2815.51017785","1.58272600174","2817.24941278","2.78873085976","2820.03821087","3.21126914024","2823.29970098","2824.6053288","2824.68441486","2827.68736577","0","2827.70160985","2835.45717478",""
"sujeto_7e1d6f1a","1","3","31","95","2835.60337996","direct","2","1","1","¿Cuántos habitantes tiene India?","1200 millones","1300 millones","","0","0","0","competitive","left","2.45184707642","2838.05529094","2.54815292358","2840.77501297","4.0612859726","2844.83635879","1.9387140274","2846.8090508","2848.77786398","2848.85970187","2851.86267281","0","2851.87740993","2857.92490983",""
"sujeto_7e1d6f1a","1","3","32","96","2858.08111787","inverse","4","1","2","¿A qué edad murió Bob Marley?","36","37","","0","0","1","individual","right","2.10522985458","2860.18639183","2.89477014542","2863.23930788","4.07209706306","2867.31146598","1.92790293694","2869.290874","2871.18874288","2871.24172282","2874.24471092","0","2874.25925493","2877.3617208",""
"sujeto_7e1d6f1a","1","4","1","97","3010.78211689","direct","2","1","1","¿Cuantos años dirigió la selección 
uruguaya Tabarez?","15 años","13 años","","0","0","0","competitive","left","2.44712281227","3013.22930098","2.55287718773","3015.95261192","3.63467001915","3019.58734298","2.36532998085","3022.00234199","3023.19357491","3023.27041078","3026.27339196","0","3026.28666186","3033.3586998","2877.37648797"
"sujeto_7e1d6f1a","1","4","2","98","3033.5043869","inverse","4","1","1","¿Cuantas teclas tiene un teclado 
de computadora generalmente? ","Entre 99 y 108","Entre 109 y 113","","1","1","1","individual","right","1.71900200844","3035.22343493","3.28099799156","3038.68046188","5.74196410179","3044.42246485","0.258035898209","3044.7168498","3045.71888995","3045.76656199","3048.76953983","1","3048.78418183","3051.15388584",""
"sujeto_7e1d6f1a","1","4","3","99","3051.30212784","direct","1","1","1","¿Cuál Departamento tiene
 mayor superficie?","Río Negro","Soriano","","0","0","0","individual","left","1.00744104385","3052.3096149","3.99255895615","3056.45626688","3.25224399567","3059.70855093","2.74775600433","3062.50770688","3064.22119689","3064.25936198","3067.262357","0","3067.27593899","3071.60200787",""
"sujeto_7e1d6f1a","1","4","4","100","3071.7442019","inverse","3","1","2","¿Cuál es el apellido de las 
hermanastras  de  cenicienta?","Tremaine","Truman","","0","0","1","competitive","right","2.45949697495","3074.20377994","2.54050302505","3076.90107894","5.15860104561","3082.05974579","0.841398954391","3082.93593478","3084.80545878","3084.88674188","3087.88971877","0","3087.90397787","3090.59994483",""
"sujeto_7e1d6f1a","1","4","5","101","3090.73902798","direct","4","1","4","¿Cuál película ganó un
 Oscar a mejor película?","Alto Impacto","Cache","","0","0","1","competitive","left","1.35074901581","3092.08982682","3.64925098419","3095.90966797","4.19319295883","3100.10292077","1.80680704117","3101.96048784","3103.0798769","3103.16164589","3106.1646359","0","3106.17819691","3108.44280696",""
"sujeto_7e1d6f1a","1","4","6","102","3108.58015394","inverse","1","1","3","¿A cuántos centímetros
equivale la medida pié?","25","30","","0","0","1","competitive","left","2.27971410751","3110.85992885","2.72028589249","3113.75065398","2.90729093552","3116.65800595","3.09270906448","3119.803931","3120.84391284","3120.92240095","3123.92539477","0","3123.93992591","3129.34086299",""
"sujeto_7e1d6f1a","1","4","7","103","3129.47418094","direct","2","1","2","¿Qué departamento es mas grande?","Cerro Largo","Paysandú","","0","0","0","competitive","right","2.99489021301","3132.46913981","2.00510978699","3134.64702296","4.53109717369","3139.1781888","1.46890282631","3140.68310499","3142.281883","3142.36684489","3145.36984396","0","3145.38408494","3149.49404383",""
"sujeto_7e1d6f1a","1","4","8","104","3149.65114284","inverse","2","1","3","¿Quién pintó la Mona Lisa?","Picasso","Da Vinci","right","0","0","1","competitive","right","1.59005999565","3151.24124384","3.40994000435","3154.80614281","3.70703601837","3158.51323581","2.29296398163","3160.85798478","3162.4638679","3162.54153085","3165.54450393","1","3165.55906296","3167.72137189",""
"sujeto_7e1d6f1a","1","4","9","105","3167.86176586","direct","4","1","3","¿Cuántos litros hay en un galon?","3.54","3.78","","1","1","1","competitive","right","1.54255580902","3169.404356","3.45744419098","3173.0174768","4.16394209862","3177.18148088","1.83605790138","3179.05193496","3180.56884694","3180.65287781","3183.65582895","1","3183.67047095","3189.46282697",""
"sujeto_7e1d6f1a","1","4","10","106","3189.62181997","inverse","4","1","1","¿Cuántas teclas tiene
 un piano moderno?","80","88","","0","0","1","individual","right","1.39768600464","3191.01956987","3.60231399536","3194.79577279","2.82983708382","3197.62564898","3.17016291618","3200.82941079","3201.83788586","3201.8806529","3204.88362479","0","3204.89831495","3211.69608188",""
"sujeto_7e1d6f1a","1","4","11","107","3211.84972882","direct","4","1","3","¿Cuántos países hay en África?","54","62","","0","0","1","competitive","left","1.56989908218","3213.41967177","3.43010091782","3217.007164","3.27355504036","3220.28079486","2.72644495964","3223.05819297","3224.74872899","3224.82539296","3227.82837582","0","3227.84370184","3235.64788699",""
"sujeto_7e1d6f1a","1","4","12","108","3235.77778888","inverse","1","1","3","¿En qué siglo se crearon
 las primeras pistolas?","XV","XIII","","1","1","1","competitive","right","1.25712394714","3237.03495884","3.74287605286","3240.95163894","5.01734113693","3245.96904182","0.982658863068","3247.00352597","3248.95144391","3249.03673482","3252.03973985","1","3252.05436087","3255.28746891",""
"sujeto_7e1d6f1a","1","4","13","109","3255.43962789","direct","3","1","4","¿En qué año se estrenó 
la serie friends?","1994","1995","","0","0","1","competitive","left","1.61638188362","3257.05607486","3.38361811638","3260.61414289","4.56293797493","3265.17714286","1.43706202507","3266.64808583","3268.523422","3268.5988028","3271.60178685","0","3271.61637187","3276.62244177",""
"sujeto_7e1d6f1a","1","4","14","110","3276.78441477","inverse","3","1","4","¿En qué año nació Hitler?","1889","1887","","0","0","1","competitive","right","1.45473909378","3278.23919177","3.54526090622","3281.94090891","2.22540211678","3284.16637278","3.77459788322","3287.99106383","3289.10544395","3289.17621493","3292.1791718","0","3292.19334388","3297.22021389",""
"sujeto_7e1d6f1a","1","4","15","111","3297.37863898","direct","1","1","4","¿Cuánto pesa un elefante Africano?","6000 kilos","5400 kilos","","0","0","0","competitive","left","1.19070506096","3298.5694108","3.80929493904","3302.53608179","4.26529693604","3306.80141878","1.73470306396","3308.58704591","3309.94297695","3310.0286839","3313.03162384","0","3313.03824282","3319.74532294",""
"sujeto_7e1d6f1a","1","4","16","112","3319.88909388","inverse","1","1","2","¿Qué porcentaje de 
la población es zurda?","10%","7%","","1","1","0","individual","right","4.77447390556","3324.66364098","0.225526094437","3325.04467177","1.92195296288","3326.96668887","4.07804703712","3331.09606981","3332.33915591","3332.380723","3335.38290286","1","3335.39953685","3341.37928081",""
"sujeto_7e1d6f1a","1","4","17","113","3341.516675","direct","1","1","2","¿En qué año se estrenó
Volver al futuro?","1984","1985","","0","0","1","competitive","right","2.43217015266","3343.94891191","2.56782984734","3346.68950081","3.49234199524","3350.18188381","2.50765800476","3352.74297786","3354.30478883","3354.39447284","3357.3974638","0","3357.41196299","3364.50342083",""
"sujeto_7e1d6f1a","1","4","18","114","3364.64618087","inverse","3","1","2","¿Cuántos jugadores hay en un 
equipo de baseball?","9","8","","1","1","0","individual","right","1.70080804825","3366.34705186","3.29919195175","3369.80323291","3.85177397728","3373.65506792","2.14822602272","3375.85558081","3377.4698379","3377.5224669","3380.52542877","1","3380.54007697","3385.51729178",""
"sujeto_7e1d6f1a","1","4","19","115","3385.65741587","direct","2","1","1","¿Cuántos Oscar ganó
 la película titanic?","13","11","","1","1","1","competitive","left","1.65872883797","3387.31620884","3.34127116203","3390.81513286","2.64696598053","3393.4621408","3.35303401947","3396.84844279","3398.15046692","3398.23333097","3401.23626184","1","3401.25050783","3405.85311699",""
"sujeto_7e1d6f1a","1","4","20","116","3406.00285697","inverse","4","1","4","¿En qué año comenzó
la segunda guerra mundial?","1939","1976","left","0","0","1","competitive","left","1.46148395538","3407.46438885","3.53851604462","3411.15382791","2.86651182175","3414.02040577","3.13348817825","3417.20534396","3419.00519586","3419.09102297","3422.09401393","1","3422.10859084","3426.09573889",""
"sujeto_7e1d6f1a","1","4","21","117","3426.22709394","direct","2","1","4","¿Cuántos biomas hay en Uruguay?","5","4","","0","0","1","competitive","left","1.16943311691","3427.39659595","3.83056688309","3431.38535285","4.11723780632","3435.5026319","1.88276219368","3437.43737197","3439.23385978","3439.32097292","3442.32389092","0","3442.33865499","3448.58807182",""
"sujeto_7e1d6f1a","1","4","22","118","3448.723104","inverse","2","1","3","¿Cuándo murió Pablo Escobar?","1993","1997","","1","1","1","competitive","right","3.29459404945","3452.01778293","1.70540595055","3453.88069582","2.68803191185","3456.56878686","3.31196808815","3459.93185282","3461.71469879","3461.80048895","3464.80348086","1","3464.8181808","3470.52182579",""
"sujeto_7e1d6f1a","1","4","23","119","3470.66908884","direct","1","1","4","¿Qué serie ha ganado mas premios?","Friends","Murphy Brown","","1","1","0","competitive","left","1.24576687813","3471.91492581","3.75423312187","3475.82609677","3.69681406021","3479.52295494","2.30318593979","3481.87711787","3483.2294929","3483.3113699","3486.31435299","1","3486.32911086","3491.89073586",""
"sujeto_7e1d6f1a","1","4","24","120","3492.03018999","inverse","4","1","2","¿Cuántas fichas tiene el dominó?","26","28","","1","1","1","individual","left","2.53185510635","3494.56208897","2.46814489365","3497.20474386","2.90136885643","3500.10618091","3.09863114357","3503.25311589","3504.30841088","3504.35317683","3507.35609198","1","3507.37042379","3512.61352897",""
"sujeto_7e1d6f1a","1","4","25","121","3512.75530982","direct","2","1","4","¿Cuántos son los dientes de leche?","20","25","","0","0","1","competitive","right","1.06090784073","3513.81626391","3.93909215927","3517.9144268","3.41089296341","3521.32537985","2.58910703659","3523.94878078","3525.65916991","3525.73311687","3528.73610783","0","3528.75088882","3530.89660192",""
"sujeto_7e1d6f1a","1","4","26","122","3531.0525279","inverse","3","1","3","¿Cuántos gramos son una onza?","22","28","","0","0","1","competitive","right","2.25084590912","3533.3034339","2.74915409088","3536.20798993","5.0505490303","3541.25858092","0.949450969696","3542.25942588","3544.25391889","3544.34302998","3547.34601998","0","3547.36139798","3553.65165186",""
"sujeto_7e1d6f1a","1","4","27","123","3553.79542089","direct","3","1","1","¿Cuándo salió el primer album
 de los Beatles?","1963","1962","","1","1","1","individual","right","1.88958692551","3555.68506193","3.11041307449","3558.97024894","4.13742780685","3563.10772085","1.86257219315","3565.02036881","3566.18400192","3566.22080779","3569.22381377","1","3569.23812699","3573.01016498",""
"sujeto_7e1d6f1a","1","4","28","124","3573.1566","inverse","3","1","3","¿Quién fundó la empresa apple?","Carlos Slim","Steve Jobs","","1","1","1","competitive","right","2.27526807785","3575.43194485","2.72473192215","3578.31100583","3.0558719635","3581.36693597","2.9441280365","3584.36114383","3585.47579789","3585.56202984","3588.564996","1","3588.57974195","3594.87761593",""
"sujeto_7e1d6f1a","1","4","29","125","3595.0310328","direct","4","1","2","¿Cuántos municipios hay
 en Montevideo?","8","7","","1","1","1","individual","left","1.77103304863","3596.80213594","3.22896695137","3600.18969989","3.54034900665","3603.73010778","2.45965099335","3606.242733","3608.15753388","3608.21019888","3611.21317482","1","3611.22766495","3613.30881691",""
"sujeto_7e1d6f1a","1","4","30","126","3613.44646478","inverse","1","1","1","¿Cuántos kilómetros hay
 de Montevideo a Artigas?","632","599","","0","0","0","competitive","left","1.32676696777","3614.77327394","3.67323303223","3618.60090399","3.41932106018","3622.02028489","2.58067893982","3624.65103292","3626.13412285","3626.21942091","3629.2218318","0","3629.23609686","3635.28818583",""
"sujeto_7e1d6f1a","1","4","31","127","3635.45422983","direct","2","1","2","¿En qué año nació 
Leonardo Da Vinci?","1452","1511","","1","1","0","competitive","left","2.1121878624","3637.56648493","2.8878121376","3640.61206388","3.0073299408","3643.61943793","2.9926700592","3646.66078091","3648.51437283","3648.595644","3651.59861994","1","3651.61403584","3654.76042485",""
"sujeto_7e1d6f1a","1","4","32","128","3654.89837694","inverse","3","1","1","¿A qué continente
 pertenece el país Gabón?","Africa","Oceanía","","0","0","1","competitive","left","2.3182451725","3657.21668696","2.6817548275","3660.07266283","3.19090104103","3663.26360178","2.80909895897","3666.12396693","3667.93562579","3668.00830388","3671.01130581","0","3671.02600288","3676.26385689",""
