"code","nro_aplicante","nro_bloque","nro_trial_bloque","nro_trial_global","show_game_type","choice_order","rival","pay_individual","pay_competitive","question","answer_left_text","answer_right_text","correct_answer","outcome_individual","outcome_competitive","outcome_rival","game_type","answer","social_time","rt_game_type","feedback_delay","show_question","answer_time","rt_answer_global","feedback_delay_2","show_jitter","jitter_time","show_outcome","outcome_time","outcome_participant_real","show_final_jitter","second_jitter_time","inicio_descanso"
"sujeto_80f4d7da","1","1","1","1","812.500971079","direct","3","1","4","¿Cuántos centímetros corresponden
al talle 36 del calzado?","23","24","","0","0","1","competitive","left","2.63394618034","815.134979963","2.36605381966","817.672831059","4.51718115807","822.190057993","1.48281884193","823.724259138","824.752563953","824.824749947","827.827754974","0","827.842479944","830.005002022",""
"sujeto_80f4d7da","1","1","2","2","830.160090923","inverse","3","1","2","¿Cuántas metros mide la Intendencia
Municipal de Montevideo? ","84","78","","0","0","1","competitive","right","2.71498417854","832.875118971","2.28501582146","835.311911106","3.21020102501","838.522156","2.78979897499","841.34620595","843.224241018","843.298165083","846.301137924","0","846.315457106","848.408221006",""
"sujeto_80f4d7da","1","1","3","3","848.549406052","direct","1","1","3","¿Cuántas La Pasiva
 hay en uruguay?","15","11","","1","1","1","competitive","right","2.43979287148","850.989265919","2.56020712852","853.724635124","3.9375500679","857.662223101","2.0624499321","859.777015924","861.388674974","861.459820986","864.462799072","1","864.477627993","868.755847931",""
"sujeto_80f4d7da","1","1","4","4","868.896767139","inverse","3","1","3","¿De que color es la camiseta de uruguay?","blanca","celeste","right","1","1","1","competitive","right","2.39363598824","871.290446043","2.60636401176","874.052762032","2.47973394394","876.532561064","3.52026605606","880.086277008","881.291059971","881.371671915","884.374659061","1","884.388967991","887.842891932",""
"sujeto_80f4d7da","1","1","5","5","887.974257946","direct","2","1","1","¿Cuánto metros mide
la torre Eiffel?","333","324","","1","1","1","competitive","right","2.06429386139","890.038615942","2.93570613861","893.12458992","4.13601899147","897.260648966","1.86398100853","899.177739143","900.699137926","900.779099941","903.782083035","1","903.796636105","910.833318949",""
"sujeto_80f4d7da","1","1","6","6","910.984432936","inverse","3","1","4","¿Cuantas ciudades existen
 en todo el uruguay?","63","72","","0","0","1","competitive","right","2.35132288933","913.335801125","2.64867711067","916.141228914","3.64859008789","919.789860964","2.35140991211","922.192302942","923.247077942","923.32683897","926.329765081","0","926.344394922","933.970958948",""
"sujeto_80f4d7da","1","1","7","7","934.11205411","direct","1","1","1","¿Cuantos estados tiene África?","52","54","","1","1","0","competitive","left","3.21594905853","937.328053951","1.78405094147","939.286761045","3.91222977638","943.199052095","2.08777022362","945.32119894","947.18522501","947.255367041","950.258348942","1","950.27284503","956.033879042",""
"sujeto_80f4d7da","1","1","8","8","956.17394495","inverse","4","1","4","¿En qué año nació
 Stephen Hawking?","1952","1942","","0","0","1","competitive","left","3.5472009182","959.72121191","1.4527990818","961.330760956","4.48142910004","965.812258959","1.51857089996","967.366338968","968.810658932","968.900859118","971.903849125","0","971.918193102","978.017560005",""
"sujeto_80f4d7da","1","1","9","9","978.169079065","direct","2","1","3","¿Cuánto años tenía Artigas
 cuando se fue a Paraguay?","56","57","","1","1","1","competitive","left","2.51922893524","980.688352108","2.48077106476","983.339193106","4.64116120338","987.980417013","1.35883879662","989.392576933","990.942131996","991.026380062","994.029310942","1","994.043648005","1000.09097314",""
"sujeto_80f4d7da","1","1","10","10","1000.24592996","inverse","1","1","2","¿Cuantos milímetros 
mide una hoja A2?","420x592","420x594","","0","0","1","competitive","right","2.28859090805","1002.53459501","2.71140909195","1005.41819906","5.98340415955","1011.40166497","0.0165958404541","1011.47041202","1013.03873897","1013.12105608","1016.12404704","0","1016.138659","1023.21232009",""
"sujeto_80f4d7da","1","1","11","11","1023.35653496","direct","3","1","3","¿Cuál es la menor temperatura 
registrada en Uruguay?","-5.4","-7.4","","0","0","1","competitive","left","3.04523396492","1026.40183401","1.95476603508","1028.52923512","3.56060814857","1032.08988309","2.43939185143","1034.58419108","1036.26624298","1036.35236502","1039.35536695","0","1039.36998296","1043.10328603",""
"sujeto_80f4d7da","1","1","12","12","1043.25498796","inverse","2","1","2","¿Cuantos años hace que 
se fundó facebook?","18","17","","0","0","0","competitive","left","2.94195103645","1046.19700503","2.05804896355","1048.408252","4.22072005272","1052.62901592","1.77927994728","1054.46140814","1055.83414912","1055.91289091","1058.91586208","0","1058.93019915","1061.70485806",""
"sujeto_80f4d7da","1","1","13","13","1061.84819007","direct","1","1","4","¿Cuál animal es más
 pesado en promedio?","Rinoceronte","Hipopotamo","","0","0","0","competitive","","3.0519092083","1064.90019512","1.9480907917","1067.01824903","6","1073.01838493","0","1073.03858805","1074.11784005","1074.23848414","1077.24143195","0","1077.25591707","1081.09695196",""
"sujeto_80f4d7da","1","1","14","14","1081.24081206","inverse","1","1","2","¿Qué personaje de dragon ball 
murió más veces?","Chaoz","Krillin","","1","1","0","competitive","left","1.79342317581","1083.03427696","3.20657682419","1086.39739013","4.86889505386","1091.26632595","1.13110494614","1092.44754505","1093.90537214","1093.98182392","1096.98482299","1","1096.99939299","1104.77228093",""
"sujeto_80f4d7da","1","1","15","15","1104.91810203","direct","3","1","2","La universidad de oxford. 
existe desde:","1096","1249","","1","1","0","competitive","right","2.66635990143","1107.58450913","2.33364009857","1110.092309","4.30327486992","1114.39564514","1.69672513008","1116.14391303","1117.19273496","1117.27825904","1120.28126192","1","1120.29563999","1126.98647094",""
"sujeto_80f4d7da","1","1","16","16","1127.13011003","inverse","3","1","1","¿Qué escritor latino ganó antes
 el premio nobel?"," García Marquez","Neruda","","0","0","1","competitive","","3.29952096939","1130.42970395","1.70047903061","1132.28738308","6","1138.2875011","0","1138.30624509","1140.04622412","1140.12316799","1143.12613201","0","1143.14038396","1146.60086703",""
"sujeto_80f4d7da","1","1","17","17","1146.75945997","direct","4","1","3","¿Cuántos dientes tiene un
 tiburón blanco?","6000","3000","","0","0","1","competitive","right","4.30340504646","1151.06293106","0.696594953537","1151.91240692","4.15051007271","1156.062958","1.84948992729","1157.96596694","1159.00479412","1159.08361101","1162.08660293","0","1162.10091114","1166.91057992",""
"sujeto_80f4d7da","1","1","18","18","1167.05230594","inverse","4","1","1","¿Cuánto mide el paralelo Ecuador?","40.000km","70.000km","","0","0","1","individual","right","2.1883020401","1169.24065614","2.8116979599","1172.20821095","5.62089109421","1177.82915306","0.379108905792","1178.26008797","1180.21617699","1180.26106906","1183.26402402","0","1183.27858305","1186.87922692",""
"sujeto_80f4d7da","1","1","19","19","1187.01307106","direct","4","1","2","¿Cuál fue el primer libro 
de Stephen King?","Carrie","The Stand","","1","1","1","competitive","right","4.37919521332","1191.39233398","0.620804786682","1192.16897297","3.71633601189","1195.88537002","2.28366398811","1198.22051692","1199.96464396","1200.03818297","1203.04114509","1","1203.05593991","1207.53037596",""
"sujeto_80f4d7da","1","1","20","20","1207.67220902","inverse","2","1","3","¿Qué civilización practicaba
 la momificación?","Grecia","Egipto","right","0","0","1","competitive","right","1.63721299171","1209.30949211","3.36278700829","1212.82978511","3.18863916397","1216.01851201","2.81136083603","1218.88003802","1220.81932712","1220.89850807","1223.90147614","1","1223.91598892","1228.14479399",""
"sujeto_80f4d7da","1","1","21","21","1228.28456712","direct","4","1","4","¿Cuántos millones de visitas
 recibe google por minuto?","3.0","4.5","","0","0","1","competitive","","2.24001097679","1230.52464294","2.75998902321","1233.45646","6","1239.45659494","0","1239.47006893","1240.98496103","1241.07364607","1244.07663894","0","1244.09041595","1251.21310592",""
"sujeto_80f4d7da","1","1","22","22","1251.3595221","inverse","1","1","3","La máquina de fax. se inventó en:","1843","1960","","0","0","1","competitive","left","1.57527017593","1252.93485594","3.42472982407","1256.51884604","4.56097388268","1261.07988","1.43902611732","1262.55395699","1263.79607511","1263.88822412","1266.89122701","0","1266.90523505","1270.14155006",""
"sujeto_80f4d7da","1","1","23","23","1270.28998494","direct","2","1","4","En la verdadera historia de los
 300 espartanos. habían:","300 soldados","4300 soldados","","1","1","1","competitive","left","2.67500400543","1272.96505499","2.32499599457","1275.46119094","5.71680593491","1281.17806101","0.283194065094","1281.51414704","1282.77537608","1282.86508608","1285.86808991","1","1285.8824451","1289.68421197",""
"sujeto_80f4d7da","1","1","24","24","1289.83364296","inverse","1","1","4","¿Cuántos milímetros crece
 el pelo por día?","0.4","0.04","","0","0","0","competitive","right","2.92349290848","1292.75717902","2.07650709152","1294.98905802","5.03407502174","1300.023175","0.965924978256","1301.04133201","1302.80205798","1302.89197898","1305.89497614","0","1305.90867496","1312.64379001",""
"sujeto_80f4d7da","1","1","25","25","1312.79330397","direct","4","1","1","¿Cuánto mide la baldosa gris 
clásica de Montevideo?","22x22 cm.","20x20 cm.","","1","1","1","individual","","2.45904302597","1315.25241303","2.54095697403","1317.95121193","6","1323.95131207","0","1323.96481204","1325.96007895","1326.00144196","1329.00439095","0","1329.01887012","1334.56168509",""
"sujeto_80f4d7da","1","1","26","26","1334.70388293","inverse","2","1","2","¿Cuántas películas de rápidos
 y furiosos hay?","10","11","","1","1","0","competitive","right","1.54170107841","1336.24563193","3.45829892159","1339.862077","2.96251487732","1342.82463193","3.03748512268","1345.8969481","1347.25499296","1347.33076596","1350.33376312","1","1350.34851313","1352.38322711",""
"sujeto_80f4d7da","1","1","27","27","1352.51758504","direct","3","1","1","¿Cuántos masters 1000
 ganó Del Potro?","1","2","","1","1","1","competitive","right","3.11114192009","1355.62877512","1.88885807991","1357.68854308","3.14721608162","1360.83581901","2.85278391838","1363.72290897","1365.47754908","1365.55803704","1368.56105399","1","1368.57533407","1375.97174096",""
"sujeto_80f4d7da","1","1","28","28","1376.10939002","inverse","2","1","4","¿Cuántos meses dura el 
embarazo de una leona?","3 meses","4 meses","","0","0","1","competitive","right","1.68552088737","1377.79497194","3.31447911263","1381.28489113","4.05905008316","1385.3440001","1.94094991684","1387.31858397","1388.429672","1388.50264406","1391.50563407","0","1391.51999903","1398.24249911",""
"sujeto_80f4d7da","1","1","29","29","1398.388134","direct","1","1","1","¿En qué año fue creado
 el sandwich?","1762","1653","","1","1","0","competitive","left","3.22397184372","1401.61215496","1.77602815628","1403.54546094","3.95665001869","1407.50217009","2.04334998131","1409.59691811","1411.19546103","1411.28062296","1414.28361702","1","1414.29837608","1417.76903009",""
"sujeto_80f4d7da","1","1","30","30","1417.91722608","inverse","4","1","2","El nombre de la moneda de Vietnam es:","Dinar","Dong","","0","0","1","individual","right","3.79211497307","1421.70940614","1.20788502693","1423.07283711","3.21152710915","1426.28440714","2.78847289085","1429.12413692","1430.5561161","1430.6082201","1433.61121011","0","1433.62598109","1439.79439712",""
"sujeto_80f4d7da","1","1","31","31","1439.92760015","direct","2","1","1","¿cuantos aleteos puede dar 
un colibrí por segundo?","120","50","","0","0","0","competitive","left","2.0639500618","1441.99159408","2.9360499382","1445.08421612","3.7683930397","1448.85264993","2.2316069603","1451.13547611","1452.86784196","1452.95338798","1455.95640993","0","1455.97081614","1460.18311",""
"sujeto_80f4d7da","1","1","32","32","1460.33917904","inverse","4","1","3","¿Qué altura promedio tienen
 los hombres uruguayos?","1.73 m","1.72 m","","1","1","1","competitive","left","1.95656991005","1462.29579592","3.04343008995","1465.51122999","3.80659103394","1469.31788301","2.19340896606","1471.56208205","1472.82451105","1472.91349792","1475.91649699","1","1475.93112206","1480.40706801",""
"sujeto_80f4d7da","1","2","1","33","1604.59735394","direct","1","1","1","¿En qué año nació 
el actor Bradd Pitt?","1967","1963","","1","1","1","competitive","right","3.10169291496","1607.69909406","1.89830708504","1609.75417399","3.54495096207","1613.29916406","2.45504903793","1615.80571508","1616.90159106","1616.97305107","1619.97600913","1","1619.99028802","1625.91788411","1480.42216897"
"sujeto_80f4d7da","1","2","2","34","1626.05882096","inverse","2","1","1","¿Cual es el segundo 
monte más alto?","Kanchenjunga","K2","","1","1","1","competitive","left","2.27449703217","1628.33338594","2.72550296783","1631.21467996","3.71167898178","1634.92640114","2.28832101822","1637.26401806","1638.71647692","1638.79935908","1641.80232596","1","1641.81713605","1645.24703097",""
"sujeto_80f4d7da","1","2","3","35","1645.38457608","direct","3","1","1","¿Cuándo finalizó la construcción
 del Palacio Legislativo?","1925","1917","","0","0","1","competitive","left","3.23287606239","1648.61749792","1.76712393761","1650.54215598","4.7573029995","1655.29952407","1.2426970005","1656.59402895","1658.23457408","1658.31145406","1661.31442904","0","1661.32909107","1667.02666497",""
"sujeto_80f4d7da","1","2","4","36","1667.18050909","inverse","3","1","3","¿Cuántos integrantes tenía
 en su inicio  el cuarteto de nos?","3","4","","1","1","1","competitive","right","2.20026516914","1669.380826","2.79973483086","1672.35197592","5.8027150631","1678.1547761","0.197284936905","1678.40563011","1679.53873301","1679.62244892","1682.6246841","1","1682.640064","1688.28988099",""
"sujeto_80f4d7da","1","2","5","37","1688.42338109","direct","2","1","3","¿Qué valor tiene el número pi?","3.14","4.18","left","0","0","1","competitive","left","1.96854019165","1690.39202595","3.03145980835","1693.59632301","2.58956694603","1696.18593311","3.41043305397","1699.64894295","1701.10313797","1701.18379593","1704.18674207","1","1704.20097399","1711.12183809",""
"sujeto_80f4d7da","1","2","6","38","1711.28613901","inverse","2","1","2","¿Cuál es la esperanza de vida
 en Uruguay?","75","77","","1","1","0","competitive","left","1.4299030304","1712.71611214","3.5700969696","1716.43805313","4.30909705162","1720.74721313","1.69090294838","1722.473943","1724.12776899","1724.20825005","1727.21125007","1","1727.22595215","1733.68610692",""
"sujeto_80f4d7da","1","2","7","39","1733.84349394","direct","1","1","2","¿Cuantos pisos tiene la torre 
de las comunicaciones?","26","32","","1","1","0","competitive","left","2.60178899765","1736.44534802","2.39821100235","1739.02100992","4.66730809212","1743.68838096","1.33269190788","1745.07349396","1746.90225196","1746.97420192","1749.97719693","1","1749.99165201","1752.13788009",""
"sujeto_80f4d7da","1","2","8","40","1752.27619791","inverse","2","1","4","¿En qué país sudamericano 
no hay McDonalds?","Bolivia","Venezuela","","0","0","1","competitive","left","3.1672129631","1755.44345403","1.8327870369","1757.44623899","3.73223996162","1761.17854095","2.26776003838","1763.48247194","1764.79186392","1764.86691999","1767.86992908","0","1767.88428307","1774.24401712",""
"sujeto_80f4d7da","1","2","9","41","1774.40257502","direct","3","1","1","¿En qué año empieza
 la Edad Media?","476","512","","1","1","1","competitive","right","2.77303385735","1777.17567611","2.22696614265","1779.55933094","4.40444397926","1783.96383715","1.59555602074","1785.61106396","1787.01475596","1787.0952971","1790.09828305","1","1790.11265612","1793.101228",""
"sujeto_80f4d7da","1","2","10","42","1793.24752212","inverse","3","1","4","¿Hace cuántos años surgió
 el ser humano?","200mil","300mil","","0","0","0","competitive","right","2.59531807899","1795.84288311","2.40468192101","1798.41910601","5.06884288788","1803.48800993","0.931157112122","1804.46795893","1806.353966","1806.43568492","1809.43873501","0","1809.45342398","1812.76386094",""
"sujeto_80f4d7da","1","2","11","43","1812.90448093","direct","3","1","4","¿Cuántas cuadras tiene
 actualmente 18 de julio? ","36","33","","0","0","1","competitive","right","1.96058297157","1814.86511207","3.03941702843","1818.08031797","4.40972590446","1822.49010205","1.59027409554","1824.11482096","1825.81706405","1825.89826894","1828.90125299","0","1828.91575599","1833.64204097",""
"sujeto_80f4d7da","1","2","12","44","1833.78428292","inverse","1","1","4","¿Qué juego de equipo se 
considera mas rápido?","Lacrosse","Badminton","","0","0","0","competitive","right","1.68291401863","1835.46726203","3.31708598137","1838.93815303","5.78408885002","1844.72230411","0.215911149979","1844.99217296","1846.23528004","1846.30863094","1849.31162691","0","1849.32693195","1857.32212305",""
"sujeto_80f4d7da","1","2","13","45","1857.46141601","direct","1","1","3","¿Qué promedio de edad 
vive una jirafa? ","25","20","","0","0","1","","","","","","","","","","","","","","","1862.483639","1868.43934107",""
"sujeto_80f4d7da","1","2","14","46","1868.56843615","inverse","1","1","2","¿Cuántos grandes lagos hay?","7","5","","0","0","1","competitive","left","1.99513697624","1870.56367898","3.00486302376","1873.72417808","2.82745814323","1876.55168009","3.17254185677","1879.77592802","1881.06807494","1881.14450812","1884.14748502","0","1884.16135192","1891.98266792",""
"sujeto_80f4d7da","1","2","15","47","1892.11307096","direct","3","1","2","¿Cuántos discos de estudio
 grabó Johhny Cash? ","54","43","","1","1","0","competitive","right","2.15075588226","1894.26387215","2.84924411774","1897.27019215","4.08063006401","1901.35088396","1.91936993599","1903.30636692","1904.5850141","1904.65717411","1907.66011906","1","1907.67461705","1914.32554698",""
"sujeto_80f4d7da","1","2","16","48","1914.47643995","inverse","4","1","1","¿Cuántos barrios tiene
 Montevideo? ","71","62","","0","0","1","individual","right","2.23156404495","1916.70807099","2.76843595505","1919.63334107","3.27164506912","1922.90502501","2.72835493088","1925.68496704","1926.69198704","1926.73488593","1929.73788595","0","1929.75214314","1935.21413112",""
"sujeto_80f4d7da","1","2","17","49","1935.35410094","direct","3","1","3","¿Qué edad tiene Homero Simpson?","36","42","","0","0","1","competitive","right","1.84799909592","1937.20214009","3.15200090408","1940.54493809","3.54431414604","1944.08931494","2.45568585396","1946.57658005","1947.95260096","1948.02817702","1951.03112006","0","1951.04582691","1955.434551",""
"sujeto_80f4d7da","1","2","18","50","1955.58010793","inverse","4","1","2","¿Cuántos países con monarquía 
hay en europa actualmente? ","6","10","","1","1","1","competitive","right","3.61529397964","1959.19545007","1.38470602036","1960.73824191","4.97517490387","1965.71345806","1.02482509613","1966.773175","1968.211483","1968.28979897","1971.29185891","1","1971.30798602","1977.46476698",""
"sujeto_80f4d7da","1","2","19","51","1977.62559104","direct","2","1","3","¿Cuántos capítulos de
 Friends existen? ","236","228","","1","1","1","competitive","left","2.12094807625","1979.74660301","2.87905192375","1982.80001307","4.05861020088","1986.85866308","1.94138979912","1988.85059595","1990.15615702","1990.23500109","1993.23798895","1","1993.25236392","1995.62804103",""
"sujeto_80f4d7da","1","2","20","52","1995.78709912","inverse","1","1","3","¿Cuántas óperas compuso Mozart? ","27","22","","1","1","1","competitive","left","3.04266500473","1998.82987213","1.95733499527","2000.95415902","3.86355805397","2004.81778693","2.13644194603","2006.99341702","2008.28558493","2008.36161399","2011.36464095","1","2011.37893891","2018.68944907",""
"sujeto_80f4d7da","1","2","21","53","2018.84712601","direct","4","1","3","¿Cuántos mundiales de fútbol 
femenino ha realizado FIFA? ","9","7","","1","1","1","competitive","left","1.91868591309","2020.76592612","3.08131408691","2024.02189302","3.71501684189","2027.73694992","2.28498315811","2030.07183909","2031.31554604","2031.39005804","2034.39304495","1","2034.40789604","2040.51037192",""
"sujeto_80f4d7da","1","2","22","54","2040.64192009","inverse","3","1","2","¿Cuál es la temperatura 
media anual en Montevideo? ","17.5","16.3","","0","0","1","competitive","right","1.86017394066","2042.50216007","3.13982605934","2045.832582","4.93453097343","2050.76717496","1.06546902657","2051.88430905","2053.82294607","2053.90148497","2056.90447998","0","2056.91895413","2063.48810697",""
"sujeto_80f4d7da","1","2","23","55","2063.65457702","direct","2","1","2","¿En qué año se estrenó el
 videojuego The Sims? ","2000","2002","","0","0","0","competitive","left","2.29969501495","2065.95433593","2.70030498505","2068.81007099","4.25128698349","2073.06139803","1.74871301651","2074.86311007","2076.72517705","2076.79711103","2079.80014396","0","2079.81457996","2087.20826793",""
"sujeto_80f4d7da","1","2","24","56","2087.34921193","inverse","2","1","1","¿Cuál es la canción con 
mas covers? ","Yesterday","Stand by me","","0","0","0","competitive","left","2.54226303101","2089.89152002","2.45773696899","2092.52403498","5.42845606804","2097.95255113","0.571543931961","2098.55904698","2099.95757508","2100.0424931","2103.04544497","0","2103.05982494","2107.23058295",""
"sujeto_80f4d7da","1","2","25","57","2107.37875795","direct","1","1","4","¿Cuánto duró la guerra
 de los 100 años?","116","123","","0","0","0","competitive","left","1.84896302223","2109.22780299","3.15103697777","2112.56631207","4.30540418625","2116.87176204","1.69459581375","2118.61822009","2120.09899902","2120.18549299","2123.18848991","0","2123.20313907","2125.52293396",""
"sujeto_80f4d7da","1","2","26","58","2125.67166615","inverse","4","1","4","¿Qué color tiene la  bandera de Brasil?","Amarillo","Naranja","left","0","0","1","competitive","left","1.65714597702","2127.32885408","3.34285402298","2130.82699513","3.39883899689","2134.22590113","2.60116100311","2136.87801814","2138.44456792","2138.52961612","2141.53259492","1","2141.54627514","2144.57907796",""
"sujeto_80f4d7da","1","2","27","59","2144.73156905","direct","4","1","3","¿Qué carabela de 
Colon no volvió del viaje?","Santa María","La pinta","","0","0","1","competitive","right","2.07743406296","2146.80907297","2.92256593704","2149.90387607","4.40713500977","2154.31107903","1.59286499023","2155.95486808","2157.44590712","2157.52272511","2160.52575994","0","2160.54003","2162.63950801",""
"sujeto_80f4d7da","1","2","28","60","2162.79167604","inverse","4","1","4","¿Cuántos huesos tiene
 un adulto humano?","217","206","","0","0","1","competitive","right","1.58043789864","2164.37218904","3.41956210136","2167.94545794","4.35068011284","2172.29617596","1.64931988716","2173.99536991","2175.26640511","2175.34603","2178.34902596","0","2178.36357594","2186.20125914",""
"sujeto_80f4d7da","1","2","29","61","2186.33135796","direct","1","1","1","¿Qué país africano fue 
fundado por esclavos?","Liberia","Chad","","0","0","0","competitive","left","3.11598801613","2189.44745612","1.88401198387","2191.50870609","4.00968384743","2195.5184381","1.99031615257","2197.55964994","2199.55127597","2199.62739801","2202.63036609","0","2202.64537096","2210.63280797",""
"sujeto_80f4d7da","1","2","30","62","2210.78078699","inverse","4","1","2","¿A cuánto asciende la cima
 del monte Everest?","7.990 mts","8.848 mts","","0","0","1","competitive","right","3.03993391991","2213.82076693","1.96006608009","2215.95413709","5.00845098495","2220.96263504","0.991549015045","2222.00563407","2223.190418","2223.27275801","2226.27574611","0","2226.28911114","2233.47316694",""
"sujeto_80f4d7da","1","2","31","63","2233.62307501","direct","4","1","1","¿Cuál es el país mas chico?","Sealand","Luxemburgo","","1","1","1","individual","right","1.94192099571","2235.56507111","3.05807900429","2238.78376412","3.76996803284","2242.55380011","2.23003196716","2244.83419204","2246.69773102","2246.73512292","2249.7380991","1","2249.75345111","2252.87572193",""
"sujeto_80f4d7da","1","2","32","64","2253.02117205","inverse","2","1","4","¿Cuántas pirámides hay en Egipto?","10000","11000","","1","1","1","competitive","right","1.99072384834","2255.01196098","3.00927615166","2258.17671013","2.95524215698","2261.13201404","3.04475784302","2264.22756791","2265.26079011","2265.34573793","2268.34874201","1","2268.36298895","2273.47206306",""
"sujeto_80f4d7da","1","3","1","65","2392.68524194","direct","2","1","2","¿Cuál es el quinto país con 
mas extensión?","Canadá","Brasil","","1","1","0","competitive","left","2.68982601166","2395.37513399","2.31017398834","2397.84436798","5.20181894302","2403.04622912","0.798181056976","2403.88543892","2405.21874404","2405.30174708","2408.30473113","1","2408.31898713","2416.04537702","2273.48707509"
"sujeto_80f4d7da","1","3","2","66","2416.18726492","inverse","1","1","2","¿Qué rasgo facial no tiene
 la Mona Lisa?","Cejas","Pómulos","","0","0","1","competitive","right","1.6810400486","2417.86835313","3.3189599514","2421.34053111","5.22090005875","2426.56150007","0.779099941254","2427.39368296","2429.14380908","2429.22765803","2432.23065209","0","2432.24540591","2438.51675391",""
"sujeto_80f4d7da","1","3","3","67","2438.66308308","direct","4","1","3","¿Cuál es el país con 
mayor población?","Esados Unidos","China","right","0","0","1","competitive","right","2.36946201324","2441.0325911","2.63053798676","2443.83882999","3.09072685242","2446.92959809","2.90927314758","2449.89152503","2451.53748202","2451.60970807","2454.61264992","1","2454.62738395","2457.99380398",""
"sujeto_80f4d7da","1","3","4","68","2458.33022094","inverse","1","1","1","La palabra dinosaurio significa","Lagarto Terrible","Lagarto Dragón","","1","1","0","competitive","","1.66657996178","2459.99687195","3.33342003822","2463.51721692","6","2469.51733899","0","2469.534163","2470.7045331","2470.78593397","2473.78886795","0","2473.80317211","2476.66497207",""
"sujeto_80f4d7da","1","3","5","69","2476.80512714","direct","2","1","3","¿Qué es el membrillero?","Arbol","Arbusto","","0","0","0","competitive","left","2.10683703423","2478.91200995","2.89316296577","2481.96109414","3.92983007431","2485.89096498","2.07016992569","2487.99484301","2489.94784594","2490.02847195","2493.03147292","0","2493.04613209","2499.51016712",""
"sujeto_80f4d7da","1","3","6","70","2499.64745212","inverse","3","1","3","¿Alrededor de qué planeta orbita 
el satélite Europa?","Jupiter","Saturno","","1","1","1","competitive","right","3.0506541729","2502.69817114","1.9493458271","2504.82222915","5.45287013054","2510.27515697","0.547129869461","2510.87490296","2512.41974497","2512.50796294","2515.51096892","1","2515.52549696","2517.72982693",""
"sujeto_80f4d7da","1","3","7","71","2517.87710905","direct","3","1","1","¿Donde fue el mundial de 
fútbol de 1954?","Suiza","Suecia","","1","1","1","competitive","left","2.73509287834","2520.61226797","2.26490712166","2523.04823399","3.38806796074","2526.43636298","2.61193203926","2529.10008407","2530.35268211","2530.43479609","2533.43778801","1","2533.45134902","2537.363168",""
"sujeto_80f4d7da","1","3","8","72","2537.50294304","inverse","1","1","4","¿Cuál de los 7 enanitos
no tenía barba?","Bashful","Mudito","","1","1","0","competitive","left","1.56744480133","2539.07045197","3.43255519867","2542.67511296","4.26037192345","2546.93554592","1.73962807655","2548.70954514","2550.28972292","2550.37722111","2553.38022208","1","2553.39457107","2558.3236711",""
"sujeto_80f4d7da","1","3","9","73","2558.48010898","direct","3","1","2","¿Cual red social es
mas utilizada mundialmente?","Instagram","Facebook","","1","1","0","competitive","left","2.77144789696","2561.25160599","2.22855210304","2563.6676321","2.09403014183","2565.76172495","3.90596985817","2569.71958804","2571.63693905","2571.72168207","2574.72466207","1","2574.73923707","2577.67372608",""
"sujeto_80f4d7da","1","3","10","74","2577.8066721","inverse","4","1","1","¿Cuándo se inició la copa
 América de fútbol?","1916","1923","","1","1","1","competitive","left","3.56616806984","2581.37291098","1.43383193016","2582.97979593","4.54308605194","2587.52294302","1.45691394806","2589.01078701","2590.90823507","2590.97824907","2593.98120403","1","2593.99549913","2596.65169501",""
"sujeto_80f4d7da","1","3","11","75","2596.77998614","direct","3","1","4","¿Cuántos presidentes de EEUU
han muerto asesinados?","3","4","","0","0","1","competitive","left","1.81194901466","2598.59198093","3.18805098534","2601.93975306","3.58321380615","2605.52302694","2.41678619385","2607.99090099","2609.47483802","2609.55879307","2612.56179404","0","2612.57694602","2616.22106314",""
"sujeto_80f4d7da","1","3","12","76","2616.37826204","inverse","2","1","4","¿Cuántas veces participó EEUU
 en la copa América?","4","5","","0","0","1","competitive","left","1.63484692574","2618.01315212","3.36515307426","2621.54973197","4.14340281487","2625.69319391","1.85659718513","2627.58364606","2629.02675605","2629.10148501","2632.10446692","0","2632.11928606","2638.23593903",""
"sujeto_80f4d7da","1","3","13","77","2638.38721609","direct","4","1","1","¿Cuál de estos países 
no formaba la URSS?","Azeribayán","Afganistán","","0","0","1","competitive","left","3.00411605835","2641.39137602","1.99588394165","2643.54495907","5.52844500542","2649.07344413","0.471554994583","2649.59495091","2650.90784597","2650.99498796","2653.9979701","0","2654.01270103","2661.98975801",""
"sujeto_80f4d7da","1","3","14","78","2662.13031006","inverse","1","1","1","¿En qué año se inauguró
 el teatro Solís?","1867","1856","","0","0","0","competitive","right","1.86022782326","2663.99058199","3.13977217674","2667.30689096","3.57964301109","2670.88659406","2.42035698891","2673.34201097","2674.39836812","2674.47624207","2677.47925591","0","2677.49417496","2684.14200306",""
"sujeto_80f4d7da","1","3","15","79","2684.27865505","direct","1","1","4","¿A qué velocidad vuela 
el avión más rápido?","3529","3874","","0","0","0","competitive","left","2.51813292503","2686.79689002","2.48186707497","2689.45276999","3.79001784325","2693.24285102","2.20998215675","2695.50345802","2697.25898314","2697.33807302","2700.34108591","0","2700.355335","2702.46563292",""
"sujeto_80f4d7da","1","3","16","80","2702.60683298","inverse","3","1","4","¿De qué año es la primer 
película cinematográfica?","1897","1888","","0","0","0","competitive","right","2.09307599068","2704.69995093","2.90692400932","2707.76208997","3.50492095947","2711.26707292","2.49507904053","2713.81229711","2714.94528008","2715.03022599","2718.03317809","0","2718.04774094","2723.4575181",""
"sujeto_80f4d7da","1","3","17","81","2723.61538506","direct","2","1","3","¿Cuántos países 
tiene nuestro planeta?","191","194","","1","1","1","competitive","right","2.19675087929","2725.81221008","2.80324912071","2728.77162004","4.55554199219","2733.32722902","1.44445800781","2734.82467604","2736.18193412","2736.25864196","2739.26162696","1","2739.27632713","2742.51467013",""
"sujeto_80f4d7da","1","3","18","82","2742.66068912","inverse","2","1","2","¿Cuántos habitantes
 tiene Buenos Aires?","2.9000.000","3650000","","0","0","0","competitive","left","1.84658312798","2744.50731611","3.15341687202","2747.84663105","4.54673886299","2752.39341593","1.45326113701","2753.89927912","2755.29653811","2755.36698699","2758.36997604","0","2758.38423204","2764.21361995",""
"sujeto_80f4d7da","1","3","19","83","2764.35242891","direct","2","1","1","¿Cuántos kilos forman una tonelada?","1000","1500","left","1","1","1","competitive","left","2.48904705048","2766.84154201","2.51095294952","2769.51266313","3.60479307175","2773.11749697","2.39520692825","2775.561939","2777.449332","2777.52991199","2780.53289914","1","2780.54824805","2786.50566697",""
"sujeto_80f4d7da","1","3","20","84","2786.64915895","inverse","4","1","4","¿Cuántos estados tiene la 
República del Perú? ","24","23","","0","0","1","competitive","right","1.88058400154","2788.52986693","3.11941599846","2791.82092905","4.55878281593","2796.37978005","1.44121718407","2797.85524106","2798.87683296","2798.95602202","2801.95899606","0","2801.97360301","2806.91890311",""
"sujeto_80f4d7da","1","3","21","85","2807.05773902","direct","3","1","3","¿En qué año nació Cristóbal Colón? ","1451","1447","","0","0","1","individual","right","4.39817810059","2811.45598006","0.601821899414","2812.21684408","3.44807720184","2815.66497898","2.55192279816","2818.25163293","2820.09754395","2820.13533998","2823.13830304","0","2823.15349197","2827.38149309",""
"sujeto_80f4d7da","1","3","22","86","2827.53649592","inverse","4","1","4","¿Cuánto mide la 
Montaña Aconcagua? ","6234","6962","","0","0","1","competitive","right","1.79054903984","2829.32709408","3.20945096016","2832.7106781","3.00339388847","2835.71411109","2.99660611153","2838.76157713","2840.05093193","2840.12993693","2843.13295603","0","2843.14668894","2850.33031797",""
"sujeto_80f4d7da","1","3","23","87","2850.46472192","direct","2","1","4","¿Cuánto mide el punto
 más profundo del océano? ","12508","11003","","0","0","1","competitive","right","1.95061516762","2852.41539097","3.04938483238","2855.63916492","3.67811393738","2859.31734014","2.32188606262","2861.68782401","2862.93930602","2863.02247906","2866.0254271","0","2866.04019904","2870.24644494",""
"sujeto_80f4d7da","1","3","24","88","2870.39154291","inverse","1","1","3","¿Cuántos álbumes ha publicado 
el cantante Jaime Roos? ","41","34","","0","0","1","competitive","right","1.45390200615","2871.84549308","3.54609799385","2875.54614902","3.49332499504","2879.03953695","2.50667500496","2881.58127499","2883.07110095","2883.15026093","2886.15328407","0","2886.16764808","2892.36377001",""
"sujeto_80f4d7da","1","3","25","89","2892.50096798","direct","4","1","3","¿En qué año nació el 
ex-presidente Jorge Battle? ","1921","1927","","1","1","1","competitive","right","2.97963809967","2895.48065209","2.02036190033","2897.694345","3.89333891869","2901.58775592","2.10666108131","2903.74566603","2905.47638512","2905.56375098","2908.5667181","1","2908.58148408","2912.06757092",""
"sujeto_80f4d7da","1","3","26","90","2912.21662402","inverse","1","1","3","¿Cuántas presidencias 
constitucionales  hubo en Uruguay? ","41","42","","0","0","1","competitive","right","2.81517195702","2915.03184199","2.18482804298","2917.37176514","4.42312908173","2921.79493499","1.57687091827","2923.422755","2924.62653208","2924.70762014","2927.70788097","0","2927.72519708","2933.508775",""
"sujeto_80f4d7da","1","3","27","91","2933.66009808","direct","1","1","2","¿Quién escribió mas sinfonías?","Mozart","Haydn","","1","1","0","competitive","left","3.27988910675","2936.94005299","1.72011089325","2938.84988499","2.95023488998","2941.80018806","3.04976511002","2944.90008903","2946.11682701","2946.20148897","2949.20387506","1","2949.21924806","2952.97066212",""
"sujeto_80f4d7da","1","3","28","92","2953.10437393","inverse","4","1","2","¿En qué año nació Michael Jackson?","1958","1953","","1","1","1","individual","left","2.7648499012","2955.86926794","2.2351500988","2958.27537608","3.81390309334","2962.08931899","2.18609690666","2964.31141806","2966.28965092","2966.32874608","2969.33169508","1","2969.34634805","2975.20866609",""
"sujeto_80f4d7da","1","3","29","93","2975.36568213","direct","3","1","2","¿En qué año entró en vigencia 
la ley antitabaco en Uruguay?","2005","2006","","1","1","1","competitive","right","3.01167106628","2978.37739706","1.98832893372","2980.52177095","3.82965493202","2984.35146594","2.17034506798","2986.55631709","2988.15108109","2988.22379112","2991.22677207","1","2991.24137998","2996.57538414",""
"sujeto_80f4d7da","1","3","30","94","2996.72597098","inverse","3","1","1","¿Cuándo se subió el 
primer video a youtube?","2004","2005","","0","0","1","competitive","right","2.49362492561","2999.21963906","2.50637507439","3001.882967","2.82568383217","3004.70869994","3.17431616783","3007.93352795","3009.23919797","3009.31765413","3012.3198061","0","3012.33515692","3020.09075999",""
"sujeto_80f4d7da","1","3","31","95","3020.23664808","direct","2","1","1","¿Cuántos habitantes tiene India?","1200 millones","1300 millones","","0","0","0","competitive","left","1.91425514221","3022.15095496","3.08574485779","3025.411412","4.41346001625","3029.82493401","1.58653998375","3031.46244502","3033.43208694","3033.51385713","3036.51682401","0","3036.53209805","3042.57961702",""
"sujeto_80f4d7da","1","3","32","96","3042.71621895","inverse","4","1","2","¿A qué edad murió Bob Marley?","36","37","","0","0","1","competitive","left","1.85280990601","3044.569098","3.14719009399","3047.88903999","2.4579398632","3050.34704494","3.5420601368","3053.9403851","3055.83786511","3055.92525506","3058.92824602","0","3058.942554","3062.045012",""
"sujeto_80f4d7da","1","4","1","97","3188.39311695","direct","2","1","1","¿Cuantos años dirigió la selección 
uruguaya Tabarez?","15 años","13 años","","0","0","0","competitive","left","2.24724698067","3190.64042807","2.75275301933","3193.56272411","3.13768601418","3196.70046997","2.86231398582","3199.616961","3200.80815911","3200.88554192","3203.88853812","0","3203.90281701","3210.97486305","3062.05985212"
"sujeto_80f4d7da","1","4","2","98","3211.12093306","inverse","4","1","1","¿Cuantas teclas tiene un teclado 
de computadora generalmente? ","Entre 99 y 108","Entre 109 y 113","","1","1","1","competitive","right","3.33066177368","3214.45163894","1.66933822632","3216.2937541","5.91591405869","3222.20973897","0.0840859413147","3222.34454799","3223.34733796","3223.42728996","3226.4303081","1","3226.44500113","3228.81647611",""
"sujeto_80f4d7da","1","4","3","99","3228.96398711","direct","1","1","1","¿Cuál Departamento tiene
 mayor superficie?","Río Negro","Soriano","","0","0","0","individual","left","3.16177892685","3232.12583113","1.83822107315","3234.1209271","4.0639231205","3238.18489099","1.9360768795","3240.17227292","3241.88574696","3241.923208","3244.92615104","0","3244.94096613","3249.26701999",""
"sujeto_80f4d7da","1","4","4","100","3249.408319","inverse","3","1","2","¿Cuál es el apellido de las 
hermanastras  de  cenicienta?","Tremaine","Truman","","0","0","1","competitive","left","2.23562502861","3251.64401913","2.76437497139","3254.59846497","5.41357493401","3260.01208591","0.586425065994","3260.65012312","3262.51965714","3262.60131001","3265.60431314","0","3265.618747","3268.31474614",""
"sujeto_80f4d7da","1","4","5","101","3268.47027302","direct","4","1","4","¿Cuál película ganó un
 Oscar a mejor película?","Alto Impacto","Cache","","0","0","1","competitive","left","1.73089313507","3270.20120811","3.26910686493","3273.62523007","4.87986898422","3278.50513697","1.12013101578","3279.67396712","3280.79332113","3280.87464213","3283.87766314","0","3283.89232612","3286.15697098",""
"sujeto_80f4d7da","1","4","6","102","3286.2930541","inverse","1","1","3","¿A cuántos centímetros
equivale la medida pié?","25","30","","0","0","1","competitive","left","1.73923707008","3288.03236008","3.26076292992","3291.45030212","3.8720459938","3295.32240891","2.1279540062","3297.50217509","3298.54184294","3298.62016201","3301.62317204","0","3301.63645506","3307.03675008",""
"sujeto_80f4d7da","1","4","7","103","3307.20518208","direct","2","1","2","¿Qué departamento es mas grande?","Cerro Largo","Paysandú","","0","0","0","competitive","left","4.83530497551","3312.04055309","0.16469502449","3312.36099911","3.49747610092","3315.85851502","2.50252389908","3318.39602208","3319.99575901","3320.08096695","3323.08395314","0","3323.09822106","3327.20823598",""
"sujeto_80f4d7da","1","4","8","104","3327.35020709","inverse","2","1","3","¿Quién pintó la Mona Lisa?","Picasso","Da Vinci","right","0","0","1","competitive","right","1.75245809555","3329.10271907","3.24754190445","3332.52004099","3.71460199356","3336.23471808","2.28539800644","3338.57161307","3340.17748308","3340.25523806","3343.25823092","1","3343.27294493","3345.43477702",""
"sujeto_80f4d7da","1","4","9","105","3345.57519293","direct","4","1","3","¿Cuántos litros hay en un galon?","3.54","3.78","","1","1","1","competitive","left","2.81374692917","3348.38901806","2.18625307083","3350.74802494","4.4108839035","3355.15895009","1.5891160965","3356.7831111","3358.29983497","3358.38486195","3361.38780594","1","3361.40153503","3367.19386697",""
"sujeto_80f4d7da","1","4","10","106","3367.35163307","inverse","4","1","1","¿Cuántas teclas tiene
 un piano moderno?","80","88","","0","0","1","competitive","right","2.67440915108","3370.02609396","2.32559084892","3372.50906205","3.44093084335","3375.95005798","2.55906915665","3378.56144094","3379.56993008","3379.64582801","3382.64883995","0","3382.66307092","3389.46086097",""
"sujeto_80f4d7da","1","4","11","107","3389.59809303","direct","4","1","3","¿Cuántos países hay en África?","54","62","","0","0","1","competitive","left","1.8842189312","3391.48236203","3.1157810688","3394.78763795","4.33569908142","3399.12339902","1.66430091858","3400.84024215","3402.530797","3402.60680509","3405.609797","0","3405.62510395","3413.42988205",""
"sujeto_80f4d7da","1","4","12","108","3413.57618403","inverse","1","1","3","¿En qué siglo se crearon
 las primeras pistolas?","XV","XIII","","1","1","1","competitive","right","1.51231694221","3415.08856893","3.48768305779","3418.73416901","4.44934487343","3423.18358111","1.55065512657","3424.78564095","3426.73353791","3426.81961393","3429.82260108","1","3429.83716512","3433.07027006",""
"sujeto_80f4d7da","1","4","13","109","3433.22293806","direct","3","1","4","¿En qué año se estrenó 
la serie friends?","1994","1995","","0","0","1","competitive","left","2.0737631321","3435.29676795","2.9262368679","3438.37600803","3.81967782974","3442.19576812","2.18032217026","3444.428195","3446.30354714","3446.37932205","3449.38232899","0","3449.39701796","3454.40310311",""
"sujeto_80f4d7da","1","4","14","110","3454.54839611","inverse","3","1","4","¿En qué año nació Hitler?","1889","1887","","0","0","1","competitive","right","3.35342812538","3457.90187407","1.64657187462","3459.70480704","2.56214189529","3462.26699114","3.43785810471","3465.75647902","3466.87081599","3466.94096494","3469.94389892","0","3469.95836806","3474.98534513",""
"sujeto_80f4d7da","1","4","15","111","3475.12690711","direct","1","1","4","¿Cuánto pesa un elefante Africano?","6000 kilos","5400 kilos","","0","0","0","competitive","left","1.97514915466","3477.10213399","3.02485084534","3480.29764009","3.47639703751","3483.77409697","2.52360296249","3486.33445096","3487.69037199","3487.76927304","3490.77227211","0","3490.78584814","3497.49294209",""
"sujeto_80f4d7da","1","4","16","112","3497.63766503","inverse","1","1","2","¿Qué porcentaje de 
la población es zurda?","10%","7%","","1","1","0","competitive","left","2.79167294502","3500.42939496","2.20832705498","3502.78966713","3.0595600605","3505.8492651","2.9404399395","3508.84483194","3510.08792901","3510.16323209","3513.16619706","1","3513.18077302","3519.16051602",""
"sujeto_80f4d7da","1","4","17","113","3519.29906702","direct","1","1","2","¿En qué año se estrenó
Volver al futuro?","1984","1985","","0","0","1","competitive","right","1.89039301872","3521.18952394","3.10960698128","3524.48866796","3.90076494217","3528.38946915","2.09923505783","3530.54146814","3532.103302","3532.17545295","3535.17840314","0","3535.19312096","3542.28453398",""
"sujeto_80f4d7da","1","4","18","114","3542.42783999","inverse","3","1","2","¿Cuántos jugadores hay en un 
equipo de baseball?","9","8","","1","1","0","competitive","left","2.60483193398","3545.03277802","2.39516806602","3547.58557391","4.52520704269","3552.11084294","1.47479295731","3553.63667798","3555.2509861","3555.33686113","3558.33985209","1","3558.35436606","3563.33162594",""
"sujeto_80f4d7da","1","4","19","115","3563.47348809","direct","2","1","1","¿Cuántos Oscar ganó
 la película titanic?","13","11","","1","1","1","individual","right","4.08835792542","3567.56189299","0.911642074585","3568.62922907","3.02571320534","3571.65498304","2.97428679466","3574.68025613","3575.982342","3576.0316","3579.03457499","1","3579.0494411","3583.65210509",""
"sujeto_80f4d7da","1","4","20","116","3583.80084705","inverse","4","1","4","¿En qué año comenzó
la segunda guerra mundial?","1939","1976","left","0","0","1","competitive","left","2.80323290825","3586.60417414","2.19676709175","3588.97181106","5.19526815414","3594.16711998","0.804731845856","3595.00864697","3596.80785894","3596.89227509","3599.89521313","1","3599.91008115","3603.89720201",""
"sujeto_80f4d7da","1","4","21","117","3604.04520607","direct","2","1","4","¿Cuántos biomas hay en Uruguay?","5","4","","0","0","1","competitive","left","1.75392794609","3605.79917407","3.24607205391","3609.21707392","4.72816991806","3613.94528294","1.27183008194","3615.25208306","3617.04940796","3617.11995912","3620.12296414","0","3620.13759208","3626.3870151",""
"sujeto_80f4d7da","1","4","22","118","3626.52186894","inverse","2","1","3","¿Cuándo murió Pablo Escobar?","1993","1997","","1","1","1","competitive","right","2.42253804207","3628.94447994","2.57746195793","3631.67959809","4.39488506317","3636.07452202","1.60511493683","3637.71347594","3639.49635005","3639.58142209","3642.58185601","1","3642.59936905","3648.30305195",""
"sujeto_80f4d7da","1","4","23","119","3648.45095706","direct","1","1","4","¿Qué serie ha ganado mas premios?","Friends","Murphy Brown","","1","1","0","competitive","left","2.08272218704","3650.533777","2.91727781296","3653.62243915","3.68033695221","3657.30283999","2.31966304779","3659.65825796","3661.00977206","3661.09328294","3664.09580112","1","3664.11012602","3669.67169905",""
"sujeto_80f4d7da","1","4","24","120","3669.80652714","inverse","4","1","2","¿Cuántas fichas tiene el dominó?","26","28","","1","1","1","competitive","right","2.23040413857","3672.03699803","2.76959586143","3674.96864605","3.69327616692","3678.66198301","2.30672383308","3681.01965714","3682.07497501","3682.15399003","3685.15696692","1","3685.17134809","3690.41442013",""
"sujeto_80f4d7da","1","4","25","121","3690.5756321","direct","2","1","4","¿Cuántos son los dientes de leche?","20","25","","0","0","1","competitive","right","1.81343007088","3692.38912606","3.18656992912","3695.74620104","4.17691588402","3699.92318511","1.82308411598","3701.78026414","3703.49064708","3703.56476998","3706.56777191","0","3706.582412","3708.72807407",""
"sujeto_80f4d7da","1","4","26","122","3708.86736202","inverse","3","1","3","¿Cuántos gramos son una onza?","22","28","","0","0","1","competitive","left","2.89187383652","3711.75927997","2.10812616348","3714.02077699","4.45742702484","3718.47824192","1.54257297516","3720.07385302","3722.06870914","3722.14167595","3725.14465904","0","3725.15921998","3731.44943213",""
"sujeto_80f4d7da","1","4","27","123","3731.59198594","direct","3","1","1","¿Cuándo salió el primer album
 de los Beatles?","1963","1962","","1","1","1","individual","right","3.69046998024","3735.28252006","1.30953001976","3736.73415494","2.92836403847","3739.66255903","3.07163596153","3742.78471303","3743.94833708","3743.98688793","3746.98985696","1","3747.00418711","3750.776232",""
"sujeto_80f4d7da","1","4","28","124","3750.93858409","inverse","3","1","3","¿Quién fundó la empresa apple?","Carlos Slim","Steve Jobs","","1","1","1","competitive","right","3.17005515099","3754.10872602","1.82994484901","3756.10906911","3.23856806755","3759.34767699","2.76143193245","3762.16082406","3763.27551913","3763.36297512","3766.36595392","1","3766.3796401","3772.67752695",""
"sujeto_80f4d7da","1","4","29","125","3772.847435","direct","4","1","2","¿Cuántos municipios hay
 en Montevideo?","8","7","","1","1","1","competitive","left","2.53639483452","3775.38387394","2.46360516548","3778.00576591","2.92202401161","3780.92783093","3.07797598839","3784.05629396","3785.97107697","3786.05699301","3789.05997705","1","3789.07373905","3791.15483999",""
"sujeto_80f4d7da","1","4","30","126","3791.30845809","inverse","1","1","1","¿Cuántos kilómetros hay
 de Montevideo a Artigas?","632","599","","0","0","0","competitive","left","3.08856606483","3794.39706993","1.91143393517","3796.46482301","4.27816581726","3800.74304509","1.72183418274","3802.50015306","3803.98330498","3804.06813908","3807.07112408","0","3807.08551002","3813.13764",""
"sujeto_80f4d7da","1","4","31","127","3813.28662992","direct","2","1","2","¿En qué año nació 
Leonardo Da Vinci?","1452","1511","","1","1","0","competitive","right","4.31361317635","3817.60030794","0.686386823654","3818.4587121","4.29457092285","3822.75332713","1.70542907715","3824.49486399","3826.34848905","3826.42899299","3829.43196702","1","3829.44727111","3832.59369993",""
"sujeto_80f4d7da","1","4","32","128","3832.74918294","inverse","3","1","1","¿A qué continente
 pertenece el país Gabón?","Africa","Oceanía","","0","0","1","competitive","right","4.51924705505","3837.26849413","0.480752944946","3837.90372801","5.43467283249","3843.33844209","0.565327167511","3843.95365691","3845.76526999","3845.83744311","3848.84038901","0","3848.85513091","3854.09305811",""
