"code","nro_aplicante","nro_bloque","nro_trial_bloque","nro_trial_global","show_game_type","choice_order","rival","pay_individual","pay_competitive","question","answer_left_text","answer_right_text","correct_answer","outcome_individual","outcome_competitive","outcome_rival","game_type","answer","social_time","rt_game_type","feedback_delay","show_question","answer_time","rt_answer_global","feedback_delay_2","show_jitter","jitter_time","show_outcome","outcome_time","outcome_participant_real","show_final_jitter","second_jitter_time","inicio_descanso"
"sujeto_0006562","1","1","1","1","886.000211954","direct","3","1","4","¿Cuántos centímetros corresponden
al talle 36 del calzado?","23","24","","0","0","1","competitive","right","2.25729107857","888.257565975","2.74270892143","891.154682875","3.24591088295","894.400641918","2.75408911705","897.188382864","898.216675997","898.289618015","901.292590857","0","901.306760788","903.469297886",""
"sujeto_0006562","1","1","2","2","903.608836889","inverse","3","1","2","¿Cuántas metros mide la Intendencia
Municipal de Montevideo? ","84","78","","0","0","1","competitive","left","2.49068689346","906.099600792","2.50931310654","908.795841932","0.0606729984283","908.856554985","5.93932700157","914.848015785","916.726004839","916.799349785","919.802351952","0","919.816390991","921.909142971",""
"sujeto_0006562","1","1","3","3","922.051234961","direct","1","1","3","¿Cuántas La Pasiva
 hay en uruguay?","15","11","","1","1","1","competitive","right","1.58130097389","923.632605791","3.41869902611","927.207019806","3.97052598","931.177609921","2.02947402","933.258069992","934.869714975","934.942514896","937.945456982","1","937.959264994","942.237634897",""
"sujeto_0006562","1","1","4","4","942.378113985","inverse","3","1","3","¿De que color es la camiseta de uruguay?","blanca","celeste","right","1","1","1","competitive","right","1.40842604637","943.786609888","3.59157395363","947.532984018","3.28255701065","950.815611839","2.71744298935","953.584371805","954.789120913","954.869021893","957.871989012","1","957.88597393","961.339896917",""
"sujeto_0006562","1","1","5","5","961.471247911","direct","2","1","1","¿Cuánto metros mide
la torre Eiffel?","333","324","","1","1","1","competitive","right","1.11632299423","962.587615967","3.88367700577","966.626884937","3.38567209244","970.012598991","2.61432790756","972.677109957","974.198477983","974.278596878","977.281586885","1","977.295730829","984.331403971",""
"sujeto_0006562","1","1","6","6","984.497728825","inverse","3","1","4","¿Cuantas ciudades existen
 en todo el uruguay?","63","72","","0","0","1","competitive","left","2.21186494827","986.709702015","2.78813505173","989.672590971","2.5239341259","992.196588993","3.4760658741","995.722697973","996.777493","996.857710838","999.860692978","0","999.874837875","1007.50137687",""
"sujeto_0006562","1","1","7","7","1007.64293599","direct","1","1","1","¿Cuantos estados tiene África?","52","54","","1","1","0","competitive","right","1.50660014153","1009.14961386","3.49339985847","1012.78403282","3.4824950695","1016.26659083","2.5175049305","1018.83488393","1020.69890285","1020.76937795","1023.77234697","1","1023.78734684","1029.54834485",""
"sujeto_0006562","1","1","8","8","1029.68858981","inverse","4","1","4","¿En qué año nació
 Stephen Hawking?","1952","1942","","0","0","1","competitive","right","0.850992918015","1030.53962684","4.14900708199","1034.8448348","4.81171894073","1039.65659881","1.18828105927","1040.87986779","1042.32416201","1042.39702392","1045.39999199","0","1045.41492987","1051.51426792",""
"sujeto_0006562","1","1","9","9","1051.65310383","direct","2","1","3","¿Cuánto años tenía Artigas
 cuando se fue a Paraguay?","56","57","","1","1","1","competitive","right","1.18848204613","1052.84165883","3.81151795387","1056.78766394","5.50188112259","1062.28958583","0.498118877411","1062.84104586","1064.39057398","1064.47378492","1067.47677493","1","1067.49102497","1073.53833079",""
"sujeto_0006562","1","1","10","10","1073.67606688","inverse","1","1","2","¿Cuantos milímetros 
mide una hoja A2?","420x592","420x594","","0","0","1","competitive","right","1.29452896118","1074.97066379","3.70547103882","1078.81788588","3.81862592697","1082.63657188","2.18137407303","1084.86861396","1086.43704391","1086.52005887","1089.523036","0","1089.5372808","1096.6109159",""
"sujeto_0006562","1","1","11","11","1096.75583887","direct","3","1","3","¿Cuál es la menor temperatura 
registrada en Uruguay?","-5.4","-7.4","","0","0","1","competitive","right","0.761708974838","1097.5176158","4.23829102516","1101.93029594","4.98820710182","1106.91854382","1.01179289818","1107.98095894","1109.66300988","1109.74912","1112.751405","0","1112.76654482","1116.49984097",""
"sujeto_0006562","1","1","12","12","1116.6516428","inverse","2","1","2","¿Cuantos años hace que 
se fundó facebook?","18","17","","0","0","0","competitive","right","2.0099170208","1118.66160488","2.9900829792","1121.80749297","3.55205011368","1125.35961199","2.44794988632","1127.85741687","1129.23012996","1129.30874681","1132.31173587","0","1132.32669497","1135.10134292",""
"sujeto_0006562","1","1","13","13","1135.22838402","direct","1","1","4","¿Cuál animal es más
 pesado en promedio?","Rinoceronte","Hipopotamo","","0","0","0","competitive","right","1.18516898155","1136.413625","3.81483101845","1140.42952085","4.72106599808","1145.15065193","1.27893400192","1146.48292994","1147.56217098","1147.63367295","1150.63540983","0","1150.6505518","1154.49154782",""
"sujeto_0006562","1","1","14","14","1154.63512087","inverse","1","1","2","¿Qué personaje de dragon ball 
murió más veces?","Chaoz","Krillin","","1","1","0","competitive","left","0.994453907013","1155.62961984","4.00554609299","1159.81013298","3.96144318581","1163.77161789","2.03855681419","1165.84431195","1167.30214691","1167.378685","1170.38168502","1","1170.39585996","1178.16878986",""
"sujeto_0006562","1","1","15","15","1178.31354189","direct","3","1","2","La universidad de oxford. 
existe desde:","1096","1249","","1","1","0","competitive","left","0.631999015808","1178.94558597","4.36800098419","1183.4717958","4.85678195953","1188.32861996","1.14321804047","1189.50668383","1190.55544591","1190.62354183","1193.62651396","1","1193.64055085","1200.3313818",""
"sujeto_0006562","1","1","16","16","1200.48919797","inverse","3","1","1","¿Qué escritor latino ganó antes
 el premio nobel?"," García Marquez","Neruda","","0","0","1","competitive","right","0.668359994888","1201.15762687","4.33164000511","1205.66659284","3.57197809219","1209.2386148","2.42802190781","1211.71822882","1213.45818686","1213.53583002","1216.53880501","0","1216.55291581","1220.01141",""
"sujeto_0006562","1","1","17","17","1220.15472698","direct","4","1","3","¿Cuántos dientes tiene un
 tiburón blanco?","6000","3000","","0","0","1","competitive","right","1.08987808228","1221.24471784","3.91012191772","1225.34010983","4.131472826","1229.47164583","1.868527174","1231.37645388","1232.41545081","1232.49342799","1235.49541187","0","1235.51047993","1240.32015681",""
"sujeto_0006562","1","1","18","18","1240.46240187","inverse","4","1","1","¿Cuánto mide el paralelo Ecuador?","40.000km","70.000km","","0","0","1","competitive","right","1.27619385719","1241.73866391","3.72380614281","1245.62066483","3.61488294601","1249.23560882","2.38511705399","1251.671103","1253.62723088","1253.70620894","1256.70918584","0","1256.7233839","1260.32340693",""
"sujeto_0006562","1","1","19","19","1260.47515988","direct","4","1","2","¿Cuál fue el primer libro 
de Stephen King?","Carrie","The Stand","","1","1","1","competitive","left","0.967462778091","1261.44270301","4.03253722191","1265.64705801","2.65848112106","1268.30560684","3.34151887894","1271.69765091","1273.44175196","1273.51613379","1276.51911402","1","1276.53422689","1281.00867486",""
"sujeto_0006562","1","1","20","20","1281.15155983","inverse","2","1","3","¿Qué civilización practicaba
 la momificación?","Grecia","Egipto","right","0","0","1","competitive","left","0.968045949936","1282.11967802","4.03195405006","1286.30524802","5.8773059845","1292.18262196","0.122694015503","1292.34192681","1294.28120685","1294.35864782","1297.36162686","0","1297.37673593","1301.60550594",""
"sujeto_0006562","1","1","21","21","1301.74466681","direct","4","1","4","¿Cuántos millones de visitas
 recibe google por minuto?","3.0","4.5","","0","0","1","competitive","right","1.11691308022","1302.86162782","3.88308691978","1306.90241098","3.32816314697","1310.23064184","2.67183685303","1312.93646479","1314.45134902","1314.5378089","1317.54079795","0","1317.55492997","1324.67070699",""
"sujeto_0006562","1","1","22","22","1324.80646682","inverse","1","1","3","La máquina de fax. se inventó en:","1843","1960","","0","0","1","competitive","right","0.681169033051","1325.48768902","4.31883096695","1329.96421289","4.18438100815","1334.1486938","1.81561899185","1336.01467586","1337.25677991","1337.33229685","1340.33531785","0","1340.34936595","1343.5856638",""
"sujeto_0006562","1","1","23","23","1343.71805","direct","2","1","4","En la verdadera historia de los
 300 espartanos. habían:","300 soldados","4300 soldados","","1","1","1","competitive","","1.0265891552","1344.74468493","3.9734108448","1348.87303901","6","1354.87315488","0","1354.88950896","1356.1507318","1356.22559094","1359.22856498","0","1359.24250197","1363.04424095",""
"sujeto_0006562","1","1","24","24","1363.19395089","inverse","1","1","4","¿Cuántos milímetros crece
 el pelo por día?","0.4","0.04","","0","0","0","competitive","left","0.987625837326","1364.1816299","4.01237416267","1368.36388588","2.57868289948","1370.94263291","3.42131710052","1374.39947891","1376.16020584","1376.23470592","1379.23768592","0","1379.25200701","1385.98709989",""
"sujeto_0006562","1","1","25","25","1386.12055779","direct","4","1","1","¿Cuánto mide la baldosa gris 
clásica de Montevideo?","22x22 cm.","20x20 cm.","","1","1","1","competitive","right","0.827013015747","1386.94764996","4.17298698425","1391.27848697","4.854170084","1396.13269997","1.145829916","1397.329844","1399.32510996","1399.39754295","1402.40050793","1","1402.41454983","1407.95736384",""
"sujeto_0006562","1","1","26","26","1408.08349895","inverse","2","1","2","¿Cuántas películas de rápidos
 y furiosos hay?","10","11","","1","1","0","competitive","left","1.50313591957","1409.58670402","3.49686408043","1413.22398591","2.34362387657","1415.56767082","3.65637612343","1419.25703979","1420.61504698","1420.69184184","1423.69482589","1","1423.70891786","1425.74359584",""
"sujeto_0006562","1","1","27","27","1425.89454985","direct","3","1","1","¿Cuántos masters 1000
 ganó Del Potro?","1","2","","1","1","1","competitive","right","1.054074049","1426.94867396","3.945925951","1431.04931998","4.44125699997","1435.4906199","1.55874300003","1437.08430099","1438.83891988","1438.9183569","1441.91940498","1","1441.93546081","1449.33181286",""
"sujeto_0006562","1","1","28","28","1449.48636889","inverse","2","1","4","¿Cuántos meses dura el 
embarazo de una leona?","3 meses","4 meses","","0","0","1","competitive","right","0.863245010376","1450.34967995","4.13675498962","1454.65807199","4.20048713684","1458.8586278","1.79951286316","1460.71070385","1461.82175493","1461.89557099","1464.89853597","0","1464.91266489","1471.63514996",""
"sujeto_0006562","1","1","29","29","1471.76385093","direct","1","1","1","¿En qué año fue creado
 el sandwich?","1762","1653","","1","1","0","competitive","left","1.3417289257","1473.10563087","3.6582710743","1476.92263079","3.1949338913","1480.11760592","2.8050661087","1482.95711493","1484.55567479","1484.62458181","1487.62754393","1","1487.64271498","1491.11335301",""
"sujeto_0006562","1","1","30","30","1491.260849","inverse","4","1","2","El nombre de la moneda de Vietnam es:","Dinar","Dong","","0","0","1","competitive","left","0.960763931274","1492.22168088","4.03923606873","1496.41588879","5.11868309975","1501.53461194","0.881316900253","1502.46748996","1503.89946699","1503.98477602","1506.98775887","0","1507.00193596","1513.17036986",""
"sujeto_0006562","1","1","31","31","1513.30378199","direct","2","1","1","¿cuantos aleteos puede dar 
un colibrí por segundo?","120","50","","0","0","0","competitive","left","0.870834112167","1514.17469382","4.12916588783","1518.46081185","4.47673606873","1522.93761396","1.52326393127","1524.49492693","1526.22733283","1526.29639292","1529.29937196","0","1529.31329799","1533.52557182",""
"sujeto_0006562","1","1","32","32","1533.69809389","inverse","4","1","3","¿Qué altura promedio tienen
 los hombres uruguayos?","1.73 m","1.72 m","","1","1","1","competitive","right","0.818488836288","1534.51662898","4.18151116371","1538.86847186","3.95210695267","1542.8206408","2.04789304733","1544.92090487","1546.18336582","1546.25530386","1549.25829983","1","1549.27248287","1553.74741697",""
"sujeto_0006562","1","2","1","33","1675.07403994","direct","1","1","1","¿En qué año nació 
el actor Bradd Pitt?","1967","1963","","1","1","1","competitive","left","1.12353205681","1676.1976409","3.87646794319","1680.24108291","4.84039187431","1685.08151102","1.15960812569","1686.27741981","1687.37324286","1687.44458079","1690.44749999","1","1690.46172595","1696.38742685","1553.76214981"
"sujeto_0006562","1","2","2","34","1696.53029394","inverse","2","1","1","¿Cual es el segundo 
monte más alto?","Kanchenjunga","K2","","1","1","1","competitive","right","1.16824817657","1697.69860601","3.83175182343","1701.6880188","4.02157211304","1705.70963001","1.97842788696","1707.7390728","1709.19141102","1709.27329588","1712.27628899","1","1712.29145288","1715.71940184",""
"sujeto_0006562","1","2","3","35","1715.85924888","direct","3","1","1","¿Cuándo finalizó la construcción
 del Palacio Legislativo?","1925","1917","","0","0","1","competitive","left","0.90836596489","1716.76765895","4.09163403511","1721.03114891","4.47346591949","1725.50467587","1.52653408051","1727.0827899","1728.72338295","1728.80018997","1731.80317187","0","1731.818326","1737.51538992",""
"sujeto_0006562","1","2","4","36","1737.67021489","inverse","3","1","3","¿Cuántos integrantes tenía
 en su inicio  el cuarteto de nos?","3","4","","1","1","1","competitive","left","1.68440580368","1739.35468698","3.31559419632","1742.82487583","3.66566491127","1746.49058485","2.33433508873","1748.87718487","1750.01027489","1750.07789397","1753.080863","1","1753.09499979","1758.74480891",""
"sujeto_0006562","1","2","5","37","1758.8796978","direct","2","1","3","¿Qué valor tiene el número pi?","3.14","4.18","left","0","0","1","competitive","left","0.931938171387","1759.81170487","4.06806182861","1764.05322599","4.15929412842","1768.21255779","1.84070587158","1770.08806896","1771.54228187","1771.62311482","1774.62608981","1","1774.64010882","1781.56109381",""
"sujeto_0006562","1","2","6","38","1781.6913588","inverse","2","1","2","¿Cuál es la esperanza de vida
 en Uruguay?","75","77","","1","1","0","competitive","left","0.759181022644","1782.45060301","4.24081897736","1786.86575079","0.377815008163","1787.24362588","5.62218499184","1792.9148798","1794.56869483","1794.65131998","1797.65428686","1","1797.66853094","1804.13153696",""
"sujeto_0006562","1","2","7","39","1804.28642702","direct","1","1","2","¿Cuantos pisos tiene la torre 
de las comunicaciones?","26","32","","1","1","0","competitive","right","0.848176002502","1805.13470793","4.1518239975","1809.46029902","4.71329808235","1814.17365789","1.28670191765","1815.49559283","1817.324368","1817.39643979","1820.39940286","1","1820.4133749","1822.5595119",""
"sujeto_0006562","1","2","8","40","1822.71538281","inverse","2","1","4","¿En qué país sudamericano 
no hay McDonalds?","Bolivia","Venezuela","","0","0","1","competitive","right","0.75922203064","1823.47465181","4.24077796936","1827.86974502","3.40583610535","1831.2756238","2.59416389465","1833.920403","1835.22974801","1835.30504298","1838.30800891","0","1838.32311988","1844.67939687",""
"sujeto_0006562","1","2","9","41","1844.84143901","direct","3","1","1","¿En qué año empieza
 la Edad Media?","476","512","","1","1","1","competitive","left","0.844148159027","1845.68565798","4.15585184097","1849.99531484","4.20230507851","1854.19765997","1.79769492149","1856.04717278","1857.45093989","1857.53207302","1860.53506398","1","1860.54903793","1863.53755283",""
"sujeto_0006562","1","2","10","42","1863.6846838","inverse","3","1","4","¿Hace cuántos años surgió
 el ser humano?","200mil","300mil","","0","0","0","competitive","left","0.662346124649","1864.34710979","4.33765387535","1868.84091687","4.06166291237","1872.90263891","1.93833708763","1874.87588596","1876.76188397","1876.84349585","1879.84641981","0","1879.86107087","1883.17148781",""
"sujeto_0006562","1","2","11","43","1883.31274581","direct","3","1","4","¿Cuántas cuadras tiene
 actualmente 18 de julio? ","36","33","","0","0","1","competitive","left","1.06493592262","1884.37778997","3.93506407738","1888.46790981","3.00668907166","1891.4746449","2.99331092834","1894.51838493","1896.22062492","1896.30407","1899.30704784","0","1899.3209908","1904.04728794",""
"sujeto_0006562","1","2","12","44","1904.18899798","inverse","1","1","4","¿Qué juego de equipo se 
considera mas rápido?","Lacrosse","Badminton","","0","0","0","competitive","right","0.956650972366","1905.14572287","4.04334902763","1909.34203482","4.98853993416","1914.33063698","1.01146006584","1915.39594579","1916.63905597","1916.71272302","1919.71541786","0","1919.72956181","1927.72471499",""
"sujeto_0006562","1","2","13","45","1927.86452699","direct","1","1","3","¿Qué promedio de edad 
vive una jirafa? ","25","20","","0","0","1","competitive","left","0.782114028931","1928.64671588","4.21788597107","1933.02098584","3.24664998055","1936.26767683","2.75335001945","1939.05612779","1940.81764293","1940.89154983","1943.89450693","0","1943.90868282","1949.86440492",""
"sujeto_0006562","1","2","14","46","1950.01070094","inverse","1","1","2","¿Cuántos grandes lagos hay?","7","5","","0","0","1","competitive","right","0.660934209824","1950.67170095","4.33906579018","1955.16912198","3.08045911789","1958.24961782","2.91954088211","1961.20283079","1962.49498796","1962.57128191","1965.57428598","0","1965.58845782","1973.40983582",""
"sujeto_0006562","1","2","15","47","1973.55643201","direct","3","1","2","¿Cuántos discos de estudio
 grabó Johhny Cash? ","54","43","","1","1","0","competitive","right","0.829232931137","1974.38571191","4.17076706886","1978.7312808","2.48034405708","1981.21166396","3.51965594292","1984.7647109","1986.0433948","1986.1166048","1989.11956692","1","1989.13377595","1995.7846849",""
"sujeto_0006562","1","2","16","48","1995.93534589","inverse","4","1","1","¿Cuántos barrios tiene
 Montevideo? ","71","62","","0","0","1","competitive","left","0.977293968201","1996.91268587","4.0227060318","2001.09205198","1.56648397446","2002.65857482","4.43351602554","2007.14190388","2008.148947","2008.22762489","2011.23056197","0","2011.24449682","2016.70345187",""
"sujeto_0006562","1","2","17","49","2016.84657788","direct","3","1","3","¿Qué edad tiene Homero Simpson?","36","42","","0","0","1","competitive","right","0.877144813538","2017.72381496","4.12285518646","2022.00078082","2.70579910278","2024.70661998","3.29420089722","2028.05230379","2029.42743683","2029.50355983","2032.50650883","0","2032.52170801","2036.91045189",""
"sujeto_0006562","1","2","18","50","2037.05654502","inverse","4","1","2","¿Cuántos países con monarquía 
hay en europa actualmente? ","6","10","","1","1","1","competitive","left","1.28906202316","2038.345649","3.71093797684","2042.21359491","4.55901217461","2046.77264786","1.44098782539","2048.24832582","2049.68664289","2049.76607084","2052.7690649","1","2052.78320885","2058.94002581",""
"sujeto_0006562","1","2","19","51","2059.08444595","direct","2","1","3","¿Cuántos capítulos de
 Friends existen? ","236","228","","1","1","1","competitive","right","0.766247987747","2059.85074687","4.23375201225","2064.24126387","2.27639293671","2066.51771879","3.72360706329","2070.29179597","2071.59737587","2071.67651796","2074.67942786","1","2074.69360495","2077.06767392",""
"sujeto_0006562","1","2","20","52","2077.21279788","inverse","1","1","3","¿Cuántas óperas compuso Mozart? ","27","22","","1","1","1","competitive","right","0.783830881119","2077.99667883","4.21616911888","2082.38269186","3.28787183762","2085.67062283","2.71212816238","2088.43459487","2089.72672796","2089.80238891","2092.80537796","1","2092.82029581","2100.13144088",""
"sujeto_0006562","1","2","21","53","2100.28759599","direct","4","1","3","¿Cuántos mundiales de fútbol 
femenino ha realizado FIFA? ","9","7","","1","1","1","competitive","right","0.701066970825","2100.98870897","4.29893302917","2105.44306302","3.7535700798","2109.19667196","2.2464299202","2111.49572587","2112.739434","2112.81352687","2115.81648397","1","2115.83064079","2121.93311882",""
"sujeto_0006562","1","2","22","54","2122.09920597","inverse","3","1","2","¿Cuál es la temperatura 
media anual en Montevideo? ","17.5","16.3","","0","0","1","competitive","right","0.713449001312","2122.81273293","4.28655099869","2127.25773501","3.28080296516","2130.53859591","2.71919703484","2133.30809188","2135.24667001","2135.32671595","2138.32969594","0","2138.34391284","2144.91143894",""
"sujeto_0006562","1","2","23","55","2145.04558086","direct","2","1","2","¿En qué año se estrenó el
 videojuego The Sims? ","2000","2002","","0","0","0","competitive","left","0.746043920517","2145.79169202","4.25395607948","2150.2024169","4.92311000824","2155.12558985","1.07688999176","2156.23716187","2158.0991838","2158.17069387","2161.17366385","0","2161.18897486","2168.58263493",""
"sujeto_0006562","1","2","24","56","2168.75643492","inverse","2","1","1","¿Cuál es la canción con 
mas covers? ","Yesterday","Stand by me","","0","0","0","individual","right","0.674209833145","2169.43071389","4.32579016685","2173.93080497","3.4648001194","2177.39565086","2.5351998806","2179.98257589","2181.38111591","2181.41707087","2184.42002392","0","2184.43411493","2188.60494685",""
"sujeto_0006562","1","2","25","57","2188.7519269","direct","1","1","4","¿Cuánto duró la guerra
 de los 100 años?","116","123","","0","0","0","individual","right","0.626741886139","2189.37877297","4.37325811386","2193.9065218","0.138113021851","2194.0446949","5.86188697815","2199.95699","2201.43783498","2201.47658992","2204.47953391","0","2204.49390888","2206.8136909",""
"sujeto_0006562","1","2","26","58","2206.97887993","inverse","4","1","4","¿Qué color tiene la  bandera de Brasil?","Amarillo","Naranja","left","0","0","1","competitive","left","0.942854881287","2207.92178583","4.05714511871","2212.1339159","5.06268596649","2217.19666386","0.937314033508","2218.16940689","2219.73544788","2219.81952691","2222.82248878","1","2222.83673","2225.86949682",""
"sujeto_0006562","1","2","27","59","2226.02241397","direct","4","1","3","¿Qué carabela de 
Colon no volvió del viaje?","Santa María","La pinta","","0","0","1","competitive","left","1.40710902214","2227.42955899","3.59289097786","2231.19465089","4.24591088295","2235.44062781","1.75408911705","2237.24572992","2238.73676491","2238.8131938","2241.81617785","0","2241.83016992","2243.92962885",""
"sujeto_0006562","1","2","28","60","2244.06581187","inverse","4","1","4","¿Cuántos huesos tiene
 un adulto humano?","217","206","","0","0","1","competitive","left","1.09182286263","2245.15773797","3.90817713737","2249.23438787","2.98922991753","2252.22367787","3.01077008247","2255.28683281","2256.55787802","2256.63819289","2259.64117384","0","2259.65509987","2267.49145198",""
"sujeto_0006562","1","2","29","61","2267.64051795","direct","1","1","1","¿Qué país africano fue 
fundado por esclavos?","Liberia","Chad","","0","0","0","competitive","left","0.939162015915","2268.57974696","4.06083798409","2272.79894495","4.12465906143","2276.92364502","1.87534093857","2278.833673","2280.82533288","2280.90074301","2283.90372491","0","2283.91889501","2291.9097178",""
"sujeto_0006562","1","2","30","62","2292.05375195","inverse","4","1","2","¿A cuánto asciende la cima
 del monte Everest?","7.990 mts","8.848 mts","","0","0","1","competitive","left","0.799866199493","2292.85368991","4.20013380051","2297.22800088","4.0176179409","2301.24565887","1.9823820591","2303.27921987","2304.46406388","2304.54680586","2307.54979801","0","2307.56402397","2314.74743795",""
"sujeto_0006562","1","2","31","63","2314.89946699","direct","4","1","1","¿Cuál es el país mas chico?","Sealand","Luxemburgo","","1","1","1","competitive","right","0.743181943893","2315.6426928","4.25681805611","2320.05636001","2.26832509041","2322.32474589","3.73167490959","2326.10701799","2327.97051382","2328.05876398","2331.06175089","1","2331.07616496","2334.19844699",""
"sujeto_0006562","1","2","32","64","2334.32831883","inverse","2","1","4","¿Cuántas pirámides hay en Egipto?","10000","11000","","1","1","1","competitive","","0.664340019226","2334.99270487","4.33565998077","2339.48380995","6","2345.48394179","0","2345.4982698","2346.53187299","2346.60249591","2349.60546279","0","2349.61934185","2354.72842598",""
"sujeto_0006562","1","3","1","65","2461.74005294","direct","2","1","2","¿Cuál es el quinto país con 
mas extensión?","Canadá","Brasil","","1","1","0","competitive","right","0.817594051361","2462.55771995","4.18240594864","2466.89908195","4.20762515068","2471.1067698","1.79237484932","2472.93325782","2474.2665298","2474.35069895","2477.35369682","1","2477.36846185","2485.09484482","2354.74344182"
"sujeto_0006562","1","3","2","66","2485.23613882","inverse","1","1","2","¿Qué rasgo facial no tiene
 la Mona Lisa?","Cejas","Pómulos","","0","0","1","competitive","right","1.25754094124","2486.49372792","3.74245905876","2490.39386797","3.56282901764","2493.95674396","2.43717098236","2496.44475794","2498.19517589","2498.2793889","2501.28237891","0","2501.29707885","2507.56842279",""
"sujeto_0006562","1","3","3","67","2507.715523","direct","4","1","3","¿Cuál es el país con 
mayor población?","Esados Unidos","China","right","0","0","1","competitive","left","0.560132980347","2508.27572393","4.43986701965","2512.87196779","2.32574796677","2515.19775796","3.67425203323","2518.92305589","2520.56907082","2520.65772796","2523.65943193","0","2523.67546201","2527.04278779",""
"sujeto_0006562","1","3","4","68","2527.17636299","inverse","1","1","1","La palabra dinosaurio significa","Lagarto Terrible","Lagarto Dragón","","1","1","0","individual","left","1.12030410767","2528.29674697","3.87969589233","2532.33051896","0.133182048798","2532.46376801","5.8668179512","2538.38077092","2539.55110979","2539.600667","2542.60343099","1","2542.61738586","2545.47918296",""
"sujeto_0006562","1","3","5","69","2545.63563085","direct","2","1","3","¿Qué es el membrillero?","Arbol","Arbusto","","0","0","0","competitive","right","1.06308984756","2546.6988008","3.93691015244","2550.79240799","3.98223900795","2554.77468491","2.01776099205","2556.84265089","2558.79547095","2558.87697196","2561.8794558","0","2561.89463592","2568.35548592",""
"sujeto_0006562","1","3","6","70","2568.49609399","inverse","3","1","3","¿Alrededor de qué planeta orbita 
el satélite Europa?","Jupiter","Saturno","","1","1","1","competitive","left","1.15659499168","2569.65273499","3.84340500832","2573.65366602","1.04693102837","2574.70065379","4.95306897163","2579.70265889","2581.24741483","2581.32290983","2584.32589293","1","2584.34034085","2586.54551101",""
"sujeto_0006562","1","3","7","71","2586.6747508","direct","3","1","1","¿Donde fue el mundial de 
fútbol de 1954?","Suiza","Suecia","","1","1","1","competitive","right","1.14292097092","2587.81777501","3.85707902908","2591.84699297","3.18461608887","2595.03167295","2.81538391113","2597.89739299","2599.15000987","2599.23140693","2602.23440385","1","2602.2493608","2606.16114593",""
"sujeto_0006562","1","3","8","72","2606.30039096","inverse","1","1","4","¿Cuál de los 7 enanitos
no tenía barba?","Bashful","Mudito","","1","1","0","competitive","right","0.999245166779","2607.29970384","4.00075483322","2611.47365785","3.81998705864","2615.29371285","2.18001294136","2617.52401781","2619.10416079","2619.17557383","2622.17851281","1","2622.19271088","2627.121804",""
"sujeto_0006562","1","3","9","73","2627.29415798","direct","3","1","2","¿Cual red social es
mas utilizada mundialmente?","Instagram","Facebook","","1","1","0","competitive","right","0.829509973526","2628.12374687","4.17049002647","2632.45089889","2.5017721653","2634.95272994","3.4982278347","2638.50092101","2640.41829991","2640.50289202","2643.50586891","1","2643.52009702","2646.45457602",""
"sujeto_0006562","1","3","10","74","2646.60561681","inverse","4","1","1","¿Cuándo se inició la copa
 América de fútbol?","1916","1923","","1","1","1","competitive","left","0.767035961151","2647.37270594","4.23296403885","2651.76106381","2.25357890129","2654.01468301","3.74642109871","2657.81050897","2659.70797682","2659.77957487","2662.7825079","1","2662.79737687","2665.45348096",""
"sujeto_0006562","1","3","11","75","2665.6157608","direct","3","1","4","¿Cuántos presidentes de EEUU
han muerto asesinados?","3","4","","0","0","1","competitive","right","0.778963088989","2666.39477086","4.22103691101","2670.76771879","3.56093502045","2674.32872581","2.43906497955","2676.80275202","2678.28667092","2678.37149096","2681.37447596","0","2681.38864994","2685.0327599",""
"sujeto_0006562","1","3","12","76","2685.17303896","inverse","2","1","4","¿Cuántas veces participó EEUU
 en la copa América?","4","5","","0","0","1","competitive","left","0.754671096802","2685.92781687","4.2453289032","2690.36413598","3.49457907677","2693.85877299","2.50542092323","2696.39720082","2697.84128094","2697.91578388","2700.91876888","0","2700.93289495","2707.05007291",""
"sujeto_0006562","1","3","13","77","2707.18448997","direct","4","1","1","¿Cuál de estos países 
no formaba la URSS?","Azeribayán","Afganistán","","0","0","1","competitive","right","0.889222145081","2708.07379079","4.11077785492","2712.35871696","3.35397195816","2715.71275687","2.64602804184","2718.40921402","2719.72219086","2719.79425502","2722.79724884","0","2722.81139278","2730.79352188",""
"sujeto_0006562","1","3","14","78","2730.928828","inverse","1","1","1","¿En qué año se inauguró
 el teatro Solís?","1867","1856","","0","0","0","individual","right","1.05482697487","2731.98372984","3.94517302513","2736.08761692","3.15499901772","2739.24267292","2.84500098228","2742.13842988","2743.19475579","2743.23986197","2746.24283981","0","2746.25686979","2752.90464401",""
"sujeto_0006562","1","3","15","79","2753.04125094","direct","1","1","4","¿A qué velocidad vuela 
el avión más rápido?","3529","3874","","0","0","0","competitive","right","0.730494022369","2753.77178979","4.26950597763","2758.19614196","3.77650213242","2761.97270393","2.22349786758","2764.23127794","2765.98681998","2766.06608081","2769.06908083","0","2769.08332896","2771.19356585",""
"sujeto_0006562","1","3","16","80","2771.31890893","inverse","3","1","4","¿De qué año es la primer 
película cinematográfica?","1897","1888","","0","0","0","competitive","left","0.838775157928","2772.15772581","4.16122484207","2776.47496986","3.56168198586","2780.03669095","2.43831801414","2782.50892496","2783.64188099","2783.72736096","2786.73026586","0","2786.74368691","2792.15145588",""
"sujeto_0006562","1","3","17","81","2792.295748","direct","2","1","3","¿Cuántos países 
tiene nuestro planeta?","191","194","","1","1","1","competitive","right","0.718955039978","2793.01477981","4.28104496002","2797.45201898","3.48768401146","2800.93974185","2.51231598854","2803.5029068","2804.859447","2804.93788099","2807.94086599","1","2807.95480394","2811.19310784",""
"sujeto_0006562","1","3","18","82","2811.3564198","inverse","2","1","2","¿Cuántos habitantes
 tiene Buenos Aires?","2.9000.000","3650000","","0","0","0","competitive","left","1.136302948","2812.49282289","3.863697052","2816.52630401","1.02735304832","2817.55369687","4.97264695168","2822.5776","2823.97486591","2824.04645991","2827.04945183","0","2827.06331587","2832.89270687",""
"sujeto_0006562","1","3","19","83","2833.06527901","direct","2","1","1","¿Cuántos kilos forman una tonelada?","1000","1500","left","1","1","1","competitive","right","0.699460029602","2833.76480699","4.3005399704","2838.22284985","4.27785992622","2842.50075293","1.72214007378","2844.25760698","2846.14496088","2846.22523594","2849.22822285","0","2849.24244595","2855.19986987",""
"sujeto_0006562","1","3","20","84","2855.34457588","inverse","4","1","4","¿Cuántos estados tiene la 
República del Perú? ","24","23","","0","0","1","competitive","right","1.33904290199","2856.68367791","3.66095709801","2860.50182796","2.50289511681","2863.00476599","3.49710488319","2866.55175686","2867.57395101","2867.65361595","2870.65657091","0","2870.67072392","2875.61602688",""
"sujeto_0006562","1","3","21","85","2875.75562096","direct","3","1","3","¿En qué año nació Cristóbal Colón? ","1451","1447","","0","0","1","competitive","right","0.73313999176","2876.48884201","4.26686000824","2880.91181302","2.24291992188","2883.1547718","3.75708007812","2886.94560599","2888.7914288","2888.86385489","2891.86683083","0","2891.88189292","2896.10988188",""
"sujeto_0006562","1","3","22","86","2896.26603985","inverse","4","1","4","¿Cuánto mide la 
Montaña Aconcagua? ","6234","6962","","0","0","1","competitive","left","1.176653862","2897.4427588","3.823346138","2901.42068481","2.42105197906","2903.84177589","3.57894802094","2907.47205782","2908.76138687","2908.84125686","2911.84424186","0","2911.85813093","2919.04176784",""
"sujeto_0006562","1","3","23","87","2919.17613387","direct","2","1","4","¿Cuánto mide el punto
 más profundo del océano? ","12508","11003","","0","0","1","competitive","left","0.729573965073","2919.90577292","4.27042603493","2924.36736584","3.99227881432","2928.3596828","2.00772118568","2930.4021349","2931.65363002","2931.73631597","2934.73928595","0","2934.75347281","2938.95973992",""
"sujeto_0006562","1","3","24","88","2939.08854389","inverse","1","1","3","¿Cuántos álbumes ha publicado 
el cantante Jaime Roos? ","41","34","","0","0","1","competitive","right","1.25914096832","2940.34774685","3.74085903168","2944.22820783","2.8574590683","2947.08570385","3.1425409317","2950.27906084","2951.76889181","2951.84683585","2954.849823","0","2954.86404681","2961.06020093",""
"sujeto_0006562","1","3","25","89","2961.19905186","direct","4","1","3","¿En qué año nació el 
ex-presidente Jorge Battle? ","1921","1927","","1","1","1","competitive","right","0.808635950089","2962.0077858","4.19136404991","2966.388937","3.15271520615","2969.54171085","2.84728479385","2972.43960381","2974.170295","2974.24134183","2977.24433088","1","2977.25838995","2980.74343991",""
"sujeto_0006562","1","3","26","90","2980.87664485","inverse","1","1","3","¿Cuántas presidencias 
constitucionales  hubo en Uruguay? ","41","42","","0","0","1","competitive","right","1.40904593468","2982.28573084","3.59095406532","2986.01429486","4.10136294365","2990.11570692","1.89863705635","2992.06742692","2993.27119994","2993.35097289","2996.35395694","0","2996.36892486","3002.15253091",""
"sujeto_0006562","1","3","27","91","3002.30380297","direct","1","1","2","¿Quién escribió mas sinfonías?","Mozart","Haydn","","1","1","0","competitive","left","0.803921937943","3003.1077919","4.19607806206","3007.46037984","4.07235908508","3011.53279781","1.92764091492","3013.51175785","3014.72916389","3014.81235099","3017.81537199","1","3017.82938099","3021.58075786",""
"sujeto_0006562","1","3","28","92","3021.74842882","inverse","4","1","2","¿En qué año nació Michael Jackson?","1958","1953","","1","1","1","competitive","left","2.52160692215","3024.27010083","2.47839307785","3026.9374969","1.85219979286","3028.78975892","4.14780020714","3032.98750901","3034.96574998","3035.03969693","3038.04265881","1","3038.056844","3043.9191699",""
"sujeto_0006562","1","3","29","93","3044.09204292","direct","3","1","2","¿En qué año entró en vigencia 
la ley antitabaco en Uruguay?","2005","2006","","1","1","1","competitive","left","0.87562084198","3044.96770787","4.12437915802","3049.26533794","5.12227106094","3054.38766694","0.877728939056","3055.31738281","3056.91214085","3056.98374701","3059.98666787","1","3060.00161386","3065.33540893",""
"sujeto_0006562","1","3","30","94","3065.46931887","inverse","3","1","1","¿Cuándo se subió el 
primer video a youtube?","2004","2005","","0","0","1","competitive","right","0.831436872482","3066.3008008","4.16856312752","3070.62273979","4.30597496033","3074.92877793","1.69402503967","3076.67630887","3077.98194098","3078.06030488","3081.06332088","0","3081.07728887","3088.83286095",""
"sujeto_0006562","1","3","31","95","3088.97856784","direct","2","1","1","¿Cuántos habitantes tiene India?","1200 millones","1300 millones","","0","0","0","competitive","right","0.873203039169","3089.85183382","4.12679696083","3094.13748789","2.25625109673","3096.39377785","3.74374890327","3100.18832493","3102.15791798","3102.24072886","3105.24368286","0","3105.2577939","3111.30346894",""
"sujeto_0006562","1","3","32","96","3111.44256687","inverse","4","1","2","¿A qué edad murió Bob Marley?","36","37","","0","0","1","competitive","left","2.35014295578","3113.79275393","2.64985704422","3116.61538792","2.4273018837","3119.04275298","3.5726981163","3122.66704679","3124.56491494","3124.65194583","3127.65492296","0","3127.66996694","3130.77244091",""
"sujeto_0006562","1","4","1","97","3260.90514278","direct","2","1","1","¿Cuantos años dirigió la selección 
uruguaya Tabarez?","15 años","13 años","","0","0","0","competitive","left","1.19360399246","3262.098809","3.80639600754","3266.0568459","4.30283713341","3270.3597188","1.69716286659","3272.10983491","3273.30098987","3273.376791","3276.37977982","0","3276.39412189","3283.46615696","3130.7869668"
"sujeto_0006562","1","4","2","98","3283.61254692","inverse","4","1","1","¿Cuantas teclas tiene un teclado 
de computadora generalmente? ","Entre 99 y 108","Entre 109 y 113","","1","1","1","individual","left","1.35616087914","3284.96875691","3.64383912086","3288.78917789","4.54643201828","3293.33567286","1.45356798172","3294.84014201","3295.84287882","3295.89045787","3298.89144897","1","3298.90766191","3301.27909088",""
"sujeto_0006562","1","4","3","99","3301.42636991","direct","1","1","1","¿Cuál Departamento tiene
 mayor superficie?","Río Negro","Soriano","","0","0","0","competitive","right","1.32635617256","3302.75279784","3.67364382744","3306.58104801","3.0786781311","3309.65979886","2.9213218689","3312.63141084","3314.34488893","3314.41620398","3317.41916299","0","3317.43312597","3321.75921488",""
"sujeto_0006562","1","4","4","100","3321.93517685","inverse","3","1","2","¿Cuál es el apellido de las 
hermanastras  de  cenicienta?","Tremaine","Truman","","0","0","1","individual","right","1.68850398064","3323.62372494","3.31149601936","3327.10603499","4.20566797256","3331.311764","1.79433202744","3333.15855789","3335.02744484","3335.07583785","3338.07881188","0","3338.09278584","3340.78874183",""
"sujeto_0006562","1","4","5","101","3340.92840099","direct","4","1","4","¿Cuál película ganó un
 Oscar a mejor película?","Alto Impacto","Cache","","0","0","1","competitive","left","0.619342088699","3341.54781294","4.3806579113","3346.11767983","3.95003199577","3350.06775594","2.04996800423","3352.16843081","3353.28781295","3353.3704679","3356.37346292","0","3356.38669682","3358.65134096",""
"sujeto_0006562","1","4","6","102","3358.7885139","inverse","1","1","3","¿A cuántos centímetros
equivale la medida pié?","25","30","","0","0","1","individual","right","0.762231826782","3359.55079293","4.23776817322","3363.97678494","4.01394414902","3367.99078989","1.98605585098","3370.02790284","3371.06790686","3371.112391","3374.11537385","0","3374.12934184","3379.52744889",""
"sujeto_0006562","1","4","7","103","3379.66489697","direct","2","1","2","¿Qué departamento es mas grande?","Cerro Largo","Paysandú","","0","0","0","competitive","right","1.02226018906","3380.68727279","3.97773981094","3384.8190949","3.81559991837","3388.6347518","2.18440008163","3390.8717618","3392.47154379","3392.5556438","3395.55859184","0","3395.57356501","3399.68343401",""
"sujeto_0006562","1","4","8","104","3399.82531691","inverse","2","1","3","¿Quién pintó la Mona Lisa?","Picasso","Da Vinci","right","0","0","1","competitive","right","1.17341780663","3400.99879885","3.82658219337","3404.98077679","3.04900693893","3408.02985382","2.95099306107","3411.0322299","3412.63810086","3412.71657681","3415.71943593","1","3415.73475289","3417.89708185",""
"sujeto_0006562","1","4","9","105","3418.05272293","direct","4","1","3","¿Cuántos litros hay en un galon?","3.54","3.78","","1","1","1","competitive","left","0.935048103333","3418.98781586","4.06495189667","3423.22456288","3.14512395859","3426.36974978","2.85487604141","3429.25843787","3430.7762959","3430.86023092","3433.8632009","1","3433.87629199","3439.66862988",""
"sujeto_0006562","1","4","10","106","3439.82822299","inverse","4","1","1","¿Cuántas teclas tiene
 un piano moderno?","80","88","","0","0","1","competitive","right","2.01855802536","3441.84682584","2.98144197464","3445.00068188","2.68104600906","3447.68178988","3.31895399094","3451.03481793","3452.04329991","3452.11985397","3455.12283397","0","3455.13702583","3461.93349099",""
"sujeto_0006562","1","4","11","107","3462.10528302","direct","4","1","3","¿Cuántos países hay en África?","54","62","","0","0","1","competitive","right","0.822543144226","3462.9279089","4.17745685577","3467.29442191","1.86231184006","3469.15679288","4.13768815994","3473.32877684","3475.01932693","3475.09787583","3478.10087395","0","3478.11492085","3485.91967082",""
"sujeto_0006562","1","4","12","108","3486.04937601","inverse","1","1","3","¿En qué siglo se crearon
 las primeras pistolas?","XV","XIII","","1","1","1","competitive","left","0.952407121658","3487.00182796","4.04759287834","3491.20922399","4.86741495132","3496.07667994","1.13258504868","3497.26059484","3499.20850801","3499.29464102","3502.29760599","1","3502.3119278","3505.54502988",""
"sujeto_0006562","1","4","13","109","3505.67972898","direct","3","1","4","¿En qué año se estrenó 
la serie friends?","1994","1995","","0","0","1","competitive","left","1.15401911736","3506.83380079","3.84598088264","3510.83607197","3.19760513306","3514.033741","2.80239486694","3516.88658786","3518.76190782","3518.83831286","3521.841295","0","3521.85553288","3526.861588",""
"sujeto_0006562","1","4","14","110","3527.04017091","inverse","3","1","4","¿En qué año nació Hitler?","1889","1887","","0","0","1","competitive","right","0.522593975067","3527.56283593","4.47740602493","3532.19646692","2.7022819519","3534.89881492","3.2977180481","3538.24764991","3539.36201382","3539.43244195","3542.43544292","0","3542.44932485","3547.4762888",""
"sujeto_0006562","1","4","15","111","3547.61811185","direct","1","1","4","¿Cuánto pesa un elefante Africano?","6000 kilos","5400 kilos","","0","0","0","competitive","left","0.84162402153","3548.45983696","4.15837597847","3552.80499983","4.1626958847","3556.96773982","1.8373041153","3558.85667586","3560.21259379","3560.29147387","3563.29447579","0","3563.30855989","3570.01560283",""
"sujeto_0006562","1","4","16","112","3570.16043401","inverse","1","1","2","¿Qué porcentaje de 
la población es zurda?","10%","7%","","1","1","0","competitive","right","0.797335147858","3570.95783401","4.20266485214","3575.335428","3.22128009796","3578.55675101","2.77871990204","3581.38664079","3582.62974501","3582.70495796","3585.70793891","1","3585.72122693","3591.69947481",""
"sujeto_0006562","1","4","17","113","3591.84010601","direct","1","1","2","¿En qué año se estrenó
Volver al futuro?","1984","1985","","0","0","1","competitive","right","0.746683120728","3592.58684087","4.25331687927","3596.99648881","3.3612639904","3600.35781097","2.6387360096","3603.03095078","3604.59277582","3604.66557789","3607.66855597","0","3607.68274879","3614.77419782",""
"sujeto_0006562","1","4","18","114","3614.91821599","inverse","3","1","2","¿Cuántos jugadores hay en un 
equipo de baseball?","9","8","","1","1","0","competitive","left","0.914550065994","3615.83280897","4.08544993401","3620.07514286","3.10264801979","3623.17783594","2.89735198021","3626.12573385","3627.739429","3627.81125093","3630.81425595","1","3630.82845402","3635.80567288",""
"sujeto_0006562","1","4","19","115","3635.9628799","direct","2","1","1","¿Cuántos Oscar ganó
 la película titanic?","13","11","","1","1","1","competitive","right","2.22591280937","3638.18883896","2.77408719063","3641.13675594","3.34900307655","3644.48581791","2.65099692345","3647.18716884","3648.48920178","3648.57173491","3651.57468891","1","3651.58883381","3656.19147396",""
"sujeto_0006562","1","4","20","116","3656.34056282","inverse","4","1","4","¿En qué año comenzó
la segunda guerra mundial?","1939","1976","left","0","0","1","competitive","left","0.825232982635","3657.16583991","4.17476701736","3661.49674392","3.61099720001","3665.10780692","2.38900279999","3667.53055191","3669.33039689","3669.41589284","3672.41887784","1","3672.43302202","3676.42017889",""
"sujeto_0006562","1","4","21","117","3676.56784797","direct","2","1","4","¿Cuántos biomas hay en Uruguay?","5","4","","0","0","1","competitive","right","0.998953104019","3677.56687689","4.00104689598","3681.72398686","2.38072490692","3684.10477185","3.61927509308","3687.75777602","3689.55511498","3689.62547684","3692.62848186","0","3692.64365482","3698.89303994",""
"sujeto_0006562","1","4","22","118","3699.02874279","inverse","2","1","3","¿Cuándo murió Pablo Escobar?","1993","1997","","1","1","1","competitive","left","2.76001191139","3701.78881788","2.23998808861","3704.18505001","3.33768701553","3707.52279592","2.66231298447","3710.2364099","3712.01926279","3712.088274","3715.0912528","1","3715.10518479","3720.80885983",""
"sujeto_0006562","1","4","23","119","3720.95715499","direct","1","1","4","¿Qué serie ha ganado mas premios?","Friends","Murphy Brown","","1","1","0","competitive","left","0.745604991913","3721.70280385","4.25439500809","3726.11241698","3.03929710388","3729.15177298","2.96070289612","3732.16318083","3733.51557899","3733.59850693","3736.60149384","1","3736.61638999","3742.17801285",""
"sujeto_0006562","1","4","24","120","3742.31795001","inverse","4","1","2","¿Cuántas fichas tiene el dominó?","26","28","","1","1","1","competitive","left","0.766862154007","3743.08485579","4.23313784599","3747.47151399","2.93127608299","3750.40285182","3.06872391701","3753.52325487","3754.57857084","3754.6581409","3757.66110492","1","3757.67532802","3762.91845179",""
"sujeto_0006562","1","4","25","121","3763.06066585","direct","2","1","4","¿Cuántos son los dientes de leche?","20","25","","0","0","1","competitive","left","0.84207201004","3763.90278387","4.15792798996","3768.23471594","3.32699203491","3771.56176496","2.67300796509","3774.26906586","3775.97944379","3776.05346298","3779.05644083","0","3779.07164693","3781.21735883",""
"sujeto_0006562","1","4","26","122","3781.35639501","inverse","3","1","3","¿Cuántos gramos son una onza?","22","28","","0","0","1","competitive","left","0.971468925476","3782.327986","4.02853107452","3786.52811599","2.65860295296","3789.18677902","3.34139704704","3792.57859898","3794.57346988","3794.64615297","3797.64910698","0","3797.66407681","3803.95146084",""
"sujeto_0006562","1","4","27","123","3804.09853196","direct","3","1","1","¿Cuándo salió el primer album
 de los Beatles?","1963","1962","","1","1","1","competitive","left","0.638695955276","3804.73730779","4.36130404472","3809.2704649","3.39129114151","3812.66179585","2.60870885849","3815.322999","3816.48655796","3816.55827689","3819.56125283","1","3819.57471991","3823.34676385",""
"sujeto_0006562","1","4","28","124","3823.49302793","inverse","3","1","3","¿Quién fundó la empresa apple?","Carlos Slim","Steve Jobs","","1","1","1","competitive","right","0.727808952332","3824.22091794","4.27219104767","3828.6489799","2.59770298004","3831.24674082","3.40229701996","3834.69933796","3835.81399488","3835.88481998","3838.88745499","1","3838.901824","3845.19965482",""
"sujeto_0006562","1","4","29","125","3845.3734529","direct","4","1","2","¿Cuántos municipios hay
 en Montevideo?","8","7","","1","1","1","competitive","right","0.735336065292","3846.10888791","4.26466393471","3850.52667093","2.17213010788","3852.69885397","3.82786989212","3856.57764482","3858.4924159","3858.56273198","3861.56341386","1","3861.5808239","3863.6619699",""
"sujeto_0006562","1","4","30","126","3863.83160996","inverse","1","1","1","¿Cuántos kilómetros hay
 de Montevideo a Artigas?","632","599","","0","0","0","competitive","right","0.769198179245","3864.60086083","4.23080182076","3869.00309992","3.32265400887","3872.32581997","2.67734599113","3875.05415392","3876.53730202","3876.62256193","3879.62555194","0","3879.63957095","3885.69142985",""
"sujeto_0006562","1","4","31","127","3885.82473779","direct","2","1","2","¿En qué año nació 
Leonardo Da Vinci?","1452","1511","","1","1","0","competitive","right","0.757036924362","3886.58182693","4.24296307564","3890.98104596","3.97973394394","3894.96081901","2.02026605606","3897.01568699","3898.86927986","3898.95042801","3901.95341086","1","3901.96767592","3905.11408782",""
"sujeto_0006562","1","4","32","128","3905.25267386","inverse","3","1","1","¿A qué continente
 pertenece el país Gabón?","Africa","Oceanía","","0","0","1","individual","right","1.28306293488","3906.53580189","3.71693706512","3910.40892696","4.26282501221","3914.67181301","1.73717498779","3916.45944881","3918.27109885","3918.31093979","3921.31391191","0","3921.32871294","3926.56345582",""
