code,nro_aplicante,nro_bloque,nro_trial_bloque,nro_trial_global,show_game_type,choice_order,rival,pay_individual,pay_competitive,question,answer_left_text,answer_right_text,correct_answer,outcome_individual,outcome_competitive,outcome_rival,game_type,answer,social_time,rt_game_type,feedback_delay,show_question,answer_time,rt_answer_global,feedback_delay_2,show_jitter,jitter_time,show_outcome,outcome_time,outcome_participant_real,show_final_jitter,second_jitter_time,inicio_descanso
sujeto_649d6cd3,1,1,1,1,28.7894921303,direct,3,1,4,"¿Cuántos centímetros corresponden
al talle 36 del calzado?",23,24,,0,0,1,competitive,,1.85021710396,30.6397712231,3.14978289604,33.9641811848,6,39.9643051624,0,39.9799411297,41.0082211494,41.0830051899,44.083589077,0,44.0998671055,46.262401104,
sujeto_649d6cd3,1,1,2,2,46.3995392323,inverse,3,1,2,"¿Cuántas metros mide la Intendencia
Municipal de Montevideo? ",84,78,,0,0,1,individual,left,3.79553103447,50.1951110363,1.20446896553,51.5707991123,0.604326963425,52.1751852036,5.39567303658,57.6231381893,59.5011570454,59.5415840149,62.5445401669,0,62.5597040653,64.6524641514,
sujeto_649d6cd3,1,1,3,3,64.7957351208,direct,1,1,3,"¿Cuántas La Pasiva
 hay en uruguay?",15,11,,1,1,1,competitive,right,1.15966200829,65.9554769993,3.84033799171,69.9492120743,4.10438394547,74.0536360741,1.89561605453,75.9980711937,77.6097562313,77.6818161011,80.6847832203,1,80.699393034,84.9777231216,
sujeto_649d6cd3,1,1,4,4,85.119656086,inverse,3,1,3,¿De que color es la camiseta de uruguay?,blanca,celeste,right,1,1,1,competitive,right,2.73371696472,87.8534312248,2.26628303528,90.2769670486,2.20212292671,92.4791281223,3.79787707329,96.3277800083,97.5325341225,97.6135480404,100.61653614,1,100.630819082,104.084754229,
sujeto_649d6cd3,1,1,5,5,104.215432167,direct,2,1,1,"¿Cuánto metros mide
la torre Eiffel?",333,324,,1,1,1,competitive,right,0.861020088196,105.076507092,4.1389799118,109.366754055,2.114757061,111.481552124,3.885242939,115.401054144,116.922427177,117.003724098,120.006683111,1,120.02126503,127.057963133,
sujeto_649d6cd3,1,1,6,6,127.189271212,inverse,3,1,4,"¿Cuantas ciudades existen
 en todo el uruguay?",63,72,,0,0,1,competitive,right,1.00979995728,128.199114084,3.99020004272,132.332360029,2.65591096878,134.988315105,3.34408903122,138.38077116,139.435599089,139.514962196,142.517945051,0,142.532463074,150.159055233,
sujeto_649d6cd3,1,1,7,7,150.304658175,direct,1,1,1,¿Cuantos estados tiene África?,52,54,,1,1,0,competitive,left,0.892029047012,151.196731091,4.10797095299,155.445740223,1.83921194077,157.285017014,4.16078805923,161.496031046,163.360039234,163.431988001,166.434944153,1,166.449396133,172.210475206,
sujeto_649d6cd3,1,1,8,8,172.354086161,inverse,4,1,4,"¿En qué año nació
 Stephen Hawking?",1952,1942,,0,0,1,competitive,left,0.630077123642,172.984236002,4.36992287636,177.52392602,2.50430393219,180.028268099,3.49569606781,183.57466507,185.018982172,185.093561172,188.096547127,0,188.111050129,194.210421085,
sujeto_649d6cd3,1,1,9,9,194.346011162,direct,2,1,3,"¿Cuánto años tenía Artigas
 cuando se fue a Paraguay?",56,57,,1,1,1,competitive,left,1.42937421799,195.775482178,3.57062578201,199.503122091,2.66034197807,202.163522005,3.33965802193,205.553406,207.102944136,207.188148022,210.191141129,1,210.205463171,216.252770185,
sujeto_649d6cd3,1,1,10,10,216.393403053,inverse,1,1,2,"¿Cuantos milímetros 
mide una hoja A2?",420x592,420x594,,0,0,1,competitive,right,1.0892560482,217.482708216,3.9107439518,221.544971228,5.02177906036,226.566806078,0.978220939636,227.597781181,229.166216135,229.248548031,232.251541138,0,232.265978098,239.33962822,
sujeto_649d6cd3,1,1,11,11,239.487405062,direct,3,1,3,"¿Cuál es la menor temperatura 
registrada en Uruguay?",-5.4,-7.4,,0,0,1,competitive,right,0.773645877838,240.261155128,4.22635412216,244.659294128,4.79376912117,249.453127146,1.20623087883,250.694715023,252.376769066,252.461481094,255.464463234,0,255.480142117,259.213452101,
sujeto_649d6cd3,1,1,12,12,259.349783182,inverse,2,1,2,"¿Cuantos años hace que 
se fundó facebook?",18,17,,0,0,0,competitive,right,3.83855319023,263.188382149,1.16144680977,264.521129131,4.33520889282,268.856376171,1.66479110718,270.571685076,271.944405079,272.022458076,275.025422096,0,275.03986311,277.814482212,
sujeto_649d6cd3,1,1,13,13,277.960053205,direct,1,1,4,"¿Cuál animal es más
 pesado en promedio?",Rinoceronte,Hipopotamo,,0,0,0,competitive,right,0.641586065292,278.601705074,4.35841393471,283.113212109,4.67457485199,287.787833214,1.32542514801,289.148321152,290.227569103,290.298442125,293.301415205,0,293.31669116,297.157702208,
sujeto_649d6cd3,1,1,14,14,297.335533142,inverse,1,1,2,"¿Qué personaje de dragon ball 
murió más veces?",Chaoz,Krillin,,1,1,0,,,,,,,,,,,,,,,302.3577981,310.13073802,
sujeto_649d6cd3,1,1,15,15,310.260177135,direct,3,1,2,"La universidad de oxford. 
existe desde:",1096,1249,,1,1,0,competitive,right,1.40799880028,311.668245077,3.59200119972,315.414532185,2.45579195023,317.870381117,3.54420804977,321.464358091,322.512561083,322.599615097,325.602609158,1,325.616869211,332.307734013,
sujeto_649d6cd3,1,1,16,16,332.451467037,inverse,3,1,1,"¿Qué escritor latino ganó antes
 el premio nobel?", García Marquez,Neruda,,0,0,1,competitive,right,1.44622802734,333.897742033,3.55377197266,337.592650175,2.89621710777,340.488925219,3.10378289223,343.642890215,345.382875204,345.461914062,348.464871168,0,348.479129076,351.939673185,
sujeto_649d6cd3,1,1,17,17,352.084188223,direct,4,1,3,"¿Cuántos dientes tiene un
 tiburón blanco?",6000,3000,,0,0,1,competitive,right,1.50096511841,353.585200071,3.49903488159,357.254005194,3.8971581459,361.151221037,2.1028418541,363.304628134,364.343605042,364.422691107,367.425673008,0,367.439227104,372.248907089,
sujeto_649d6cd3,1,1,18,18,372.392233133,inverse,4,1,1,¿Cuánto mide el paralelo Ecuador?,40.000km,70.000km,,0,0,1,competitive,right,4.59638190269,376.988656044,0.403618097305,377.546811104,3.30590391159,380.85275507,2.69409608841,383.598560095,385.554662228,385.633484125,388.636469126,0,388.650843143,392.253434181,
sujeto_649d6cd3,1,1,19,19,392.416945219,direct,4,1,2,"¿Cuál fue el primer libro 
de Stephen King?",Carrie,The Stand,,1,1,1,competitive,right,1.56307506561,393.9800632,3.43692493439,397.559094191,3.92009806633,401.479254007,2.07990193367,403.610004187,405.354119062,405.427323103,408.43029213,1,408.444600105,412.91904211,
sujeto_649d6cd3,1,1,20,20,413.046613216,inverse,2,1,3,"¿Qué civilización practicaba
 la momificación?",Grecia,Egipto,right,0,0,1,competitive,right,1.37127900124,414.417934179,3.62872099876,418.198408127,2.50331306458,420.701786041,3.49668693542,424.250461102,426.189721107,426.268855095,429.271798134,1,429.286367178,433.515163183,
sujeto_649d6cd3,1,1,21,21,433.673474073,direct,4,1,4,"¿Cuántos millones de visitas
 recibe google por minuto?",3.0,4.5,,0,0,1,competitive,right,0.75580406189,434.429342031,4.24419593811,438.847392082,3.30991101265,442.157341003,2.69008898735,444.881118059,446.395523071,446.482720137,449.485713005,0,449.500515223,456.623210192,
sujeto_649d6cd3,1,1,22,22,456.751757145,inverse,1,1,3,La máquina de fax. se inventó en:,1843,1960,,0,0,1,competitive,right,2.98699903488,459.738819122,2.01300096512,461.925227165,4.33261418343,466.257881165,1.66738581657,467.961861134,469.203964233,469.279181004,472.282156229,0,472.295798063,475.532073021,
sujeto_649d6cd3,1,1,23,23,475.677286148,direct,2,1,4,"En la verdadera historia de los
 300 espartanos. habían:",300 soldados,4300 soldados,,1,1,1,competitive,right,1.92301011086,477.600366116,3.07698988914,480.853060007,5.19141197205,486.044540167,0.808588027954,486.888710022,488.149943113,488.222517014,491.225472212,1,491.239689112,495.041472197,
sujeto_649d6cd3,1,1,24,24,495.189254045,inverse,1,1,4,"¿Cuántos milímetros crece
 el pelo por día?",0.4,0.04,,0,0,0,competitive,right,1.40251302719,496.591833115,3.59748697281,500.328685999,4.12923908234,504.457989216,1.87076091766,506.363238096,508.123948097,508.19791007,511.200903177,0,511.215470076,517.950576067,
sujeto_649d6cd3,1,1,25,25,518.087567091,direct,4,1,1,"¿Cuánto mide la baldosa gris 
clásica de Montevideo?",22x22 cm.,20x20 cm.,,1,1,1,competitive,right,0.992813825607,519.080438137,4.00718617439,523.242514133,3.04001784325,526.282574177,2.95998215675,529.293490171,531.288725138,531.361847162,534.364816189,1,534.379313231,539.922116041,
sujeto_649d6cd3,1,1,26,26,540.065349102,inverse,2,1,2,"¿Cuántas películas de rápidos
 y furiosos hay?",10,11,,1,1,0,competitive,right,2.69976305962,542.765179157,2.30023694038,545.23685503,2.48042583466,547.717346191,3.51957416534,551.272020102,552.63006115,552.708101034,555.708838224,1,555.718992233,557.753695011,
sujeto_649d6cd3,1,1,27,27,557.887611151,direct,3,1,1,"¿Cuántos masters 1000
 ganó Del Potro?",1,2,,1,1,1,competitive,left,1.05596804619,558.943621159,3.94403195381,563.030322075,4.95448589325,567.984853029,1.04551410675,569.082871199,570.837504148,570.916699171,573.919704199,1,573.935019016,581.331346035,
sujeto_649d6cd3,1,1,28,28,581.468941212,inverse,2,1,4,"¿Cuántos meses dura el 
embarazo de una leona?",3 meses,4 meses,,0,0,1,competitive,left,1.51939702034,582.988380194,3.48060297966,586.626195192,4.57724118233,591.203481197,1.42275881767,592.660378218,593.771406174,593.844433069,596.847463131,0,596.861954212,603.581791162,
sujeto_649d6cd3,1,1,29,29,603.734141111,direct,1,1,1,"¿En qué año fue creado
 el sandwich?",1762,1653,,1,1,0,competitive,right,0.824770927429,604.558974028,4.17522907257,608.888800144,2.42527222633,611.314133167,3.57472777367,614.93799901,616.536571026,616.62275219,619.625736237,1,619.64037919,623.111024141,
sujeto_649d6cd3,1,1,30,30,623.260160208,inverse,4,1,2,El nombre de la moneda de Vietnam es:,Dinar,Dong,,0,0,1,competitive,left,1.34341812134,624.603620052,3.65658187866,628.416712999,3.47705888748,631.893810034,2.52294111252,634.451498032,635.883502007,635.969093084,638.972076178,0,638.987366199,645.155801058,
sujeto_649d6cd3,1,1,31,31,645.30657506,direct,2,1,1,"¿cuantos aleteos puede dar 
un colibrí por segundo?",120,50,,0,0,0,competitive,right,1.45472407341,646.761362076,3.54527592659,650.462150097,4.96039295197,655.42260313,1.03960704803,656.495999098,658.228412151,658.313154221,661.316137075,0,661.331468105,665.543728113,
sujeto_649d6cd3,1,1,32,32,665.684439182,inverse,4,1,3,"¿Qué altura promedio tienen
 los hombres uruguayos?",1.73 m,1.72 m,,1,1,1,,,,,,,,,,,,,,,670.707719088,675.183643103,
sujeto_649d6cd3,1,2,1,1,14.3493180275,direct,1,1,1,"¿En qué año nació 
el actor Bradd Pitt?",1967,1963,,1,1,1,competitive,,0.937385082245,15.2868061066,4.06261491776,19.498169899,6,25.4982941151,0,25.5150439739,26.6108989716,26.685297966,29.6882429123,0,29.7026820183,35.6302371025,
sujeto_649d6cd3,1,2,2,2,35.7740020752,inverse,2,1,1,"¿Cual es el segundo 
monte más alto?",Kanchenjunga,K2,,1,1,1,,,,,,,,,,,,,,,40.7827548981,44.2126219273,
sujeto_649d6cd3,1,2,3,3,44.3322610855,direct,3,1,1,"¿Cuándo finalizó la construcción
 del Palacio Legislativo?",1925,1917,,0,0,1,competitive,right,0.801512956619,45.1338169575,4.19848704338,49.5045061111,2.60840892792,52.1129860878,3.39159107208,55.5546679497,57.1963810921,57.2735199928,60.2765140533,0,60.291066885,65.9886200428,
sujeto_649d6cd3,1,2,4,4,66.1294488907,inverse,3,1,3,"¿Cuántos integrantes tenía
 en su inicio  el cuarteto de nos?",3,4,,1,1,1,competitive,left,2.59819293022,68.7277050018,2.40180706978,71.2811830044,3.61448311806,74.8957240582,2.38551688194,77.3169589043,78.4500639439,78.5352210999,81.5381960869,1,81.5530591011,87.2028930187,
sujeto_649d6cd3,1,2,5,5,87.3376090527,direct,2,1,3,¿Qué valor tiene el número pi?,3.14,4.18,left,0,0,1,competitive,left,0.652608156204,87.9902880192,4.3473918438,92.4775979519,2.16577386856,94.6434109211,3.83422613144,98.5279660225,99.982074976,100.063107967,103.066092968,1,103.08140111,109.996064901,
sujeto_649d6cd3,1,2,6,6,110.134721041,inverse,2,1,2,"¿Cuál es la esperanza de vida
 en Uruguay?",75,77,,1,1,0,competitive,left,1.54518508911,111.679992914,3.45481491089,115.290885925,2.21534800529,117.506270885,3.78465199471,121.3397789,122.993597984,123.075419903,126.078357935,1,126.092508078,132.555553913,
sujeto_649d6cd3,1,2,7,7,132.697906971,direct,1,1,2,"¿Cuantos pisos tiene la torre 
de las comunicaciones?",26,32,,1,1,0,competitive,left,1.00091004372,133.69888711,3.99908995628,137.852302074,3.01475095749,140.867110968,2.98524904251,143.902040958,145.730784893,145.805128098,148.808100939,1,148.822788954,150.969002008,
sujeto_649d6cd3,1,2,8,8,151.12472105,inverse,2,1,4,"¿En qué país sudamericano 
no hay McDonalds?",Bolivia,Venezuela,,0,0,1,competitive,left,3.51577210426,154.640535116,1.48422789574,156.280102015,3.31353497505,159.593694925,2.68646502495,162.31405592,163.623442888,163.698847055,166.701782942,0,166.716429949,173.0761621,
sujeto_649d6cd3,1,2,9,9,173.221544027,direct,3,1,1,"¿En qué año empieza
 la Edad Media?",476,512,,1,1,1,competitive,right,0.731662034988,173.953272104,4.26833796501,178.374176979,4.89129686356,183.265532017,1.10870313644,184.410254955,185.814007044,185.893623114,188.89604497,1,188.911350012,191.899882078,
sujeto_649d6cd3,1,2,10,10,192.043471098,inverse,3,1,4,"¿Hace cuántos años surgió
 el ser humano?",200mil,300mil,,0,0,0,competitive,right,1.5214240551,193.56497407,3.4785759449,197.184118032,2.85592198372,200.040081978,3.14407801628,203.235136986,205.121175051,205.202573061,208.205096006,0,208.220678091,211.531167984,
sujeto_649d6cd3,1,2,11,11,211.67373991,direct,3,1,4,"¿Cuántas cuadras tiene
 actualmente 18 de julio? ",36,33,,0,0,1,competitive,left,0.758733034134,212.432533979,4.24126696587,216.846213102,2.3076069355,219.153882027,3.6923930645,222.895910978,224.59819293,224.681545019,227.684540987,0,227.699063063,232.42534709,
sujeto_649d6cd3,1,2,12,12,232.567771912,inverse,1,1,4,"¿Qué juego de equipo se 
considera mas rápido?",Lacrosse,Badminton,,0,0,0,competitive,right,3.90659189224,236.474426031,1.09340810776,237.724211931,4.32528281212,242.049551964,1.67471718788,243.775985956,245.019088984,245.092987061,248.095971107,0,248.111257076,256.106426001,
sujeto_649d6cd3,1,2,13,13,256.247363091,direct,1,1,3,"¿Qué promedio de edad 
vive una jirafa? ",25,20,,0,0,1,competitive,right,0.838067054749,257.085481882,4.16193294525,261.38736701,4.95705294609,266.344461918,1.04294705391,267.422425032,269.183991909,269.256284952,272.259269953,0,272.273607016,278.229330063,
sujeto_649d6cd3,1,2,14,14,278.375798941,inverse,1,1,2,¿Cuántos grandes lagos hay?,7,5,,0,0,1,competitive,left,1.16106200218,279.536922932,3.83893799782,283.530911922,3.37192583084,286.902900934,2.62807416916,289.615736008,290.907877922,290.983443975,293.986428976,0,294.000922918,301.822324038,
sujeto_649d6cd3,1,2,15,15,301.970053911,direct,3,1,2,"¿Cuántos discos de estudio
 grabó Johhny Cash? ",54,43,,1,1,0,competitive,right,0.811269044876,302.781410933,4.18873095512,307.12698102,3.36796784401,310.495019913,2.63203215599,313.17496109,314.453604937,314.525338888,317.52835393,1,317.542885065,324.193799019,
sujeto_649d6cd3,1,2,16,16,324.34762001,inverse,4,1,1,"¿Cuántos barrios tiene
 Montevideo? ",71,62,,0,0,1,competitive,right,0.706738948822,325.054425001,4.29326105118,329.504213095,4.20874094963,333.71299696,1.79125905037,335.538527012,336.545578003,336.622848034,339.625802994,0,339.640548944,345.102566957,
sujeto_649d6cd3,1,2,17,17,345.241445065,direct,3,1,3,¿Qué edad tiene Homero Simpson?,36,42,,0,0,1,competitive,left,1.45089006424,346.692394018,3.54910993576,350.398394108,2.33882808685,352.737287998,3.66117191315,356.447879076,357.823909044,357.899492025,360.902493954,0,360.917736053,365.306071997,
sujeto_649d6cd3,1,2,18,18,365.43475008,inverse,4,1,2,"¿Cuántos países con monarquía 
hay en europa actualmente? ",6,10,,1,1,1,competitive,left,4.54786920547,369.982686996,0.452130794525,370.588871956,3.7735350132,374.362445116,2.2264649868,376.641884089,378.080190897,378.160128117,381.163079977,1,381.177294016,387.334112883,
sujeto_649d6cd3,1,2,19,19,387.479079962,direct,2,1,3,"¿Cuántos capítulos de
 Friends existen? ",236,228,,1,1,1,competitive,right,1.21098184586,388.690109015,3.78901815414,392.616221905,3.10654807091,395.722832918,2.89345192909,398.667604923,399.973179102,400.052124977,403.055111885,1,403.069705009,405.445323944,
sujeto_649d6cd3,1,2,20,20,405.588783979,inverse,1,1,3,¿Cuántas óperas compuso Mozart? ,27,22,,1,1,1,competitive,right,3.25158286095,408.840413094,1.74841713905,410.74357295,4.22964596748,414.973258972,1.77035403252,416.778563976,418.070729971,418.14645195,421.147090912,1,421.163378954,428.473999023,
sujeto_649d6cd3,1,2,21,21,428.614991903,direct,4,1,3,"¿Cuántos mundiales de fútbol 
femenino ha realizado FIFA? ",9,7,,1,1,1,competitive,right,1.22478294373,429.839838028,3.77521705627,433.768594027,3.23596715927,437.004596949,2.76403284073,439.820357084,441.064066887,441.138874054,444.141848087,1,444.156282902,450.258759022,
sujeto_649d6cd3,1,2,22,22,450.409802914,inverse,3,1,2,"¿Cuál es la temperatura 
media anual en Montevideo? ",17.5,16.3,,0,0,1,competitive,left,1.89347290993,452.303347111,3.10652709007,455.58235693,4.2095720768,459.791992903,1.7904279232,461.632265091,463.570779085,463.650811911,466.653723001,0,466.668145895,473.237622976,
sujeto_649d6cd3,1,2,23,23,473.389003992,direct,2,1,2,"¿En qué año se estrenó el
 videojuego The Sims? ",2000,2002,,0,0,0,competitive,left,0.658762216568,474.047826052,4.34123778343,478.542911053,3.43950819969,481.98247695,2.56049180031,484.594244003,486.456245899,486.52906394,489.532054901,0,489.546633959,496.940294027,
sujeto_649d6cd3,1,2,24,24,497.079832077,inverse,2,1,1,"¿Cuál es la canción con 
mas covers? ",Yesterday,Stand by me,,0,0,0,competitive,left,1.502379179,498.582256079,3.497620821,502.238856077,4.11309289932,506.352011919,1.88690710068,508.289577961,509.688137054,509.773380995,512.77637291,0,512.791079044,516.961909056,
sujeto_649d6cd3,1,2,25,25,517.092668056,direct,1,1,4,"¿Cuánto duró la guerra
 de los 100 años?",116,123,,0,0,0,competitive,left,0.901101827621,517.993846893,4.09889817238,522.248282909,3.82130599022,526.069632053,2.17869400978,528.299037933,529.77989006,529.850212097,532.85323596,0,532.867626905,535.18740797,
sujeto_649d6cd3,1,2,26,26,535.318675041,inverse,4,1,4,¿Qué color tiene la  bandera de Brasil?,Amarillo,Naranja,left,0,0,1,,,,,,,,,,,,,,,540.337011099,543.369802952,
sujeto_649d6cd3,1,2,27,27,543.506150007,direct,4,1,3,"¿Qué carabela de 
Colon no volvió del viaje?",Santa María,La pinta,,0,0,1,competitive,left,0.844072818756,544.350285053,4.15592718124,548.661358118,3.83878803253,552.500201941,2.16121196747,554.71250391,556.203533888,556.279684067,559.282681942,0,559.298101902,561.397578955,
sujeto_649d6cd3,1,2,28,28,561.547595024,inverse,4,1,4,"¿Cuántos huesos tiene
 un adulto humano?",217,206,,0,0,1,competitive,right,1.34838986397,562.896047115,3.65161013603,566.699513912,2.49522709846,569.194773912,3.50477290154,572.733899117,574.004956961,574.085688114,577.08861804,0,577.103159904,584.94085598,
sujeto_649d6cd3,1,2,29,29,585.089051962,direct,1,1,1,"¿Qué país africano fue 
fundado por esclavos?",Liberia,Chad,,0,0,0,competitive,left,0.793591976166,585.88270998,4.20640802383,590.265827894,4.33362698555,594.599510908,1.66637301445,596.31663394,598.308298111,598.384597063,601.387514114,0,601.402190924,609.393039942,
sujeto_649d6cd3,1,2,30,30,609.536408901,inverse,4,1,2,"¿A cuánto asciende la cima
 del monte Everest?",7.990 mts,8.848 mts,,0,0,1,competitive,left,1.97437906265,611.510911942,3.02562093735,614.759382963,3.92491984367,618.684366941,2.07508015633,620.812580109,621.997423887,622.080699921,625.083699942,0,625.097279072,632.281321049,
sujeto_649d6cd3,1,2,31,31,632.435682058,direct,4,1,1,¿Cuál es el país mas chico?,Sealand,Luxemburgo,,1,1,1,competitive,left,0.82347202301,633.259221077,4.17652797699,637.606060982,3.50996994972,641.116097927,2.49003005028,643.64044404,645.503904104,645.591350079,648.594341993,1,648.609065056,651.731367111,
sujeto_649d6cd3,1,2,32,32,651.878057003,inverse,2,1,4,¿Cuántas pirámides hay en Egipto?,10000,11000,,1,1,1,competitive,left,1.52385997772,653.401994944,3.47614002228,657.032332897,4.27348709106,661.30588603,1.72651290894,663.083415985,664.117023945,664.201129913,667.204088926,1,667.218319893,672.327408075,
sujeto_649d6cd3,1,3,1,33,828.030034065,direct,2,1,2,"¿Cuál es el quinto país con 
mas extensión?",Canadá,Brasil,,1,1,0,competitive,right,0.75331401825,828.783416033,4.24668598175,833.189697981,3.83868193626,837.02841711,2.16131806374,839.240657091,840.573964119,840.657672882,843.660615921,1,843.675667048,851.402060986,672.342763901
sujeto_649d6cd3,1,3,2,34,851.545382977,inverse,1,1,2,"¿Qué rasgo facial no tiene
 la Mona Lisa?",Cejas,Pómulos,,0,0,1,competitive,right,1.57899403572,853.124433994,3.42100596428,856.701958895,4.40745687485,861.109488964,1.59254312515,862.736423969,864.486809015,864.570374012,867.573307037,0,867.587579966,873.858912945,
sujeto_649d6cd3,1,3,3,35,874.006308079,direct,4,1,3,"¿Cuál es el país con 
mayor población?",Esados Unidos,China,right,0,0,1,competitive,right,0.746243953705,874.752619028,4.2537560463,879.158376932,2.90117907524,882.059598923,3.09882092476,885.210555077,886.856564045,886.927968025,889.930973053,1,889.946561098,893.313890934,
sujeto_649d6cd3,1,3,4,36,893.448157072,inverse,1,1,1,La palabra dinosaurio significa,Lagarto Terrible,Lagarto Dragón,,1,1,0,competitive,,1.86845111847,895.316673994,3.13154888153,898.623193979,6,904.623333931,0,904.638602018,905.808934927,905.891439915,908.894031048,0,908.909555912,911.771096945,
sujeto_649d6cd3,1,3,5,37,911.911122084,direct,2,1,3,¿Qué es el membrillero?,Arbol,Arbusto,,0,0,0,competitive,left,1.83354401588,913.744713068,3.16645598412,917.066267967,4.4134619236,921.479789019,1.5865380764,923.100450993,925.054553032,925.134556055,928.137552023,0,928.152909994,934.61698103,
sujeto_649d6cd3,1,3,6,38,934.753768921,inverse,3,1,3,"¿Alrededor de qué planeta orbita 
el satélite Europa?",Jupiter,Saturno,,1,1,1,competitive,left,1.59101390839,936.344845057,3.40898609161,939.911391973,3.44743990898,943.358896971,2.55256009102,945.961874008,947.506048918,947.580416918,950.583399057,1,950.597074986,952.802256107,
sujeto_649d6cd3,1,3,7,39,952.931988001,direct,3,1,1,"¿Donde fue el mundial de 
fútbol de 1954?",Suiza,Suecia,,1,1,1,competitive,left,0.869920015335,953.801970005,4.13007998466,958.103503942,3.70650792122,961.810069084,2.29349207878,964.154791117,965.40703702,965.489622116,968.492611885,1,968.507143974,972.418916941,
sujeto_649d6cd3,1,3,8,40,972.560096025,inverse,1,1,4,"¿Cuál de los 7 enanitos
no tenía barba?",Bashful,Mudito,,1,1,0,competitive,left,1.78396391869,974.344104052,3.21603608131,977.714423895,4.56176495552,982.276227951,1.43823504448,983.748660088,985.328821898,985.399863958,988.402848959,1,988.417454958,993.346545935,
sujeto_649d6cd3,1,3,9,41,993.485809088,direct,3,1,2,"¿Cual red social es
mas utilizada mundialmente?",Instagram,Facebook,,1,1,0,,,,,,,,,,,,,,,998.508898973,1001.44340396,
sujeto_649d6cd3,1,3,10,42,1001.57448411,inverse,4,1,1,"¿Cuándo se inició la copa
 América de fútbol?",1916,1923,,1,1,1,,,,,,,,,,,,,,,1006.59658909,1009.25270295,
sujeto_649d6cd3,1,3,11,43,1009.37997198,direct,3,1,4,"¿Cuántos presidentes de EEUU
han muerto asesinados?",3,4,,0,0,1,competitive,left,0.763484954834,1010.14352107,4.23651504517,1014.53322911,3.0022559166,1017.53554511,2.9977440834,1020.58435011,1022.06829095,1022.15256095,1025.15555,0,1025.17018008,1028.81431603,
sujeto_649d6cd3,1,3,12,44,1028.954427,inverse,2,1,4,"¿Cuántas veces participó EEUU
 en la copa América?",4,5,,0,0,1,competitive,left,1.94121789932,1030.89569306,3.05878210068,1034.11023307,4.35043907166,1038.46073103,1.64956092834,1040.16154194,1041.60564995,1041.67956805,1044.68255091,0,1044.6965909,1050.81376004,
sujeto_649d6cd3,1,3,13,45,1050.96640706,direct,4,1,1,"¿Cuál de estos países 
no formaba la URSS?",Azeribayán,Afganistán,,0,0,1,competitive,left,0.618432998657,1051.58488798,4.38156700134,1056.1383481,4.84652209282,1060.98494196,1.15347790718,1062.19031811,1063.50304198,1063.59082294,1066.59378791,0,1066.60799789,1074.59016395,
sujeto_649d6cd3,1,3,14,46,1074.74066401,inverse,1,1,1,"¿En qué año se inauguró
 el teatro Solís?",1867,1856,,0,0,0,,,,,,,,,,,,,,,1079.75007796,1086.39789295,
sujeto_649d6cd3,1,3,15,47,1086.51781797,direct,1,1,4,"¿A qué velocidad vuela 
el avión más rápido?",3529,3874,,0,0,0,competitive,right,0.875457048416,1087.39334106,4.12454295158,1091.67357802,3.25369596481,1094.9273119,2.74630403519,1097.72526193,1099.47929811,1099.5600791,1102.56306005,0,1102.57774305,1104.688025,
sujeto_649d6cd3,1,3,16,48,1104.83164096,inverse,3,1,4,"¿De qué año es la primer 
película cinematográfica?",1897,1888,,0,0,0,competitive,left,1.73576188087,1106.56746411,3.26423811913,1110.0006609,2.73386406898,1112.73458505,3.26613593102,1116.05046892,1117.18339705,1117.26954198,1120.27244592,0,1120.28678393,1125.69650102,
sujeto_649d6cd3,1,3,17,49,1125.83813906,direct,2,1,3,"¿Cuántos países 
tiene nuestro planeta?",191,194,,1,1,1,competitive,right,2.14056587219,1127.97874904,2.85943412781,1130.99601007,4.04981398582,1135.04588294,1.95018601418,1137.04417396,1138.40139604,1138.47818089,1141.48115802,1,1141.49574399,1144.73404503,
sujeto_649d6cd3,1,3,18,50,1144.88066792,inverse,2,1,2,"¿Cuántos habitantes
 tiene Buenos Aires?",2.9000.000,3650000,,0,0,0,competitive,right,2.69725894928,1147.57800794,2.30274105072,1150.05419803,5.75887084007,1155.81312799,0.241129159927,1156.08629203,1157.48305011,1157.56933999,1160.57232404,0,1160.58759594,1166.41701293,
sujeto_649d6cd3,1,3,19,51,1166.55454612,direct,2,1,1,¿Cuántos kilos forman una tonelada?,1000,1500,left,1,1,1,competitive,left,2.23670005798,1168.79131389,2.76329994202,1171.73301196,2.24127388,1173.97432399,3.75872612,1177.7837379,1179.67112994,1179.75227904,1182.75525999,1,1182.77046609,1188.72787905,
sujeto_649d6cd3,1,3,20,52,1188.88834405,inverse,4,1,4,"¿Cuántos estados tiene la 
República del Perú? ",24,23,,0,0,1,competitive,,1.58014082909,1190.46854401,3.41985917091,1194.04489589,6,1200.04504991,0,1200.06020999,1201.08242893,1201.16366792,1204.16662097,0,1204.18089509,1209.12620711,
sujeto_649d6cd3,1,3,21,53,1209.26570201,direct,3,1,3,¿En qué año nació Cristóbal Colón? ,1451,1447,,0,0,1,competitive,left,0.863155841827,1210.12892294,4.13684415817,1214.42196989,3.59491801262,1218.01696396,2.40508198738,1220.45628595,1222.30220294,1222.37378192,1225.37675095,0,1225.39243007,1229.62042499,
sujeto_649d6cd3,1,3,22,54,1229.75985098,inverse,4,1,4,"¿Cuánto mide la 
Montaña Aconcagua? ",6234,6962,,0,0,1,competitive,right,2.22488498688,1231.9848659,2.77511501312,1234.91637802,3.25584292412,1238.17228699,2.74415707588,1240.96770191,1242.25707102,1242.35247588,1245.35546303,0,1245.37038708,1252.55403805,
sujeto_649d6cd3,1,3,23,55,1252.6874969,direct,2,1,4,"¿Cuánto mide el punto
 más profundo del océano? ",12508,11003,,0,0,1,competitive,left,0.85901093483,1253.54657006,4.14098906517,1257.84526706,2.62922000885,1260.4745419,3.37077999115,1263.89584899,1265.14737201,1265.23078704,1268.233778,0,1268.24799395,1272.45427895,
sujeto_649d6cd3,1,3,24,56,1272.61370301,inverse,1,1,3,"¿Cuántos álbumes ha publicado 
el cantante Jaime Roos? ",41,34,,0,0,1,competitive,right,4.26614499092,1276.87991309,0.733855009079,1277.77249908,3.65946817398,1281.43200898,2.34053182602,1283.82368803,1285.31354403,1285.39127111,1288.39426589,0,1288.4094491,1294.60561299,
sujeto_649d6cd3,1,3,25,57,1294.76037002,direct,4,1,3,"¿En qué año nació el 
ex-presidente Jorge Battle? ",1921,1927,,1,1,1,competitive,right,0.859345197678,1295.61976099,4.14065480232,1299.91711712,4.12717604637,1304.04435492,1.87282395363,1305.95240498,1307.68312812,1307.76940894,1310.77238011,1,1310.78758097,1314.27363801,
sujeto_649d6cd3,1,3,26,58,1314.4240129,inverse,1,1,3,"¿Cuántas presidencias 
constitucionales  hubo en Uruguay? ",41,42,,0,0,1,competitive,right,1.46650695801,1315.8905611,3.53349304199,1319.57868409,4.30490398407,1323.88362598,1.69509601593,1325.6290729,1326.83284497,1326.91297507,1329.91598892,0,1329.93048692,1335.7141459,
sujeto_649d6cd3,1,3,27,59,1335.84650397,direct,1,1,2,¿Quién escribió mas sinfonías?,Mozart,Haydn,,1,1,0,competitive,left,0.737586975098,1336.584167,4.2624130249,1340.98937798,3.33565592766,1344.32507706,2.66434407234,1347.04051709,1348.25799489,1348.34176397,1351.34475303,1,1351.35898495,1355.11041498,
sujeto_649d6cd3,1,3,28,60,1355.26051402,inverse,4,1,2,¿En qué año nació Michael Jackson?,1958,1953,,1,1,1,competitive,right,1.27971577644,1356.54029703,3.72028422356,1360.41654491,3.56982803345,1363.9864099,2.43017196655,1366.467098,1368.44529796,1368.51823497,1371.52125096,1,1371.53679299,1377.39912391,
sujeto_649d6cd3,1,3,29,61,1377.55647206,direct,3,1,2,"¿En qué año entró en vigencia 
la ley antitabaco en Uruguay?",2005,2006,,1,1,1,competitive,right,0.665103912354,1378.22162008,4.33489608765,1382.71175098,3.97598481178,1386.68779397,2.02401518822,1388.74561501,1390.34038401,1390.41333103,1393.4163239,1,1393.42867899,1398.76268005,
sujeto_649d6cd3,1,3,30,62,1398.9136169,inverse,3,1,1,"¿Cuándo se subió el 
primer video a youtube?",2004,2005,,0,0,1,,,,,,,,,,,,,,,1403.92263603,1411.67820692,
sujeto_649d6cd3,1,3,31,63,1411.80866003,direct,2,1,1,¿Cuántos habitantes tiene India?,1200 millones,1300 millones,,0,0,0,competitive,left,1.80161714554,1413.61033893,3.19838285446,1416.97969604,2.46867799759,1419.44844103,3.53132200241,1423.03061104,1425.00023603,1425.08236599,1428.08502102,0,1428.1005559,1434.14808297,
sujeto_649d6cd3,1,3,32,64,1434.28465796,inverse,4,1,2,¿A qué edad murió Bob Marley?,36,37,,0,0,1,competitive,left,1.73001098633,1436.01473689,3.26998901367,1439.44159508,2.43719696999,1441.8788321,3.56280303001,1445.49180889,1447.38901305,1447.4775269,1450.48052096,0,1450.49506402,1453.59751201,
sujeto_649d6cd3,1,4,1,65,1653.1524179,direct,2,1,1,"¿Cuantos años dirigió la selección 
uruguaya Tabarez?",15 años,13 años,,0,0,0,competitive,right,0.714746952057,1653.86721301,4.28525304794,1658.3086431,4.62673902512,1662.935426,1.37326097488,1664.34422994,1665.53538394,1665.61055112,1668.61352897,0,1668.62812495,1675.70002198,1453.61255693
sujeto_649d6cd3,1,4,2,66,1675.84628201,inverse,4,1,1,"¿Cuantas teclas tiene un teclado 
de computadora generalmente? ",Entre 99 y 108,Entre 109 y 113,,1,1,1,competitive,left,1.36037492752,1677.20672107,3.63962507248,1681.01936507,3.19641113281,1684.21583509,2.80358886719,1687.07145309,1688.07419801,1688.15592289,1691.15886807,1,1691.17351508,1693.54489589,
sujeto_649d6cd3,1,4,3,67,1693.69194889,direct,1,1,1,"¿Cuál Departamento tiene
 mayor superficie?",Río Negro,Soriano,,0,0,0,competitive,,0.713145017624,1694.40513706,4.28685498238,1698.86250401,6,1704.86262393,0,1704.87842607,1706.59187794,1706.6812489,1709.68421412,0,1709.69876504,1714.02486205,
sujeto_649d6cd3,1,4,4,68,1714.1836381,inverse,3,1,2,"¿Cuál es el apellido de las 
hermanastras  de  cenicienta?",Tremaine,Truman,,0,0,1,individual,left,3.30788016319,1717.49158692,1.69211983681,1719.34126902,3.01235795021,1722.35369301,2.98764204979,1725.37592101,1727.24549603,1727.29392505,1730.29692101,0,1730.31153393,1733.00748897,
sujeto_649d6cd3,1,4,5,69,1733.16530299,direct,4,1,4,"¿Cuál película ganó un
 Oscar a mejor película?",Alto Impacto,Cache,,0,0,1,competitive,left,1.04168081284,1734.20706105,3.95831918716,1738.31855702,3.87957811356,1742.19819307,2.12042188644,1744.36942005,1745.48797989,1745.57020998,1748.57318711,0,1748.58842397,1750.85307193,
sujeto_649d6cd3,1,4,6,70,1751.00900197,inverse,1,1,3,"¿A cuántos centímetros
equivale la medida pié?",25,30,,0,0,1,competitive,left,0.902693033218,1751.91176009,4.09730696678,1756.19352388,5.2749979496,1761.46857905,0.7250020504,1762.22804403,1763.26805091,1763.34548092,1766.34845209,0,1766.36305094,1771.76400089,
sujeto_649d6cd3,1,4,7,71,1771.91416001,direct,2,1,2,¿Qué departamento es mas grande?,Cerro Largo,Paysandú,,0,0,0,competitive,left,0.832659959793,1772.7468679,4.16734004021,1777.07216001,2.996778965,1780.06899905,3.003221035,1783.12301612,1784.7227931,1784.80795908,1787.81094003,0,1787.82551003,1791.93547106,
sujeto_649d6cd3,1,4,8,72,1792.07688308,inverse,2,1,3,¿Quién pintó la Mona Lisa?,Picasso,Da Vinci,right,0,0,1,competitive,right,0.984373092651,1793.06132889,4.01562690735,1797.23361206,2.24577903748,1799.47943497,3.75422096252,1803.26601696,1804.87189102,1804.95143509,1807.95440197,1,1807.9697001,1810.1314671,
sujeto_649d6cd3,1,4,9,73,1810.28902888,direct,4,1,3,¿Cuántos litros hay en un galon?,3.54,3.78,,1,1,1,competitive,right,0.843668937683,1811.1327579,4.15633106232,1815.43850493,3.97435808182,1819.41290307,2.02564191818,1821.47429299,1822.99212193,1823.07605696,1826.07903099,1,1826.09375405,1831.8860991,
sujeto_649d6cd3,1,4,10,74,1832.02762008,inverse,4,1,1,"¿Cuántas teclas tiene
 un piano moderno?",80,88,,0,0,1,competitive,right,1.74256896973,1833.77023101,3.25743103027,1837.18818092,3.37209200859,1840.56030893,2.62790799141,1843.23929596,1844.24776602,1844.34063697,1847.343606,0,1847.357481,1854.15524507,
sujeto_649d6cd3,1,4,11,75,1854.30958796,direct,4,1,3,¿Cuántos países hay en África?,54,62,,0,0,1,competitive,,1.27901101112,1855.58866191,3.72098898888,1859.467345,6,1865.467484,0,1865.48237705,1867.17291594,1867.25212312,1870.25510812,0,1870.270509,1878.07527995,
sujeto_649d6cd3,1,4,12,76,1878.220541,inverse,1,1,3,"¿En qué siglo se crearon
 las primeras pistolas?",XV,XIII,,1,1,1,competitive,right,1.37572097778,1879.59632802,3.62427902222,1883.36249804,3.52489900589,1886.88746309,2.47510099411,1889.41454411,1891.36242604,1891.4492209,1894.45207,1,1894.46660709,1897.6997149,
sujeto_649d6cd3,1,4,13,77,1897.83529305,direct,3,1,4,"¿En qué año se estrenó 
la serie friends?",1994,1995,,0,0,1,competitive,right,0.827412128448,1898.66276598,4.17258787155,1902.98826408,3.59360313416,1906.58190989,2.40639686584,1909.02381492,1910.89912891,1910.97591496,1913.97890902,0,1913.99313307,1918.99921203,
sujeto_649d6cd3,1,4,14,78,1919.14484501,inverse,3,1,4,¿En qué año nació Hitler?,1889,1887,,0,0,1,competitive,left,3.5864470005,1922.73133707,1.4135529995,1924.30100989,4.06834697723,1928.36939692,1.93165302277,1930.35032511,1931.4639771,1931.53476095,1934.537709,0,1934.55251098,1939.57950091,
sujeto_649d6cd3,1,4,15,79,1939.7200551,direct,1,1,4,¿Cuánto pesa un elefante Africano?,6000 kilos,5400 kilos,,0,0,0,competitive,left,0.821664094925,1940.54178095,4.17833590508,1944.88007092,2.84480905533,1947.72491908,3.15519094467,1950.93016291,1952.28605103,1952.36524606,1955.368222,0,1955.38300395,1962.09005189,
sujeto_649d6cd3,1,4,16,80,1962.23401594,inverse,1,1,2,"¿Qué porcentaje de 
la población es zurda?",10%,7%,,1,1,0,,,,,,,,,,,,,,,1967.24198508,1973.22171807,
sujeto_649d6cd3,1,4,17,81,1973.36096597,direct,1,1,2,"¿En qué año se estrenó
Volver al futuro?",1984,1985,,0,0,1,competitive,right,0.567562818527,1973.92860889,4.43243718147,1978.54638791,3.00633597374,1981.55278301,2.99366402626,1984.59816694,1986.15999103,1986.24973989,1989.25270796,0,1989.2675159,1996.35897207,
sujeto_649d6cd3,1,4,18,82,1996.50195694,inverse,3,1,2,"¿Cuántos jugadores hay en un 
equipo de baseball?",9,8,,1,1,0,competitive,left,0.597528934479,1997.09955692,4.40247106552,2001.66064405,2.87760019302,2004.53828597,3.12239980698,2007.6943481,2009.30863094,2009.39559293,2012.39858103,1,2012.413095,2017.39031291,
sujeto_649d6cd3,1,4,19,83,2017.53091788,direct,2,1,1,"¿Cuántos Oscar ganó
 la película titanic?",13,11,,1,1,1,competitive,right,1.04264903069,2018.57361102,3.95735096931,2022.67169404,1.17702507973,2023.84875703,4.82297492027,2028.72115111,2030.02322102,2030.1071651,2033.11014795,1,2033.12436104,2037.72305989,
sujeto_649d6cd3,1,4,20,84,2037.8593719,inverse,4,1,4,"¿En qué año comenzó
la segunda guerra mundial?",1939,1976,left,0,0,1,competitive,left,1.58472490311,2039.44416094,3.41527509689,2043.0162499,4.18398690224,2047.200279,1.81601309776,2049.06633711,2050.86619592,2050.95054102,2053.95352888,1,2053.96756101,2057.95472097,
sujeto_649d6cd3,1,4,21,85,2058.08479095,direct,2,1,4,¿Cuántos biomas hay en Uruguay?,5,4,,0,0,1,competitive,left,0.726773023605,2058.81166291,4.27322697639,2063.243325,3.58239483833,2066.82578397,2.41760516167,2069.29472494,2071.09209704,2071.17854095,2074.18153405,0,2074.19618797,2080.445611,
sujeto_649d6cd3,1,4,22,86,2080.58144093,inverse,2,1,3,¿Cuándo murió Pablo Escobar?,1993,1997,,1,1,1,competitive,right,4.03671598434,2084.6182251,0.963284015656,2085.72214198,2.3030500412,2088.02522612,3.6969499588,2091.77297211,2093.55582905,2093.64152408,2096.64450908,1,2096.6591661,2102.36284089,
sujeto_649d6cd3,1,4,23,87,2102.51086092,direct,1,1,4,¿Qué serie ha ganado mas premios?,Friends,Murphy Brown,,1,1,0,competitive,left,0.774740934372,2103.28566599,4.22525906563,2107.66733599,2.39848899841,2110.06588411,3.60151100159,2113.71558309,2115.06798601,2115.1503911,2118.15339589,1,2118.16771698,2123.729352,
sujeto_649d6cd3,1,4,24,88,2123.86929989,inverse,4,1,2,¿Cuántas fichas tiene el dominó?,26,28,,1,1,1,competitive,right,3.2188949585,2127.08825994,1.7811050415,2129.0262959,3.55904197693,2132.58540297,2.44095802307,2135.0802629,2136.13559198,2136.21465397,2139.2176249,1,2139.23231196,2144.47539997,
sujeto_649d6cd3,1,4,25,89,2144.61654997,direct,2,1,4,¿Cuántos son los dientes de leche?,20,25,,0,0,1,competitive,left,0.766175031662,2145.38279104,4.23382496834,2149.78958511,1.6312019825,2151.4208231,4.3687980175,2155.83984303,2157.55017996,2157.62569189,2160.62868309,0,2160.64332008,2162.7890141,
sujeto_649d6cd3,1,4,26,90,2162.92799497,inverse,3,1,3,¿Cuántos gramos son una onza?,22,28,,0,0,1,,,,,,,,,,,,,,,2167.95001101,2174.23510289,
sujeto_649d6cd3,1,4,27,91,2174.37755394,direct,3,1,1,"¿Cuándo salió el primer album
 de los Beatles?",1963,1962,,1,1,1,competitive,left,0.567893028259,2174.94551301,4.43210697174,2179.53872204,3.24486708641,2182.78364992,2.75513291359,2185.57270503,2186.7363019,2186.80756211,2189.81051493,1,2189.82529998,2193.59734297,
sujeto_649d6cd3,1,4,28,92,2193.72683692,inverse,3,1,3,¿Quién fundó la empresa apple?,Carlos Slim,Steve Jobs,,1,1,1,competitive,right,1.50112509727,2195.22801805,3.49887490273,2198.88316703,2.64096808434,2201.52417493,3.35903191566,2204.93309903,2206.04780698,2206.11835599,2209.11852908,1,2209.13569593,2215.433568,
sujeto_649d6cd3,1,4,29,93,2215.58760405,direct,4,1,2,"¿Cuántos municipios hay
 en Montevideo?",8,7,,1,1,1,competitive,right,0.969844102859,2216.55749989,4.03015589714,2220.76119804,5.78546118736,2226.54671788,0.214538812637,2226.81315207,2228.72792411,2228.81321597,2231.81621099,1,2231.83101392,2233.91216898,
sujeto_649d6cd3,1,4,30,94,2234.06096101,inverse,1,1,1,"¿Cuántos kilómetros hay
 de Montevideo a Artigas?",632,599,,0,0,0,,,,,,,,,,,,,,,2239.08339405,2245.13551688,
sujeto_649d6cd3,1,4,31,95,2245.27075005,direct,2,1,2,"¿En qué año nació 
Leonardo Da Vinci?",1452,1511,,1,1,0,competitive,left,1.0294110775,2246.30022192,3.9705889225,2250.42786789,3.28648710251,2253.7143991,2.71351289749,2256.47879505,2258.332026,2258.41315198,2261.41613889,1,2261.4315269,2264.57797003,
sujeto_649d6cd3,1,4,32,96,2264.73195791,inverse,3,1,1,"¿A qué continente
 pertenece el país Gabón?",Africa,Oceanía,,0,0,1,competitive,left,2.50773000717,2267.23973489,2.49226999283,2269.901191,4.63368296623,2274.53494811,1.36631703377,2275.93987489,2277.75100207,2277.82361293,2280.82661605,0,2280.84198189,2286.07994509,
