"code","nro_aplicante","nro_bloque","nro_trial_bloque","nro_trial_global","show_game_type","choice_order","rival","pay_individual","pay_competitive","question","answer_left_text","answer_right_text","correct_answer","outcome_individual","outcome_competitive","outcome_rival","game_type","answer","social_time","rt_game_type","feedback_delay","show_question","answer_time","rt_answer_global","feedback_delay_2","show_jitter","jitter_time","show_outcome","outcome_time","outcome_participant_real","show_final_jitter","second_jitter_time","inicio_descanso"
"sujeto_0000621","1","1","1","1","45.6027989388","direct","3","1","4","¿Cuántos centímetros corresponden
al talle 36 del calzado?","23","24","","0","0","1","competitive","right","1.32302689552","46.9258899689","3.67697310448","50.7550749779","3.46981096268","54.2249310017","2.53018903732","56.8066630363","57.8349590302","57.9080049992","60.9109671116","0","60.9250519276","63.0875890255",""
"sujeto_0000621","1","1","2","2","63.2277369499","inverse","3","1","2","¿Cuántas metros mide la Intendencia
Municipal de Montevideo? ","84","78","","0","0","1","competitive","right","1.61910104752","64.8468821049","3.38089895248","68.3834569454","3.82543087006","72.2089540958","2.17456912994","74.4173350334","76.2944071293","76.3679659367","79.370898962","0","79.386193037","81.4789500237",""
"sujeto_0000621","1","1","3","3","81.604186058","direct","1","1","3","¿Cuántas La Pasiva
 hay en uruguay?","15","11","","1","1","1","competitive","left","1.04568910599","82.649944067","3.95431089401","86.7593591213","2.086550951","88.8459720612","3.913449049","92.8096380234","94.4213180542","94.4946379662","97.4976160526","1","97.5127339363","101.79107213",""
"sujeto_0000621","1","1","4","4","101.931711912","inverse","3","1","3","¿De que color es la camiseta de uruguay?","blanca","celeste","right","1","1","1","competitive","right","0.966176986694","102.89793396","4.03382301331","107.086471081","2.36240911484","109.448945045","3.63759088516","113.12015295","114.324918985","114.405049086","117.407956123","1","117.422048092","120.875970125",""
"sujeto_0000621","1","1","5","5","121.026499033","direct","2","1","1","¿Cuánto metros mide
la torre Eiffel?","333","324","","1","1","1","competitive","left","1.17434597015","122.200890064","3.82565402985","126.180221081","2.36868309975","128.548947096","3.63131690025","132.230070114","133.751426935","133.831953049","136.834931135","1","136.849349976","143.882427931",""
"sujeto_0000621","1","1","6","6","144.020982027","inverse","3","1","4","¿Cuantas ciudades existen
 en todo el uruguay?","63","72","","0","0","1","competitive","right","1.01490783691","145.035938978","3.98509216309","149.175205946","2.52166295052","151.696914911","3.47833704948","155.225448132","156.280271053","156.373497963","159.376470089","0","159.394779921","167.021371126",""
"sujeto_0000621","1","1","7","7","167.179521084","direct","1","1","1","¿Cuantos estados tiene África?","52","54","","1","1","0","competitive","left","0.86834692955","168.047914028","4.13165307045","172.353687048","3.04720187187","175.400929928","2.95279812813","178.387738943","180.251737118","180.322818041","183.325773001","1","183.339663029","189.100687981",""
"sujeto_0000621","1","1","8","8","189.244463921","inverse","4","1","4","¿En qué año nació
 Stephen Hawking?","1952","1942","","0","0","1","competitive","left","0.892465114594","190.136996031","4.10753488541","194.395820141","3.40212988853","197.797991037","2.59787011147","200.44780612","201.892117023","201.965513945","204.968497038","0","204.982689142","211.082056046",""
"sujeto_0000621","1","1","9","9","211.217339993","direct","2","1","3","¿Cuánto años tenía Artigas
 cuando se fue a Paraguay?","56","57","","1","1","1","competitive","left","0.800592899323","212.018000126","4.19940710068","216.376426935","3.06052899361","219.437016964","2.93947100639","222.409922123","223.958464146","224.044764042","227.046431065","1","227.062746048","233.110021114",""
"sujeto_0000621","1","1","10","10","233.249633074","inverse","1","1","2","¿Cuantos milímetros 
mide una hoja A2?","420x592","420x594","","0","0","1","competitive","left","0.737331151962","233.987009048","4.26266884804","238.387604952","5.11729693413","243.50494194","0.882703065872","244.439366102","246.006467104","246.073055983","249.075993061","0","249.090065002","256.163722038",""
"sujeto_0000621","1","1","11","11","256.295277119","direct","3","1","3","¿Cuál es la menor temperatura 
registrada en Uruguay?","-5.4","-7.4","","0","0","1","competitive","right","0.707669973373","257.003014088","4.29233002663","261.44929409","3.11962819099","264.568984032","2.88037180901","267.499884129","269.181931019","269.251034975","272.254015923","0","272.268953085","276.002247095",""
"sujeto_0000621","1","1","12","12","276.13558197","inverse","2","1","2","¿Cuantos años hace que 
se fundó facebook?","18","17","","0","0","0","competitive","right","0.837422847748","276.973067999","4.16257715225","281.274730921","2.44919300079","283.723966122","3.55080699921","287.326175928","288.698359966","288.778273106","291.78126812","0","291.795180082","294.569800138",""
"sujeto_0000621","1","1","13","13","294.697226048","direct","1","1","4","¿Cuál animal es más
 pesado en promedio?","Rinoceronte","Hipopotamo","","0","0","0","competitive","right","0.844752788544","295.54205513","4.15524721146","299.901698112","2.60028195381","302.502047062","3.39971804619","305.953190088","307.032433033","307.104367971","310.107362032","0","310.121741056","313.962755919",""
"sujeto_0000621","1","1","14","14","314.091756105","inverse","1","1","2","¿Qué personaje de dragon ball 
murió más veces?","Chaoz","Krillin","","1","1","0","competitive","right","0.882233142853","314.974065065","4.11776685715","319.245568991","3.02447485924","322.27008605","2.97552514076","325.296705961","326.754543066","326.830549955","329.833467007","1","329.847533941","337.618582964",""
"sujeto_0000621","1","1","15","15","337.770883083","direct","3","1","2","La universidad de oxford. 
existe desde:","1096","1249","","1","1","0","competitive","left","0.818157196045","338.589168072","4.18184280396","342.941651106","2.82838702202","345.770079136","3.17161297798","348.975081921","350.023844004","350.093250036","353.096220016","1","353.111093044","359.801922083",""
"sujeto_0000621","1","1","16","16","359.948496103","inverse","3","1","1","¿Qué escritor latino ganó antes
 el premio nobel?"," García Marquez","Neruda","","0","0","1","competitive","left","1.34848403931","361.297045946","3.65151596069","365.100451946","3.36355495453","368.464071035","2.63644504547","371.152514935","372.892511129","372.970381975","375.973334074","0","375.987460136","379.446449995",""
"sujeto_0000621","1","1","17","17","379.591192961","direct","4","1","3","¿Cuántos dientes tiene un
 tiburón blanco?","6000","3000","","0","0","1","competitive","right","0.822841882706","380.414104939","4.17715811729","384.745548964","2.61756300926","387.363178015","3.38243699074","390.796263933","391.834438086","391.915292978","394.918287039","0","394.932713985","399.742392063",""
"sujeto_0000621","1","1","18","18","399.90260601","inverse","4","1","1","¿Cuánto mide el paralelo Ecuador?","40.000km","70.000km","","0","0","1","competitive","right","0.701437950134","400.604151964","4.29856204987","405.072930098","2.41503596306","407.488029003","3.58496403694","411.123008013","413.078405142","413.15940094","416.162373066","0","416.176388979","419.77889204",""
"sujeto_0000621","1","1","19","19","419.910774946","direct","4","1","2","¿Cuál fue el primer libro 
de Stephen King?","Carrie","The Stand","","1","1","1","individual","right","2.50124788284","422.412068129","2.49875211716","425.082340002","2.45067381859","427.533056974","3.54932618141","431.134367943","432.878425121","432.919533968","435.922501087","1","435.937410116","440.410434008",""
"sujeto_0000621","1","1","20","20","440.538666964","inverse","2","1","3","¿Qué civilización practicaba
 la momificación?","Grecia","Egipto","right","0","0","1","competitive","right","0.694427013397","441.233174086","4.3055729866","445.693871975","2.22116303444","447.915076017","3.77883696556","451.74435997","453.683655977","453.763222933","456.766204119","1","456.780831099","461.009634018",""
"sujeto_0000621","1","1","21","21","461.15071702","direct","4","1","4","¿Cuántos millones de visitas
 recibe google por minuto?","3.0","4.5","","0","0","1","competitive","right","0.85932803154","462.010096073","4.14067196846","466.320879936","2.749147892","469.070089102","3.250852108","472.371731043","473.886423111","473.957014084","476.95994401","0","476.974014997","484.096688032",""
"sujeto_0000621","1","1","22","22","484.262938976","inverse","1","1","3","La máquina de fax. se inventó en:","1843","1960","","0","0","1","competitive","right","0.669263839722","484.932248116","4.33073616028","489.400322914","2.31170392036","491.712069035","3.68829607964","495.433593035","496.675672054","496.75215292","499.754390955","0","499.769468069","503.005794048",""
"sujeto_0000621","1","1","23","23","503.139665127","direct","2","1","4","En la verdadera historia de los
 300 espartanos. habían:","300 soldados","4300 soldados","","1","1","1","competitive","left","0.858415126801","503.998147011","4.1415848732","508.323432922","4.39866495132","512.722158909","1.60133504868","514.376444101","515.637619972","515.711095095","518.714056015","1","518.728276014","522.530029058",""
"sujeto_0000621","1","1","24","24","522.663020134","inverse","1","1","4","¿Cuántos milímetros crece
 el pelo por día?","0.4","0.04","","0","0","0","competitive","right","0.724038124084","523.387104034","4.27596187592","527.819164038","2.47293615341","530.292165041","3.52706384659","533.869781971","535.630404949","535.70572114","538.708703041","0","538.722818136","545.457891941",""
"sujeto_0000621","1","1","25","25","545.594556093","direct","4","1","1","¿Cuánto mide la baldosa gris 
clásica de Montevideo?","22x22 cm.","20x20 cm.","","1","1","1","competitive","left","0.908521175385","546.503121138","4.09147882462","550.748892069","3.15419912338","553.903132915","2.84580087662","556.798820019","558.794060946","558.866550922","561.869534016","1","561.884899139","567.427700996",""
"sujeto_0000621","1","1","26","26","567.588866949","inverse","2","1","2","¿Cuántas películas de rápidos
 y furiosos hay?","10","11","","1","1","0","competitive","left","0.876220941544","568.465157032","4.12377905846","572.743117094","3.73894810677","576.482128143","2.26105189323","578.793674946","580.151683092","580.228939056","583.23190093","1","583.245665073","585.28036809",""
"sujeto_0000621","1","1","27","27","585.413483143","direct","3","1","1","¿Cuántos masters 1000
 ganó Del Potro?","1","2","","1","1","1","competitive","right","0.877654075623","586.291182041","4.12234592438","590.565799952","2.43428301811","593.000124931","3.56571698189","596.617934942","598.372550964","598.453006983","601.455936909","1","601.470952034","608.867255926",""
"sujeto_0000621","1","1","28","28","609.005994081","inverse","2","1","4","¿Cuántos meses dura el 
embarazo de una leona?","3 meses","4 meses","","0","0","1","competitive","right","0.771179199219","609.777219057","4.22882080078","614.164614916","2.68151903152","616.846177101","3.31848096848","620.214486122","621.325562","621.399923086","624.402914047","0","624.417297125","631.139787912",""
"sujeto_0000621","1","1","29","29","631.271692991","direct","1","1","1","¿En qué año fue creado
 el sandwich?","1762","1653","","1","1","0","competitive","right","0.80043387413","632.07219696","4.19956612587","636.425414085","2.99374008179","639.41921401","3.00625991821","642.45936203","644.057930946","644.127891064","647.130420923","1","647.145776987","650.614377022",""
"sujeto_0000621","1","1","30","30","650.783285141","inverse","4","1","2","El nombre de la moneda de Vietnam es:","Dinar","Dong","","0","0","1","competitive","right","0.88684797287","651.670198917","4.11315202713","655.919352055","2.35077023506","658.270164967","3.64922976494","661.969975948","663.401919127","663.48756814","666.490396976","0","666.505428076","672.673878908",""
"sujeto_0000621","1","1","31","31","672.84333992","direct","2","1","1","¿cuantos aleteos puede dar 
un colibrí por segundo?","120","50","","0","0","0","competitive","left","0.641843080521","673.48525095","4.35815691948","678.010715008","2.33651399612","680.347295046","3.66348600388","684.062973976","685.795373917","685.864174128","688.86642313","0","688.88271594","693.094950914",""
"sujeto_0000621","1","1","32","32","693.235738993","inverse","4","1","3","¿Qué altura promedio tienen
 los hombres uruguayos?","1.73 m","1.72 m","","1","1","1","competitive","left","1.9354839325","695.171272993","3.0645160675","698.391557932","2.0135679245","700.405168056","3.9864320755","704.424721003","705.686388016","705.76010704","708.763039112","1","708.777112961","713.253005981",""
"sujeto_0000621","1","2","1","33","837.461997986","direct","1","1","1","¿En qué año nació 
el actor Bradd Pitt?","1967","1963","","1","1","1","competitive","left","0.753270864487","838.215345144","4.24672913551","842.632394075","2.35476708412","844.987215996","3.64523291588","848.682604074","849.778460979","849.850903034","852.853909969","1","852.868406057","858.796010971","713.267766953"
"sujeto_0000621","1","2","2","34","858.953114986","inverse","2","1","1","¿Cual es el segundo 
monte más alto?","Kanchenjunga","K2","","1","1","1","competitive","right","0.889065980911","859.842246056","4.11093401909","864.110023022","2.66120386124","866.771268129","3.33879613876","870.143481016","871.595896006","871.679121017","874.68204093","1","874.696465015","878.126364946",""
"sujeto_0000621","1","2","3","35","878.266041994","direct","3","1","1","¿Cuándo finalizó la construcción
 del Palacio Legislativo?","1925","1917","","0","0","1","competitive","left","0.642241954803","878.908330917","4.3577580452","883.419951916","2.42334198952","885.843336105","3.57665801048","889.470185995","891.111887932","891.188075066","894.191046953","0","894.206097126","899.903674126",""
"sujeto_0000621","1","2","4","36","900.03987813","inverse","3","1","3","¿Cuántos integrantes tenía
 en su inicio  el cuarteto de nos?","3","4","","1","1","1","competitive","left","0.668404102325","900.708328009","4.33159589767","905.196349144","2.68586111069","907.882267952","3.31413888931","911.247550964","912.380650997","912.449738979","915.450421095","1","915.466742039","921.114426136",""
"sujeto_0000621","1","2","5","37","921.251559973","direct","2","1","3","¿Qué valor tiene el número pi?","3.14","4.18","left","0","0","1","competitive","left","0.626814842224","921.878482103","4.37318515778","926.425039053","1.95823216438","928.38333106","4.04176783562","932.475512981","933.929678917","934.010185003","937.013145924","1","937.027302027","943.948280096",""
"sujeto_0000621","1","2","6","38","944.083199978","inverse","2","1","2","¿Cuál es la esperanza de vida
 en Uruguay?","75","77","","1","1","0","competitive","left","0.5130879879","944.596338987","4.4869120121","949.237157106","2.83214306831","952.069342136","3.16785693169","955.287321091","956.941128016","957.02257514","960.025557041","1","960.039722919","966.502429962",""
"sujeto_0000621","1","2","7","39","966.660949945","direct","1","1","2","¿Cuantos pisos tiene la torre 
de las comunicaciones?","26","32","","1","1","0","competitive","left","0.558353900909","967.219353914","4.44164609909","971.831593037","2.94272899628","974.774384022","3.05727100372","977.86520195","979.693984985","979.766716957","982.769706964","1","982.784732103","984.930938005",""
"sujeto_0000621","1","2","8","40","985.067528009","inverse","2","1","4","¿En qué país sudamericano 
no hay McDonalds?","Bolivia","Venezuela","","0","0","1","competitive","left","0.652793884277","985.720367908","4.34720611572","990.222590923","2.30464506149","992.527295113","3.69535493851","996.275270939","997.58464098","997.660478115","1000.66346002","0","1000.67736793","1007.03709793",""
"sujeto_0000621","1","2","9","41","1007.1614871","direct","3","1","1","¿En qué año empieza
 la Edad Media?","476","512","","1","1","1","competitive","left","0.650791168213","1007.81232214","4.34920883179","1012.31937099","2.09494400024","1014.41437697","3.90505599976","1018.35239792","1019.75608206","1019.836766","1022.83975101","1","1022.85505295","1025.8423841",""
"sujeto_0000621","1","2","10","42","1025.97293901","inverse","3","1","4","¿Hace cuántos años surgió
 el ser humano?","200mil","300mil","","0","0","0","competitive","right","0.633404970169","1026.60642099","4.36659502983","1031.12892509","2.99838399887","1034.12737107","3.00161600113","1037.17910314","1039.06512499","1039.14800191","1042.15099812","0","1042.1651051","1045.47557998",""
"sujeto_0000621","1","2","11","43","1045.60020208","direct","3","1","4","¿Cuántas cuadras tiene
 actualmente 18 de julio? ","36","33","","0","0","1","competitive","left","0.872133970261","1046.47241211","4.12786602974","1050.75586891","3.73944592476","1054.49537706","2.26055407524","1056.80742908","1058.50967002","1058.59148812","1061.59442592","0","1061.60850906","1066.33480191",""
"sujeto_0000621","1","2","12","44","1066.45983911","inverse","1","1","4","¿Qué juego de equipo se 
considera mas rápido?","Lacrosse","Badminton","","0","0","0","competitive","left","0.599487066269","1067.05937004","4.40051293373","1071.63046098","2.73689484596","1074.36741495","3.26310515404","1077.68202305","1078.9251411","1079.00060606","1082.00359392","0","1082.01796794","1090.00644302",""
"sujeto_0000621","1","2","13","45","1090.13640594","direct","1","1","3","¿Qué promedio de edad 
vive una jirafa? ","25","20","","0","0","1","competitive","left","0.545969963074","1090.68245006","4.45403003693","1095.29553509","1.31182599068","1096.60742211","4.68817400932","1101.32849693","1103.09001803","1103.16436505","1106.16640306","0","1106.18172312","1112.137393",""
"sujeto_0000621","1","2","14","46","1112.28354692","inverse","1","1","2","¿Cuántos grandes lagos hay?","7","5","","0","0","1","competitive","left","2.38784599304","1114.67143607","2.61215400696","1117.42374206","1.45066714287","1118.87445092","4.54933285713","1123.45681214","1124.74893713","1124.82576704","1127.82638311","0","1127.843786","1135.66239214",""
"sujeto_0000621","1","2","15","47","1135.79391098","direct","3","1","2","¿Cuántos discos de estudio
 grabó Johhny Cash? ","54","43","","1","1","0","competitive","left","0.647444009781","1136.4413991","4.35255599022","1140.95218301","2.35421895981","1143.30644202","3.64578104019","1147.00224614","1148.28087807","1148.35451293","1151.35750198","1","1151.37145805","1158.02235293",""
"sujeto_0000621","1","2","16","48","1158.15659308","inverse","4","1","1","¿Cuántos barrios tiene
 Montevideo? ","71","62","","0","0","1","competitive","left","2.93475413322","1161.09140801","2.06524586678","1163.34645605","1.64588284492","1164.99237609","4.35411715508","1169.39720511","1170.40423703","1170.48327208","1173.48620605","0","1173.50003314","1178.96205902",""
"sujeto_0000621","1","2","17","49","1179.10190701","direct","3","1","3","¿Qué edad tiene Homero Simpson?","36","42","","0","0","1","competitive","left","0.662551879883","1179.76457","4.33744812012","1184.27134395","1.77804493904","1186.04945111","4.22195506096","1190.30628014","1191.68230295","1191.75881314","1194.76179695","0","1194.77621794","1199.16497111",""
"sujeto_0000621","1","2","18","50","1199.29653096","inverse","4","1","2","¿Cuántos países con monarquía 
hay en europa actualmente? ","6","10","","1","1","1","competitive","left","0.741870880127","1200.03844595","4.25812911987","1204.45186806","2.4115319252","1206.86344099","3.5884680748","1210.48539209","1211.92363906","1212.00379896","1215.00677109","1","1215.02116299","1221.17439008",""
"sujeto_0000621","1","2","19","51","1221.30634403","direct","2","1","3","¿Cuántos capítulos de
 Friends existen? ","236","228","","1","1","1","competitive","left","0.937124967575","1222.24354005","4.06287503242","1226.46292496","1.94847202301","1228.41143799","4.05152797699","1232.51226902","1233.81782794","1233.89815402","1236.90115404","1","1236.91614604","1239.29177904",""
"sujeto_0000621","1","2","20","52","1239.43505692","inverse","1","1","3","¿Cuántas óperas compuso Mozart? ","27","22","","1","1","1","competitive","right","0.631360054016","1240.06646013","4.36863994598","1244.58616996","1.94128108025","1246.52751207","4.05871891975","1250.63793612","1251.93010402","1252.00697899","1255.00993514","1","1255.02396607","1262.33543801",""
"sujeto_0000621","1","2","21","53","1262.47953391","direct","4","1","3","¿Cuántos mundiales de fútbol 
femenino ha realizado FIFA? ","9","7","","1","1","1","competitive","left","1.17090892792","1263.65049005","3.82909107208","1267.617172","2.49719285965","1270.11440206","3.50280714035","1273.66772795","1274.91141295","1274.98581791","1277.98880506","1","1278.00398707","1284.10644913",""
"sujeto_0000621","1","2","22","54","1284.24127913","inverse","3","1","2","¿Cuál es la temperatura 
media anual en Montevideo? ","17.5","16.3","","0","0","1","competitive","left","0.686130046844","1284.92745495","4.31386995316","1289.39446998","3.09291386604","1292.48742509","2.90708613396","1295.42813897","1297.36670709","1297.44651508","1300.44950294","0","1300.46463203","1307.03417397",""
"sujeto_0000621","1","2","23","55","1307.16574097","direct","2","1","2","¿En qué año se estrenó el
 videojuego The Sims? ","2000","2002","","0","0","0","competitive","left","0.661709070206","1307.82751298","4.33829092979","1312.32365298","2.44584488869","1314.76955795","3.55415511131","1318.35726094","1320.21836901","1320.29286909","1323.29582","0","1323.30976605","1330.70237303",""
"sujeto_0000621","1","2","24","56","1330.84615707","inverse","2","1","1","¿Cuál es la canción con 
mas covers? ","Yesterday","Stand by me","","0","0","0","competitive","left","0.601368188858","1331.44759202","4.39863181114","1336.01908803","2.40140891075","1338.42053604","3.59859108925","1342.06981897","1343.46832108","1343.5376091","1346.54054809","0","1346.555511","1350.72625399",""
"sujeto_0000621","1","2","25","57","1350.87411499","direct","1","1","4","¿Cuánto duró la guerra
 de los 100 años?","116","123","","0","0","0","competitive","left","0.626402854919","1351.50058413","4.37359714508","1356.02681303","2.90565180779","1358.93250799","3.09434819221","1362.07855511","1363.55935097","1363.63048601","1366.63343096","0","1366.64755607","1368.96730208",""
"sujeto_0000621","1","2","26","58","1369.09975195","inverse","4","1","4","¿Qué color tiene la  bandera de Brasil?","Amarillo","Naranja","left","0","0","1","competitive","left","0.62878203392","1369.72860909","4.37121796608","1374.25610709","2.27837991714","1376.53452706","3.72162008286","1380.28955007","1381.85608101","1381.9244051","1384.92734313","1","1384.94176507","1387.97457004",""
"sujeto_0000621","1","2","27","59","1388.14473295","direct","4","1","3","¿Qué carabela de 
Colon no volvió del viaje?","Santa María","La pinta","","0","0","1","competitive","left","0.621829986572","1388.76667309","4.37817001343","1393.33192897","3.55260300636","1396.88457298","2.44739699364","1399.38324308","1400.87432814","1400.95167708","1403.95462298","0","1403.96872902","1406.06637001",""
"sujeto_0000621","1","2","28","60","1406.20403194","inverse","4","1","4","¿Cuántos huesos tiene
 un adulto humano?","217","206","","0","0","1","competitive","left","0.54851603508","1406.75259304","4.45148396492","1411.37226701","2.09625482559","1413.46858191","3.90374517441","1417.40685296","1418.67785907","1418.75895214","1421.76187801","0","1421.77607512","1429.61038303",""
"sujeto_0000621","1","2","29","61","1429.74878192","direct","1","1","1","¿Qué país africano fue 
fundado por esclavos?","Liberia","Chad","","0","0","0","competitive","left","0.583735942841","1430.33256197","4.41626405716","1434.90386796","2.70962285995","1437.61355305","3.29037714005","1440.95455813","1442.94621491","1443.02274609","1446.02573895","0","1446.04003406","1454.03088713",""
"sujeto_0000621","1","2","30","62","1454.15790009","inverse","4","1","2","¿A cuánto asciende la cima
 del monte Everest?","7.990 mts","8.848 mts","","0","0","1","competitive","right","0.584666013718","1454.74261498","4.41533398628","1459.31581092","4.04268503189","1463.35855699","1.95731496811","1465.35041904","1466.53528905","1466.61884093","1469.62177014","0","1469.63595605","1476.81999898",""
"sujeto_0000621","1","2","31","63","1476.95781398","direct","4","1","1","¿Cuál es el país mas chico?","Sealand","Luxemburgo","","1","1","1","competitive","right","0.674716949463","1477.63257408","4.32528305054","1482.11119008","1.86937117577","1483.9806211","4.13062882423","1488.16156197","1490.02508402","1490.096874","1493.09984803","1","1493.11382794","1496.23611403",""
"sujeto_0000621","1","2","32","64","1496.38394308","inverse","2","1","4","¿Cuántas pirámides hay en Egipto?","10000","11000","","1","1","1","competitive","right","0.706660985947","1497.09066796","4.29333901405","1501.53623605","2.88433694839","1504.42063999","3.11566305161","1507.58790398","1508.62144899","1508.69004297","1511.69037104","1","1511.70745206","1516.816504",""
"sujeto_0000621","1","3","1","65","1639.35797811","direct","2","1","2","¿Cuál es el quinto país con 
mas extensión?","Canadá","Brasil","","1","1","0","competitive","left","4.59967517853","1643.95769811","0.400324821472","1644.51213813","2.42551898956","1646.93770099","3.57448101044","1650.56152511","1651.89481997","1651.96333313","1654.96633911","1","1654.98037195","1662.70675302","1516.8317101"
"sujeto_0000621","1","3","2","66","1662.83201599","inverse","1","1","2","¿Qué rasgo facial no tiene
 la Mona Lisa?","Cejas","Pómulos","","0","0","1","competitive","left","0.63766002655","1663.46972203","4.36233997345","1667.98816514","2.99653506279","1670.98476911","3.00346493721","1674.02250504","1675.77290702","1675.84113693","1678.84244299","0","1678.85890603","1685.13023591",""
"sujeto_0000621","1","3","3","67","1685.28035903","direct","4","1","3","¿Cuál es el país con 
mayor población?","Esados Unidos","China","right","0","0","1","competitive","left","0.508352041245","1685.78877592","4.49164795876","1690.45132804","1.8102710247","1692.26165795","4.1897289753","1696.50218511","1698.14816904","1698.22052908","1701.22347498","0","1701.23761296","1704.60244799",""
"sujeto_0000621","1","3","4","68","1704.73942399","inverse","1","1","1","La palabra dinosaurio significa","Lagarto Terrible","Lagarto Dragón","","1","1","0","competitive","left","1.22126603127","1705.96073294","3.77873396873","1709.89549112","3.42216515541","1713.31771612","2.57783484459","1715.94604802","1717.11639595","1717.19698","1720.19995213","1","1720.213871","1723.07569194",""
"sujeto_0000621","1","3","5","69","1723.215518","direct","2","1","3","¿Qué es el membrillero?","Arbol","Arbusto","","0","0","0","competitive","left","0.662173986435","1723.87773895","4.33782601357","1728.36954713","1.76404094696","1730.13362408","4.23595905304","1734.4046731","1736.35879397","1736.44007897","1739.44305897","0","1739.45809603","1745.92212701",""
"sujeto_0000621","1","3","6","70","1746.05932498","inverse","3","1","3","¿Alrededor de qué planeta orbita 
el satélite Europa?","Jupiter","Saturno","","1","1","1","competitive","right","0.742329835892","1746.80174112","4.25767016411","1751.21665001","2.52703595161","1753.743747","3.47296404839","1757.24958301","1758.79437399","1758.86825514","1761.87123799","1","1761.88549805","1764.09043813",""
"sujeto_0000621","1","3","7","71","1764.23711109","direct","3","1","1","¿Donde fue el mundial de 
fútbol de 1954?","Suiza","Suecia","","1","1","1","competitive","left","0.552603006363","1764.78977799","4.44739699364","1769.39281893","2.87583494186","1772.26871109","3.12416505814","1775.44326997","1776.69582295","1776.77807713","1779.7810421","1","1779.79523993","1783.70645404",""
"sujeto_0000621","1","3","8","72","1783.8471961","inverse","1","1","4","¿Cuál de los 7 enanitos
no tenía barba?","Bashful","Mudito","","1","1","0","competitive","right","0.601485013962","1784.44875097","4.39851498604","1789.01895809","2.97666406631","1791.99568105","3.02333593369","1795.05314803","1796.63326693","1796.70455909","1799.70751405","1","1799.72262406","1804.65171695",""
"sujeto_0000621","1","3","9","73","1804.79009199","direct","3","1","2","¿Cual red social es
mas utilizada mundialmente?","Instagram","Facebook","","1","1","0","competitive","right","0.598623037338","1805.38876009","4.40137696266","1809.94387102","3.59586501122","1813.53977799","2.40413498878","1815.99576712","1817.91314793","1817.98119903","1820.98418713","1","1820.99828601","1823.93279409",""
"sujeto_0000621","1","3","10","74","1824.08534193","inverse","4","1","1","¿Cuándo se inició la copa
 América de fútbol?","1916","1923","","1","1","1","competitive","right","0.565368890762","1824.6508081","4.43463110924","1829.25703692","2.80358695984","1832.06067896","3.19641304016","1835.30749702","1837.20490813","1837.29229808","1840.29442406","1","1840.30983114","1842.96587992",""
"sujeto_0000621","1","3","11","75","1843.11226606","direct","3","1","4","¿Cuántos presidentes de EEUU
han muerto asesinados?","3","4","","0","0","1","competitive","left","0.55447101593","1843.66680694","4.44552898407","1848.26614594","2.29459309578","1850.56078196","3.70540690422","1854.29936194","1855.78330898","1855.85212898","1858.85478091","0","1858.86969805","1862.51380897",""
"sujeto_0000621","1","3","12","76","1862.65615296","inverse","2","1","4","¿Cuántas veces participó EEUU
 en la copa América?","4","5","","0","0","1","competitive","left","0.56903886795","1863.22524595","4.43096113205","1867.82369614","2.4830300808","1870.30676603","3.5169699192","1873.87486696","1875.31897497","1875.39438891","1878.39737606","0","1878.41134405","1884.52852392",""
"sujeto_0000621","1","3","13","77","1884.66270113","direct","4","1","1","¿Cuál de estos países 
no formaba la URSS?","Azeribayán","Afganistán","","0","0","1","competitive","left","0.602087974548","1885.2648561","4.39791202545","1889.82100296","2.54268288612","1892.36374307","3.45731711388","1895.87137794","1897.184479","1897.25684094","1900.25841498","0","1900.27374291","1908.25583911",""
"sujeto_0000621","1","3","14","78","1908.408216","inverse","1","1","1","¿En qué año se inauguró
 el teatro Solís?","1867","1856","","0","0","0","competitive","left","0.464603900909","1908.87288713","4.53539609909","1913.58349299","1.96127390862","1915.54482698","4.03872609138","1919.61670709","1920.67299914","1920.75182414","1923.75481009","0","1923.76915097","1930.41695809",""
"sujeto_0000621","1","3","15","79","1930.55402112","direct","1","1","4","¿A qué velocidad vuela 
el avión más rápido?","3529","3874","","0","0","0","competitive","left","0.633144140244","1931.18724513","4.36685585976","1935.71134305","2.26143407822","1937.97281599","3.73856592178","1941.744596","1943.5001061","1943.580019","1946.58247209","0","1946.59772706","1948.70796394",""
"sujeto_0000621","1","3","16","80","1948.84999013","inverse","3","1","4","¿De qué año es la primer 
película cinematográfica?","1897","1888","","0","0","0","competitive","right","0.616791963577","1949.46682692","4.38320803642","1954.00168991","2.69515705109","1956.69688892","3.30484294891","1960.03676105","1961.16974998","1961.23849702","1964.24147511","0","1964.25534892","1969.66512012",""
"sujeto_0000621","1","3","17","81","1969.82376909","direct","2","1","3","¿Cuántos países 
tiene nuestro planeta?","191","194","","1","1","1","competitive","left","0.526515007019","1970.35043597","4.47348499298","1974.98159814","3.97021198273","1978.95187497","2.02978801727","1981.03244901","1982.38965011","1982.46705103","1985.46999502","1","1985.48435712","1988.72263193",""
"sujeto_0000621","1","3","18","82","1988.85289812","inverse","2","1","2","¿Cuántos habitantes
 tiene Buenos Aires?","2.9000.000","3650000","","0","0","0","competitive","left","0.580908060074","1989.43392801","4.41909193993","1994.02539802","2.64041781425","1996.66587591","3.35958218575","2000.07500601","2001.47226405","2001.54344797","2004.54643202","0","2004.56063604","2010.38643408",""
"sujeto_0000621","1","3","19","83","2010.54636407","direct","2","1","1","¿Cuántos kilos forman una tonelada?","1000","1500","left","1","1","1","competitive","left","0.555460214615","2011.1019001","4.44453978539","2015.70239997","3.86437296867","2019.56683111","2.13562703133","2021.73749995","2023.62480402","2023.70463014","2026.70763302","1","2026.72269607","2032.68011594",""
"sujeto_0000621","1","3","20","84","2032.82530808","inverse","4","1","4","¿Cuántos estados tiene la 
República del Perú? ","24","23","","0","0","1","competitive","right","0.525618076324","2033.35100007","4.47438192368","2037.97750711","2.43230199814","2040.4098711","3.56769800186","2044.01283407","2045.03438902","2045.11464405","2048.11761808","0","2048.13173413","2053.07699704",""
"sujeto_0000621","1","3","21","85","2053.21701407","direct","3","1","3","¿En qué año nació Cristóbal Colón? ","1451","1447","","0","0","1","competitive","left","0.758865118027","2053.97592306","4.24113488197","2058.37400913","0.223845005035","2058.59791398","5.77615499496","2064.42388892","2066.26979399","2066.34353495","2069.34653091","0","2069.36082697","2073.58880401",""
"sujeto_0000621","1","3","22","86","2073.72930312","inverse","4","1","4","¿Cuánto mide la 
Montaña Aconcagua? ","6234","6962","","0","0","1","competitive","left","0.568535089493","2074.29790902","4.43146491051","2078.88522291","1.95267009735","2080.83793497","4.04732990265","2084.93523812","2086.22460008","2086.30377793","2089.30674696","0","2089.32116008","2096.50479913",""
"sujeto_0000621","1","3","23","87","2096.63949609","direct","2","1","4","¿Cuánto mide el punto
 más profundo del océano? ","12508","11003","","0","0","1","competitive","left","0.545386075974","2097.18494511","4.45461392403","2101.79724813","0.380609989166","2102.17789912","5.61939001083","2107.84570003","2109.09721613","2109.16555095","2112.16853309","0","2112.18349504","2116.38974404",""
"sujeto_0000621","1","3","24","88","2116.53458309","inverse","1","1","3","¿Cuántos álbumes ha publicado 
el cantante Jaime Roos? ","41","34","","0","0","1","competitive","right","1.79724907875","2118.33187413","3.20275092125","2121.69099903","2.79880285263","2124.48984194","3.20119714737","2127.73872304","2129.22856212","2129.30801201","2132.31099796","0","2132.32512593","2138.52128601",""
"sujeto_0000621","1","3","25","89","2138.65997005","direct","4","1","3","¿En qué año nació el 
ex-presidente Jorge Battle? ","1921","1927","","1","1","1","competitive","left","0.632891893387","2139.29293394","4.36710810661","2143.81837296","2.28953695297","2146.10797","3.71046304703","2149.86842799","2151.5983901","2151.67089796","2154.67386103","1","2154.68793297","2158.17398214",""
"sujeto_0000621","1","3","26","90","2158.32365203","inverse","1","1","3","¿Cuántas presidencias 
constitucionales  hubo en Uruguay? ","41","42","","0","0","1","competitive","left","0.583257913589","2158.9069891","4.41674208641","2163.47867799","2.98727679253","2166.46601796","3.01272320747","2169.52968311","2170.73346114","2170.814785","2173.81775308","0","2173.83077312","2179.6144321",""
"sujeto_0000621","1","3","27","91","2179.74989104","direct","1","1","2","¿Quién escribió mas sinfonías?","Mozart","Haydn","","1","1","0","competitive","left","0.543051958084","2180.293015","4.45694804192","2184.90608907","1.7608230114","2186.66695499","4.2391769886","2190.9567461","2192.174227","2192.24192405","2195.24483705","1","2195.25868392","2199.01009798",""
"sujeto_0000621","1","3","28","92","2199.16071606","inverse","4","1","2","¿En qué año nació Michael Jackson?","1958","1953","","1","1","1","competitive","right","0.593158006668","2199.75394511","4.40684199333","2204.31357408","2.50128221512","2206.81489205","3.49871778488","2210.36510396","2212.34333897","2212.41683197","2215.41976213","1","2215.43508101","2221.29741096",""
"sujeto_0000621","1","3","29","93","2221.4565661","direct","3","1","2","¿En qué año entró en vigencia 
la ley antitabaco en Uruguay?","2005","2006","","1","1","1","competitive","left","0.592368125916","2222.04900193","4.40763187408","2226.62796402","2.91494894028","2229.54295397","3.08505105972","2232.67797804","2234.27274013","2234.34620214","2237.3491981","1","2237.36355114","2242.69754696",""
"sujeto_0000621","1","3","30","94","2242.83218312","inverse","3","1","1","¿Cuándo se subió el 
primer video a youtube?","2004","2005","","0","0","1","competitive","left","0.683773040771","2243.51603198","4.31622695923","2247.98900509","2.42593407631","2250.41498303","3.57406592369","2254.02248096","2255.32809401","2255.40831399","2258.41131711","0","2258.42435694","2266.17997313",""
"sujeto_0000621","1","3","31","95","2266.30982709","direct","2","1","1","¿Cuántos habitantes tiene India?","1200 millones","1300 millones","","0","0","0","competitive","right","0.643083810806","2266.95295691","4.35691618919","2271.46721411","2.00076603889","2273.46804094","3.99923396111","2277.51769114","2279.48730111","2279.56984091","2282.57043409","0","2282.58748007","2288.63439703",""
"sujeto_0000621","1","3","32","96","2288.80558014","inverse","4","1","2","¿A qué edad murió Bob Marley?","36","37","","0","0","1","individual","left","0.571679115295","2289.37730694","4.4283208847","2293.95967603","1.3372387886","2295.29695511","4.6627612114","2300.01102114","2301.90882206","2301.94634104","2304.94931507","0","2304.96432805","2308.06678605",""
"sujeto_0000621","1","4","1","97","2432.13224912","direct","2","1","1","¿Cuantos años dirigió la selección 
uruguaya Tabarez?","15 años","13 años","","0","0","0","competitive","left","1.55675315857","2433.68904614","3.44324684143","2437.26994991","2.67203092575","2439.94203806","3.32796907425","2443.32017803","2444.51133895","2444.58910298","2447.59209013","0","2447.60610414","2454.67813802","2308.08179593"
"sujeto_0000621","1","4","2","98","2454.82420707","inverse","4","1","1","¿Cuantas teclas tiene un teclado 
de computadora generalmente? ","Entre 99 y 108","Entre 109 y 113","","1","1","1","competitive","left","0.577862024307","2455.40214705","4.42213797569","2459.97896099","3.47512102127","2463.45412302","2.52487897873","2466.01447392","2467.01719713","2467.09868503","2470.10165215","1","2470.11577511","2472.48722196",""
"sujeto_0000621","1","4","3","99","2472.6175921","direct","1","1","1","¿Cuál Departamento tiene
 mayor superficie?","Río Negro","Soriano","","0","0","0","competitive","left","0.606531143188","2473.22418809","4.39346885681","2477.77424312","2.18077707291","2479.95505905","3.81922292709","2483.823493","2485.53690791","2485.60915494","2488.61213899","0","2488.62642097","2492.95043898",""
"sujeto_0000621","1","4","4","100","2493.09594011","inverse","3","1","2","¿Cuál es el apellido de las 
hermanastras  de  cenicienta?","Tremaine","Truman","","0","0","1","competitive","left","0.538290023804","2493.63427401","4.4617099762","2498.251544","4.63051891327","2502.88212299","1.36948108673","2504.30294299","2506.17247105","2506.25292206","2509.25441909","0","2509.27151704","2511.96746612",""
"sujeto_0000621","1","4","5","101","2512.10620809","direct","4","1","4","¿Cuál película ganó un
 Oscar a mejor película?","Alto Impacto","Cache","","0","0","1","competitive","left","0.521843194962","2512.62809992","4.47815680504","2517.25833607","2.81868100166","2520.077075","3.18131899834","2523.31019306","2524.42956996","2524.51152611","2527.51453114","0","2527.52894402","2529.79358006",""
"sujeto_0000621","1","4","6","102","2529.93069696","inverse","1","1","3","¿A cuántos centímetros
equivale la medida pié?","25","30","","0","0","1","competitive","right","1.09943890572","2531.0302031","3.90056109428","2535.08748007","3.93765115738","2539.025172","2.06234884262","2541.13755012","2542.17756414","2542.25587201","2545.25886297","0","2545.27298093","2550.673949",""
"sujeto_0000621","1","4","7","103","2550.80782199","direct","2","1","2","¿Qué departamento es mas grande?","Cerro Largo","Paysandú","","0","0","0","competitive","right","0.52535200119","2551.33328009","4.47464799881","2555.98130202","2.23782491684","2558.21916699","3.76217508316","2562.03089499","2563.63042998","2563.69967914","2566.70241499","0","2566.71698308","2570.82692313",""
"sujeto_0000621","1","4","8","104","2570.96803212","inverse","2","1","3","¿Quién pintó la Mona Lisa?","Picasso","Da Vinci","right","0","0","1","competitive","right","0.534069061279","2571.50214601","4.46593093872","2576.14019704","2.20792484283","2578.34816194","3.79207515717","2582.19143796","2583.79730797","2583.87627101","2586.87926006","1","2586.89406204","2589.05638695",""
"sujeto_0000621","1","4","9","105","2589.22853899","direct","4","1","3","¿Cuántos litros hay en un galon?","3.54","3.78","","1","1","1","competitive","left","0.598562955856","2589.82720208","4.40143704414","2594.40073991","2.38041806221","2596.7812171","3.61958193779","2600.43368697","2601.95040894","2602.01945901","2605.02241993","1","2605.03681493","2610.82639003",""
"sujeto_0000621","1","4","10","106","2610.97133613","inverse","4","1","1","¿Cuántas teclas tiene
 un piano moderno?","80","88","","0","0","1","competitive","left","1.24178600311","2612.213166","3.75821399689","2616.12896109","2.54115605354","2618.67017698","3.45884394646","2622.162534","2623.1709621","2623.24743009","2626.25037003","0","2626.26452613","2633.06224298",""
"sujeto_0000621","1","4","11","107","2633.23340702","direct","4","1","3","¿Cuántos países hay en África?","54","62","","0","0","1","competitive","right","0.54176402092","2633.7752161","4.45823597908","2638.39033914","1.29477190971","2639.68516493","4.70522809029","2644.43951511","2646.13002205","2646.20912313","2649.21210194","0","2649.2259841","2657.03037906",""
"sujeto_0000621","1","4","12","108","2657.16252995","inverse","1","1","3","¿En qué siglo se crearon
 las primeras pistolas?","XV","XIII","","1","1","1","competitive","right","0.566619873047","2657.72921801","4.43338012695","2662.33419013","2.40591812134","2664.74014592","3.59408187866","2668.38608503","2670.33398008","2670.40464807","2673.40763497","1","2673.42176008","2676.65485907",""
"sujeto_0000621","1","4","13","109","2676.80667305","direct","3","1","4","¿En qué año se estrenó 
la serie friends?","1994","1995","","0","0","1","competitive","left","0.521436929703","2677.32817411","4.4785630703","2681.97855592","1.7676410675","2683.74623895","4.2323589325","2688.02904892","2689.90433812","2689.98101211","2692.98240209","0","2692.99880505","2698.00490403",""
"sujeto_0000621","1","4","14","110","2698.13330007","inverse","3","1","4","¿En qué año nació Hitler?","1889","1887","","0","0","1","competitive","right","0.585923194885","2698.71933413","4.41407680511","2703.28957391","1.92354607582","2705.21315908","4.07645392418","2709.34058404","2710.45497799","2710.54208994","2713.54502797","0","2713.55920601","2718.58240199",""
"sujeto_0000621","1","4","15","111","2718.72710013","direct","1","1","4","¿Cuánto pesa un elefante Africano?","6000 kilos","5400 kilos","","0","0","0","competitive","left","0.481116056442","2719.20826197","4.51888394356","2723.884269","1.87593102455","2725.76026011","4.12406897545","2729.93400192","2731.28993797","2731.36919713","2734.37218714","0","2734.38655901","2741.09363604",""
"sujeto_0000621","1","4","16","112","2741.22190809","inverse","1","1","2","¿Qué porcentaje de 
la población es zurda?","10%","7%","","1","1","0","competitive","right","0.539334058762","2741.76129198","4.46066594124","2746.37654996","2.1146838665","2748.49127603","3.8853161335","2752.41142797","2753.65437603","2753.73024893","2756.73321414","1","2756.74712205","2762.72638297",""
"sujeto_0000621","1","4","17","113","2762.86480093","direct","1","1","2","¿En qué año se estrenó
Volver al futuro?","1984","1985","","0","0","1","competitive","left","0.447464942932","2763.31232095","4.55253505707","2768.02340198","1.62271094322","2769.64616704","4.37728905678","2774.07346702","2775.63438606","2775.70842505","2778.71041107","0","2778.72676706","2785.81439805",""
"sujeto_0000621","1","4","18","114","2785.94433498","inverse","3","1","2","¿Cuántos jugadores hay en un 
equipo de baseball?","9","8","","1","1","0","competitive","left","1.2468688488","2787.19126701","3.7531311512","2791.10217714","3.99301600456","2795.09525299","2.00698399544","2797.13582611","2798.75003695","2798.82072902","2801.82239199","1","2801.83823609","2806.81438494",""
"sujeto_0000621","1","4","19","115","2806.95694494","direct","2","1","1","¿Cuántos Oscar ganó
 la película titanic?","13","11","","1","1","1","competitive","right","0.519265890121","2807.47625804","4.48073410988","2812.09602499","1.90218186378","2813.99827003","4.09781813622","2818.14586401","2819.44794202","2819.53139496","2822.53438306","1","2822.54844403","2827.15107799",""
"sujeto_0000621","1","4","20","116","2827.28316402","inverse","4","1","4","¿En qué año comenzó
la segunda guerra mundial?","1939","1976","left","0","0","1","competitive","left","0.541116952896","2827.82436013","4.4588830471","2832.43812203","1.76218390465","2834.20037103","4.23781609535","2838.47311306","2840.27215409","2840.34125209","2843.34239292","1","2843.35964704","2847.34680104",""
"sujeto_0000621","1","4","21","117","2847.47755313","direct","2","1","4","¿Cuántos biomas hay en Uruguay?","5","4","","0","0","1","competitive","right","0.539705038071","2848.01732707","4.46029496193","2852.63300395","2.40524196625","2855.03828692","3.59475803375","2858.68358803","2860.48096299","2860.55236101","2863.55533814","0","2863.56976295","2869.81911206",""
"sujeto_0000621","1","4","22","118","2869.95484304","inverse","2","1","3","¿Cuándo murió Pablo Escobar?","1993","1997","","1","1","1","competitive","left","0.535443782806","2870.49035192","4.46455621719","2875.11138701","3.5148730278","2878.62634492","2.4851269722","2881.14531994","2882.92812109","2882.99691391","2885.99989605","1","2886.01399899","2891.7176671",""
"sujeto_0000621","1","4","23","119","2891.84911513","direct","1","1","4","¿Qué serie ha ganado mas premios?","Friends","Murphy Brown","","1","1","0","competitive","left","0.531517982483","2892.38073206","4.46848201752","2897.00710011","1.63516902924","2898.64231896","4.36483097076","2903.05675697","2904.409132","2904.49255514","2907.49556208","1","2907.50966406","2913.07124996",""
"sujeto_0000621","1","4","24","120","2913.21063399","inverse","4","1","2","¿Cuántas fichas tiene el dominó?","26","28","","1","1","1","competitive","right","0.641681909561","2913.85239291","4.35831809044","2918.36537814","1.47489309311","2919.84030795","4.52510690689","2924.41721797","2925.47249293","2925.55281997","2928.55438495","1","2928.56944203","2933.81250501",""
"sujeto_0000621","1","4","25","121","2933.98787403","direct","2","1","4","¿Cuántos son los dientes de leche?","20","25","","0","0","1","competitive","left","0.563396930695","2934.55133891","4.43660306931","2939.1612041","1.73513007164","2940.89637494","4.26486992836","2945.21103811","2946.92135906","2946.99687314","2949.99985194","0","2950.01455092","2952.15838599",""
"sujeto_0000621","1","4","26","122","2952.28304005","inverse","3","1","3","¿Cuántos gramos son una onza?","22","28","","0","0","1","competitive","left","0.592263936996","2952.87535","4.407736063","2957.419554","1.82077789307","2959.24039912","4.17922210693","2963.47040009","2965.46520996","2965.53987408","2968.54300904","0","2968.55692601","2974.84714413",""
"sujeto_0000621","1","4","27","123","2974.97522211","direct","3","1","1","¿Cuándo salió el primer album
 de los Beatles?","1963","1962","","1","1","1","competitive","left","0.524152994156","2975.49944496","4.47584700584","2980.13292909","1.7634601593","2981.89643097","4.2365398407","2986.18241","2987.34605312","2987.4347291","2990.43771696","1","2990.45172","2994.22375512",""
"sujeto_0000621","1","4","28","124","2994.37034297","inverse","3","1","3","¿Quién fundó la empresa apple?","Carlos Slim","Steve Jobs","","1","1","1","competitive","right","0.658968925476","2995.02940798","4.34103107452","2999.53933001","2.15998196602","3001.69937491","3.84001803398","3005.5744791","3006.68911099","3006.76029205","3009.76322603","1","3009.77737999","3016.07518196",""
"sujeto_0000621","1","4","29","125","3016.21157193","direct","4","1","2","¿Cuántos municipios hay
 en Montevideo?","8","7","","1","1","1","competitive","right","0.485804080963","3016.69744396","4.51419591904","3021.37051606","1.99182510376","3023.36240292","4.00817489624","3027.42070103","3029.33442497","3029.40560794","3032.40643406","1","3032.42373109","3034.50488496",""
"sujeto_0000621","1","4","30","126","3034.691535","inverse","1","1","1","¿Cuántos kilómetros hay
 de Montevideo a Artigas?","632","599","","0","0","0","competitive","left","0.714420795441","3035.40600514","4.28557920456","3039.84691","1.85044193268","3041.69739294","4.14955806732","3045.89661598","3047.37976003","3047.46525311","3050.46821713","0","3050.48274708","3056.5348351",""
"sujeto_0000621","1","4","31","127","3056.68400693","direct","2","1","2","¿En qué año nació 
Leonardo Da Vinci?","1452","1511","","1","1","0","competitive","left","0.504322052002","3057.18840504","4.495677948","3061.84124207","1.04413819313","3062.88543892","4.95586180687","3067.89131999","3069.74493599","3069.82705712","3072.83006191","1","3072.84425092","3075.99063301",""
"sujeto_0000621","1","4","32","128","3076.12967491","inverse","3","1","1","¿A qué continente
 pertenece el país Gabón?","Africa","Oceanía","","0","0","1","competitive","right","0.628766059875","3076.75848603","4.37123394012","3081.28501391","2.18037104607","3083.46544695","3.81962895393","3087.33452892","3089.14616108","3089.21996498","3092.22296214","0","3092.23735094","3097.47523093",""
