"code","nro_aplicante","nro_bloque","nro_trial_bloque","nro_trial_global","show_game_type","choice_order","rival","pay_individual","pay_competitive","question","answer_left_text","answer_right_text","correct_answer","outcome_individual","outcome_competitive","outcome_rival","game_type","answer","social_time","rt_game_type","feedback_delay","show_question","answer_time","rt_answer_global","feedback_delay_2","show_jitter","jitter_time","show_outcome","outcome_time","outcome_participant_real","show_final_jitter","second_jitter_time","inicio_descanso"
"sujeto_c28223ba","1","1","1","1","541.159659863","direct","3","1","4","¿Cuántos centímetros corresponden
al talle 36 del calzado?","23","24","","0","0","1","competitive","right","2.38342285156","543.543143988","2.61657714844","546.337785959","5.77045202255","552.108306885","0.229547977448","552.390049934","553.41830492","553.490309954","556.493231773","0","556.507308006","558.669845819",""
"sujeto_c28223ba","1","1","2","2","558.82623291","inverse","3","1","2","¿Cuántas metros mide la Intendencia
Municipal de Montevideo? ","84","78","","0","0","1","competitive","right","1.48119997978","560.307497978","3.51880002022","563.980349779","4.42623496056","568.406646967","1.57376503944","570.014781952","571.892832994","571.966198921","574.969177008","0","574.983417988","577.07619381",""
"sujeto_c28223ba","1","1","3","3","577.218795776","direct","1","1","3","¿Cuántas La Pasiva
 hay en uruguay?","15","11","","1","1","1","competitive","","2.0409488678","579.259814978","2.9590511322","582.375335932","6","588.375472784","0","588.391749859","590.003012896","590.075383902","593.078362942","0","593.093783855","597.372135878",""
"sujeto_c28223ba","1","1","4","4","597.527668953","inverse","3","1","3","¿De que color es la camiseta de uruguay?","blanca","celeste","right","1","1","1","competitive","right","1.9064950943","599.434231997","3.0935049057","602.717702866","4.65755987167","607.375305891","1.34244012833","608.752485991","609.957242966","610.037064791","613.040052891","1","613.054252863","616.508185863",""
"sujeto_c28223ba","1","1","5","5","616.655827999","direct","2","1","1","¿Cuánto metros mide
la torre Eiffel?","333","324","","1","1","1","competitive","left","1.3856780529","618.041569948","3.6143219471","621.844570875","3.54097890854","625.385609865","2.45902109146","627.895680904","629.417079926","629.496550798","632.499509811","1","632.514151812","639.550855875",""
"sujeto_c28223ba","1","1","6","6","639.682152987","inverse","3","1","4","¿Cuantas ciudades existen
 en todo el uruguay?","63","72","","0","0","1","competitive","left","1.32770395279","641.009918928","3.67229604721","644.84065485","4.88438296318","649.725078821","1.11561703682","650.891255856","651.946083784","652.025636911","655.028610945","0","655.043012857","662.669621944",""
"sujeto_c28223ba","1","1","7","7","662.811205864","direct","1","1","1","¿Cuantos estados tiene África?","52","54","","1","1","0","individual","right","2.16311883926","664.97439599","2.83688116074","667.985433817","4.64998197556","672.635482788","1.35001802444","674.037319899","675.90109992","675.952326775","678.955295801","1","678.968898773","684.72991991",""
"sujeto_c28223ba","1","1","8","8","684.887587786","inverse","4","1","4","¿En qué año nació
 Stephen Hawking?","1952","1942","","0","0","1","competitive","right","1.90413308144","686.791769981","3.09586691856","690.0794909","4.54034399986","694.619880915","1.45965600014","696.131460905","697.575723886","697.647753","700.650126934","0","700.6645298","706.763852835",""
"sujeto_c28223ba","1","1","9","9","706.915638924","direct","2","1","3","¿Cuánto años tenía Artigas
 cuando se fue a Paraguay?","56","57","","1","1","1","competitive","left","2.30541801453","709.221099854","2.69458198547","712.076491833","5.38772201538","717.46427393","0.612277984619","718.128485918","719.67796278","719.761488914","722.764458895","1","722.779320955","728.826617956",""
"sujeto_c28223ba","1","1","10","10","728.964190006","inverse","1","1","2","¿Cuantos milímetros 
mide una hoja A2?","420x592","420x594","","0","0","1","individual","right","2.28618097305","731.250428915","2.71381902695","734.12024188","4.19734287262","738.317645788","1.80265712738","740.155842781","741.724294901","741.772486925","744.775489807","0","744.790831804","751.864484787",""
"sujeto_c28223ba","1","1","11","11","752.008294821","direct","3","1","3","¿Cuál es la menor temperatura 
registrada en Uruguay?","-5.4","-7.4","","0","0","1","competitive","right","1.86153197289","753.869871855","3.13846802711","757.200883865","5.46111488342","762.662060976","0.538885116577","763.235483885","764.917533875","765.002159834","768.005096912","0","768.019396782","771.752702951",""
"sujeto_c28223ba","1","1","12","12","771.904739857","inverse","2","1","2","¿Cuantos años hace que 
se fundó facebook?","18","17","","0","0","0","individual","left","2.07648682594","773.981292963","2.92351317406","777.075944901","4.38027501106","781.45627594","1.61972498894","783.111852884","784.484591961","784.529340982","787.532289982","0","787.546836853","790.321482897",""
"sujeto_c28223ba","1","1","13","13","790.482440948","direct","1","1","4","¿Cuál animal es más
 pesado en promedio?","Rinoceronte","Hipopotamo","","0","0","0","competitive","","3.08308315277","793.565594912","1.91691684723","795.653589964","6","801.653728962","0","801.673455","802.752697945","802.839555979","805.840123892","0","805.857112885","809.698133945",""
"sujeto_c28223ba","1","1","14","14","809.8753829","inverse","1","1","2","¿Qué personaje de dragon ball 
murió más veces?","Chaoz","Krillin","","1","1","0","competitive","right","2.15350699425","812.028953791","2.84649300575","815.046091795","3.18786597252","818.234048843","2.81213402748","821.098231792","822.556041002","822.632701874","825.635698795","1","825.651105881","833.4240098",""
"sujeto_c28223ba","1","1","15","15","833.569358826","direct","3","1","2","La universidad de oxford. 
existe desde:","1096","1249","","1","1","0","competitive","right","2.24191808701","835.811347961","2.75808191299","838.723512888","4.41683602333","843.140390873","1.58316397667","844.777141809","845.825951815","845.910738945","848.913729906","1","848.928322792","855.619179964",""
"sujeto_c28223ba","1","1","16","16","855.762942791","inverse","3","1","1","¿Qué escritor latino ganó antes
 el premio nobel?"," García Marquez","Neruda","","0","0","1","competitive","left","1.5006840229","857.263689995","3.4993159771","860.922284842","5.13138699532","866.053725004","0.868613004684","866.97347784","868.713485956","868.791033983","871.794031858","0","871.808678865","875.26914978",""
"sujeto_c28223ba","1","1","17","17","875.409856796","direct","4","1","3","¿Cuántos dientes tiene un
 tiburón blanco?","6000","3000","","0","0","1","competitive","right","2.43512392044","877.845063925","2.56487607956","880.580700874","4.29738283157","884.878144979","1.70261716843","886.617769957","887.656744003","887.734586","890.737583876","0","890.752031803","895.561719894",""
"sujeto_c28223ba","1","1","18","18","895.703233004","inverse","4","1","1","¿Cuánto mide el paralelo Ecuador?","40.000km","70.000km","","0","0","1","competitive","right","1.20106196404","896.904345989","3.79893803596","900.876226902","5.07021784782","905.94648695","0.929782152176","906.928472996","908.884602785","908.961840868","911.964811802","0","911.979231834","915.581798792",""
"sujeto_c28223ba","1","1","19","19","915.731464863","direct","4","1","2","¿Cuál fue el primer libro 
de Stephen King?","Carrie","The Stand","","1","1","1","competitive","left","1.16709804535","916.898629904","3.83290195465","920.919320822","4.4584569931","925.377817869","1.5415430069","926.953229904","928.697332859","928.771077871","931.774049997","1","931.789459944","936.263883829",""
"sujeto_c28223ba","1","1","20","20","936.406752825","inverse","2","1","3","¿Qué civilización practicaba
 la momificación?","Grecia","Egipto","right","0","0","1","competitive","right","1.33132004738","937.738127947","3.66867995262","941.581189871","5.47788000107","947.059135914","0.522119998932","947.616557837","949.555870771","949.633902788","952.636874914","1","952.651520967","956.88031292",""
"sujeto_c28223ba","1","1","21","21","957.035414934","direct","4","1","4","¿Cuántos millones de visitas
 recibe google por minuto?","3.0","4.5","","0","0","1","competitive","left","1.15566420555","958.191160917","3.84433579445","962.20864892","5.29178118706","967.500468969","0.708218812943","968.243488789","969.758346796","969.844302893","972.847287893","0","972.861645937","979.984304905",""
"sujeto_c28223ba","1","1","22","22","980.131536007","inverse","1","1","3","La máquina de fax. se inventó en:","1843","1960","","0","0","1","competitive","left","1.61716413498","981.748761892","3.38283586502","985.288321972","4.62646412849","989.914824963","1.37353587151","991.322258949","992.564378977","992.640221834","995.643185854","0","995.657455921","998.893763781",""
"sujeto_c28223ba","1","1","23","23","999.042200804","direct","2","1","4","En la verdadera historia de los
 300 espartanos. habían:","300 soldados","4300 soldados","","1","1","1","competitive","left","1.24285197258","1000.28513193","3.75714802742","1004.19763398","4.11218714714","1008.30988097","1.88781285286","1010.24810791","1011.509341","1011.58259082","1014.58556485","1","1014.60022688","1018.40203881",""
"sujeto_c28223ba","1","1","24","24","1018.55172586","inverse","1","1","4","¿Cuántos milímetros crece
 el pelo por día?","0.4","0.04","","0","0","0","competitive","right","0.924954891205","1019.47672486","4.0750451088","1023.72328496","4.28331112862","1028.00663495","1.71668887138","1029.77470779","1031.53536797","1031.60837388","1034.61137891","0","1034.62726378","1041.36231685",""
"sujeto_c28223ba","1","1","25","25","1041.51181793","direct","4","1","1","¿Cuánto mide la baldosa gris 
clásica de Montevideo?","22x22 cm.","20x20 cm.","","1","1","1","competitive","right","1.69267702103","1043.20453882","3.30732297897","1046.66985393","4.83445620537","1051.50434899","1.16554379463","1052.72079492","1054.71606493","1054.80426383","1057.8071959","1","1057.82251883","1063.36533093",""
"sujeto_c28223ba","1","1","26","26","1063.50669384","inverse","2","1","2","¿Cuántas películas de rápidos
 y furiosos hay?","10","11","","1","1","0","individual","left","1.92763090134","1065.43439984","3.07236909866","1068.68018794","4.65504598618","1073.33529282","1.34495401382","1074.73088384","1076.0889008","1076.13122582","1079.134161","1","1079.14847779","1081.18313885",""
"sujeto_c28223ba","1","1","27","27","1081.31720781","direct","3","1","1","¿Cuántos masters 1000
 ganó Del Potro?","1","2","","1","1","1","competitive","right","2.28781700134","1083.60509396","2.71218299866","1086.47246099","4.78947019577","1091.26199889","1.21052980423","1092.52416682","1094.27879882","1094.35874081","1097.36173987","1","1097.37641191","1104.77272892",""
"sujeto_c28223ba","1","1","28","28","1104.90949893","inverse","2","1","4","¿Cuántos meses dura el 
embarazo de una leona?","3 meses","4 meses","","0","0","1","competitive","left","1.64934015274","1106.55888295","3.35065984726","1110.06826782","4.75951194763","1114.82783985","1.24048805237","1116.10211492","1117.21317196","1117.28626895","1120.28924799","0","1120.30402589","1127.02612591",""
"sujeto_c28223ba","1","1","29","29","1127.17180181","direct","1","1","1","¿En qué año fue creado
 el sandwich?","1762","1653","","1","1","0","individual","left","2.33996105194","1129.51182795","2.66003894806","1132.34483695","4.52783799171","1136.87273383","1.47216200829","1138.38037181","1139.9789319","1140.03114986","1143.03413296","1","1143.04952884","1146.52016282",""
"sujeto_c28223ba","1","1","30","30","1146.66781688","inverse","4","1","2","El nombre de la moneda de Vietnam es:","Dinar","Dong","","0","0","1","individual","left","3.08079409599","1149.74867392","1.91920590401","1151.85391188","4.83364200592","1156.68761182","1.16635799408","1157.89040184","1159.32239699","1159.37494779","1162.37613678","0","1162.39148498","1168.55990887",""
"sujeto_c28223ba","1","1","31","31","1168.70939279","direct","2","1","1","¿cuantos aleteos puede dar 
un colibrí por segundo?","120","50","","0","0","0","competitive","right","1.12412810326","1169.83356595","3.87587189674","1173.86735797","4.38412308693","1178.25152278","1.61587691307","1179.918082","1181.65049982","1181.73591185","1184.73889089","0","1184.75336695","1188.96563792",""
"sujeto_c28223ba","1","1","32","32","1189.12133288","inverse","4","1","3","¿Qué altura promedio tienen
 los hombres uruguayos?","1.73 m","1.72 m","","1","1","1","competitive","left","2.76204395294","1191.88342786","2.23795604706","1194.30857587","5.59671783447","1199.90535879","0.403282165527","1200.34623384","1201.60866189","1201.6963079","1204.69928288","1","1204.71397781","1209.18993783",""
"sujeto_c28223ba","1","2","1","33","1330.00328684","direct","1","1","1","¿En qué año nació 
el actor Bradd Pitt?","1967","1963","","1","1","1","individual","left","2.33660197258","1332.3399508","2.66339802742","1335.19758987","5.6584379673","1340.8561008","0.3415620327","1341.25182295","1342.34769297","1342.38492393","1345.38509989","1","1345.40293384","1351.33052278","1209.20531297"
"sujeto_c28223ba","1","2","2","34","1351.48674989","inverse","2","1","1","¿Cual es el segundo 
monte más alto?","Kanchenjunga","K2","","1","1","1","competitive","left","1.76226806641","1353.2490809","3.23773193359","1356.66063881","4.37736797333","1361.03805995","1.62263202667","1362.71103787","1364.16343784","1364.24559784","1367.24857783","1","1367.26282191","1370.69274187",""
"sujeto_c28223ba","1","2","3","35","1370.84728384","direct","3","1","1","¿Cuándo finalizó la construcción
 del Palacio Legislativo?","1925","1917","","0","0","1","individual","right","1.26680397987","1372.11415696","3.73319602013","1376.01569891","5.02436494827","1381.04012585","0.975635051727","1382.05222082","1383.69386888","1383.73639679","1386.73937583","0","1386.75304794","1392.45060992",""
"sujeto_c28223ba","1","2","4","36","1392.588485","inverse","3","1","3","¿Cuántos integrantes tenía
 en su inicio  el cuarteto de nos?","3","4","","1","1","1","competitive","right","1.26431393623","1393.85286188","3.73568606377","1397.7484839","5.55052304268","1403.29907799","0.449476957321","1403.79545283","1404.92855","1405.01190996","1408.01487398","1","1408.03059697","1413.68042278",""
"sujeto_c28223ba","1","2","5","37","1413.83180094","direct","2","1","3","¿Qué valor tiene el número pi?","3.14","4.18","left","0","0","1","competitive","left","1.73925805092","1415.57112288","3.26074194908","1418.99221587","3.68081998825","1422.67307496","2.31918001175","1425.02652693","1426.48073387","1426.56036687","1429.56334877","1","1429.57813597","1436.4991169",""
"sujeto_c28223ba","1","2","6","38","1436.64687896","inverse","2","1","2","¿Cuál es la esperanza de vida
 en Uruguay?","75","77","","1","1","0","competitive","right","1.60920596123","1438.25612688","3.39079403877","1441.80443788","4.1266169548","1445.93112278","1.8733830452","1447.83903384","1449.49286199","1449.57252097","1452.57551098","1","1452.5908649","1459.0491488",""
"sujeto_c28223ba","1","2","7","39","1459.20904779","direct","1","1","2","¿Cuantos pisos tiene la torre 
de las comunicaciones?","26","32","","1","1","0","competitive","left","1.49209904671","1460.70121193","3.50790095329","1464.38302779","4.20217704773","1468.58524394","1.79782295227","1470.43355894","1472.26232195","1472.35088587","1475.35386992","1","1475.3681109","1477.51432586",""
"sujeto_c28223ba","1","2","8","40","1477.65285683","inverse","2","1","4","¿En qué país sudamericano 
no hay McDonalds?","Bolivia","Venezuela","","0","0","1","competitive","left","2.0743970871","1479.72730279","2.9256029129","1482.80909181","5.52402591705","1488.33316088","0.475974082947","1488.86131597","1490.17069197","1490.24428892","1493.24727392","0","1493.26205897","1499.62177777",""
"sujeto_c28223ba","1","2","9","41","1499.76345491","direct","3","1","1","¿En qué año empieza
 la Edad Media?","476","512","","1","1","1","competitive","right","2.47476601601","1502.23826385","2.52523398399","1504.91888881","4.36433506012","1509.28326488","1.63566493988","1510.95499182","1512.35876894","1512.43941498","1515.44235778","1","1515.45685792","1518.44540787",""
"sujeto_c28223ba","1","2","10","42","1518.5910759","inverse","3","1","4","¿Hace cuántos años surgió
 el ser humano?","200mil","300mil","","0","0","0","competitive","right","1.34720396996","1519.93834591","3.65279603004","1523.76296782","5.55338191986","1529.31639099","0.446618080139","1529.81524181","1531.70127797","1531.78183198","1534.78480291","0","1534.79922295","1538.10971189",""
"sujeto_c28223ba","1","2","11","43","1538.25241995","direct","3","1","4","¿Cuántas cuadras tiene
 actualmente 18 de julio? ","36","33","","0","0","1","competitive","right","1.59082102776","1539.84330583","3.40917897224","1543.40685296","4.49847006798","1547.90538788","1.50152993202","1549.45744896","1551.15971684","1551.2421279","1554.24512196","0","1554.2595439","1558.9858408",""
"sujeto_c28223ba","1","2","12","44","1559.127882","inverse","1","1","4","¿Qué juego de equipo se 
considera mas rápido?","Lacrosse","Badminton","","0","0","0","competitive","left","1.78055214882","1560.90849686","3.21944785118","1564.30139899","4.70407390594","1569.005512","1.29592609406","1570.35181284","1571.5940578","1571.66993785","1574.67294979","0","1574.68695378","1582.68213487",""
"sujeto_c28223ba","1","2","13","45","1582.82403088","direct","1","1","3","¿Qué promedio de edad 
vive una jirafa? ","25","20","","0","0","1","individual","right","2.10142493248","1584.92549491","2.89857506752","1587.97901583","4.85552787781","1592.83458686","1.14447212219","1594.03150678","1595.793046","1595.8319478","1598.83489084","0","1598.85033989","1604.80608296",""
"sujeto_c28223ba","1","2","14","46","1604.951756","inverse","1","1","2","¿Cuántos grandes lagos hay?","7","5","","0","0","1","individual","right","2.59083414078","1607.54264879","2.40916585922","1610.10823798","4.56346011162","1614.67175984","1.43653988838","1616.14299488","1617.43515301","1617.477283","1620.48025894","0","1620.49446988","1628.31583691",""
"sujeto_c28223ba","1","2","15","47","1628.46214199","direct","3","1","2","¿Cuántos discos de estudio
 grabó Johhny Cash? ","54","43","","1","1","0","competitive","right","1.98657298088","1630.44877982","3.01342701912","1633.62067199","3.57708597183","1637.19781899","2.42291402817","1639.65331078","1640.93195701","1641.0047009","1644.00763488","1","1644.02306986","1650.67395782",""
"sujeto_c28223ba","1","2","16","48","1650.82407689","inverse","4","1","1","¿Cuántos barrios tiene
 Montevideo? ","71","62","","0","0","1","individual","right","3.40575289726","1654.2298739","1.59424710274","1655.98186183","4.23098301888","1660.21288681","1.76901698112","1662.03049397","1663.03754878","1663.081249","1666.08419585","0","1666.09880686","1671.56080699",""
"sujeto_c28223ba","1","2","17","49","1671.70014882","direct","3","1","3","¿Qué edad tiene Homero Simpson?","36","42","","0","0","1","competitive","left","1.48781204224","1673.18805695","3.51218795776","1676.859519","5.48638796806","1682.34594488","0.513612031937","1682.91102695","1684.2870698","1684.36131978","1687.36430287","0","1687.37908077","1691.76784587",""
"sujeto_c28223ba","1","2","18","50","1691.91323996","inverse","4","1","2","¿Cuántos países con monarquía 
hay en europa actualmente? ","6","10","","1","1","1","individual","left","2.77183413506","1694.68515396","2.22816586494","1697.1023829","4.5947508812","1701.69718099","1.4052491188","1703.13645101","1704.57473493","1704.62110496","1707.6240468","1","1707.63845301","1713.79528189",""
"sujeto_c28223ba","1","2","19","51","1713.94049478","direct","2","1","3","¿Cuántos capítulos de
 Friends existen? ","236","228","","1","1","1","individual","right","1.90981411934","1715.850384","3.09018588066","1719.1482389","3.85297608376","1723.00127196","2.14702391624","1725.19783497","1726.50341487","1726.54830885","1729.55128288","1","1729.5657959","1731.94143486",""
"sujeto_c28223ba","1","2","20","52","1732.08373785","inverse","1","1","3","¿Cuántas óperas compuso Mozart? ","27","22","","1","1","1","competitive","right","2.70963191986","1734.79344296","2.29036808014","1737.25145388","4.61295199394","1741.86447191","1.38704800606","1743.29293084","1744.585114","1744.65964699","1747.66262889","1","1747.67735982","1754.98516083",""
"sujeto_c28223ba","1","2","21","53","1755.12928081","direct","4","1","3","¿Cuántos mundiales de fútbol 
femenino ha realizado FIFA? ","9","7","","1","1","1","competitive","right","2.4471309185","1757.57645583","2.5528690815","1760.2863009","4.53124308586","1764.8175838","1.46875691414","1766.33766794","1767.5813508","1767.65567183","1770.65864491","1","1770.67224979","1776.77471995",""
"sujeto_c28223ba","1","2","22","54","1776.92425799","inverse","3","1","2","¿Cuál es la temperatura 
media anual en Montevideo? ","17.5","16.3","","0","0","1","competitive","left","2.58236503601","1779.50666595","2.41763496399","1782.09568381","4.34995508194","1786.44570088","1.65004491806","1788.13234997","1790.07094979","1790.15004897","1793.15303683","0","1793.16732287","1799.73685479",""
"sujeto_c28223ba","1","2","23","55","1799.86897993","direct","2","1","2","¿En qué año se estrenó el
 videojuego The Sims? ","2000","2002","","0","0","0","individual","right","2.39282011986","1802.26184297","2.60717988014","1805.04273295","4.08710718155","1809.12987995","1.91289281845","1811.09411979","1812.956146","1812.99549079","1815.99847078","0","1816.01281881","1823.40647697",""
"sujeto_c28223ba","1","2","24","56","1823.54970098","inverse","2","1","1","¿Cuál es la canción con 
mas covers? ","Yesterday","Stand by me","","0","0","0","individual","","2.82824015617","1826.37803078","2.17175984383","1828.71565986","6","1834.715801","0","1834.73610187","1836.13464999","1836.17152286","1839.17449188","0","1839.18916392","1843.35994101",""
"sujeto_c28223ba","1","2","25","57","1843.50741792","direct","1","1","4","¿Cuánto duró la guerra
 de los 100 años?","116","123","","0","0","0","competitive","right","2.2057030201","1845.71318388","2.7942969799","1848.6659658","5.08015990257","1853.74618578","0.919840097427","1854.70056081","1856.18140793","1856.26838493","1859.27138782","0","1859.28613877","1861.605896",""
"sujeto_c28223ba","1","2","26","58","1861.77150583","inverse","4","1","4","¿Qué color tiene la  bandera de Brasil?","Amarillo","Naranja","left","0","0","1","competitive","left","2.42777490616","1864.19934487","2.57222509384","1866.94178081","3.57946610451","1870.52128887","2.42053389549","1872.97697687","1874.54347181","1874.62768793","1877.63063097","1","1877.64519691","1880.67803097",""
"sujeto_c28223ba","1","2","27","59","1880.81131482","direct","4","1","3","¿Qué carabela de 
Colon no volvió del viaje?","Santa María","La pinta","","0","0","1","competitive","left","1.89809989929","1882.7094779","3.10190010071","1885.99952292","3.72891902924","1889.72848201","2.27108097076","1892.05265498","1893.54368186","1893.620368","1896.62331986","0","1896.63779783","1898.73729587",""
"sujeto_c28223ba","1","2","28","60","1898.88938498","inverse","4","1","4","¿Cuántos huesos tiene
 un adulto humano?","217","206","","0","0","1","individual","right","2.33511400223","1901.22456384","2.66488599777","1904.06008697","3.54040598869","1907.60053277","2.45959401131","1910.11305189","1911.38407278","1911.43060684","1914.4335649","0","1914.44778681","1922.28548884",""
"sujeto_c28223ba","1","2","29","61","1922.43235898","direct","1","1","1","¿Qué país africano fue 
fundado por esclavos?","Liberia","Chad","","0","0","0","competitive","left","1.44935202599","1923.88181281","3.55064797401","1927.60703683","4.88965296745","1932.49674487","1.11034703255","1933.65863585","1935.65030384","1935.72611094","1938.7291019","0","1938.74313593","1946.72984791",""
"sujeto_c28223ba","1","2","30","62","1946.87769079","inverse","4","1","2","¿A cuánto asciende la cima
 del monte Everest?","7.990 mts","8.848 mts","","0","0","1","competitive","right","2.00923109055","1948.88696599","2.99076890945","1952.05127001","3.03662204742","1955.08793092","2.96337795258","1958.10352898","1959.28839898","1959.37248278","1962.37546682","0","1962.38932991","1969.57337689",""
"sujeto_c28223ba","1","2","31","63","1969.70695877","direct","4","1","1","¿Cuál es el país mas chico?","Sealand","Luxemburgo","","1","1","1","competitive","right","2.71010708809","1972.4171319","2.28989291191","1974.86468196","4.1254761219","1978.99021983","1.8745238781","1980.9162879","1982.77981496","1982.86765289","1985.87009096","1","1985.884691","1989.00703979",""
"sujeto_c28223ba","1","2","32","64","1989.13696194","inverse","2","1","4","¿Cuántas pirámides hay en Egipto?","10000","11000","","1","1","1","competitive","right","2.40332698822","1991.54033279","2.59667301178","1994.2903688","2.8919210434","1997.18234897","3.1080789566","2000.34171486","2001.37529898","2001.45863795","2004.46162486","1","2004.47571993","2009.58479285",""
"sujeto_c28223ba","1","3","1","65","2109.57890987","direct","2","1","2","¿Cuál es el quinto país con 
mas extensión?","Canadá","Brasil","","1","1","0","competitive","right","1.49539899826","2111.07437181","3.50460100174","2114.73829889","3.94806909561","2118.686409","2.05193090439","2120.78730893","2122.12009287","2122.20433998","2125.20728993","1","2125.2219758","2132.94836092","2009.59968686"
"sujeto_c28223ba","1","3","2","66","2133.1066258","inverse","1","1","2","¿Qué rasgo facial no tiene
 la Mona Lisa?","Cejas","Pómulos","","0","0","1","competitive","right","1.99992704391","2135.10661793","3.00007295609","2138.26680899","4.25873303413","2142.52558398","1.74126696587","2144.29918885","2146.04956198","2146.13400292","2149.13698697","0","2149.1516099","2155.42295098",""
"sujeto_c28223ba","1","3","3","67","2155.56952977","direct","4","1","3","¿Cuál es el país con 
mayor población?","Esados Unidos","China","right","0","0","1","competitive","left","1.54320693016","2157.11279893","3.45679306984","2160.74591589","4.16683888435","2164.91279888","1.83316111565","2166.796767","2168.44275594","2168.53092384","2171.53313184","0","2171.54795599","2174.91531682",""
"sujeto_c28223ba","1","3","4","68","2175.04977298","inverse","1","1","1","La palabra dinosaurio significa","Lagarto Terrible","Lagarto Dragón","","1","1","0","competitive","","1.38526701927","2176.43509793","3.61473298073","2180.20240593","6","2186.20253992","0","2186.2185328","2187.38885188","2187.47142887","2190.47442079","0","2190.48895979","2193.35084081",""
"sujeto_c28223ba","1","3","5","69","2193.49060392","direct","2","1","3","¿Qué es el membrillero?","Arbol","Arbusto","","0","0","0","competitive","left","2.33451318741","2195.82518101","2.66548681259","2198.64927983","3.10988688469","2201.75920677","2.89011311531","2204.69850993","2206.65263796","2206.7340169","2209.73608279","0","2209.7516458","2216.21565199",""
"sujeto_c28223ba","1","3","6","70","2216.36941385","inverse","3","1","3","¿Alrededor de qué planeta orbita 
el satélite Europa?","Jupiter","Saturno","","1","1","1","competitive","left","1.60293698311","2217.97239399","3.39706301689","2221.54284692","4.78658604622","2226.32950091","1.21341395378","2227.59588289","2229.14068389","2229.22991085","2232.23212886","1","2232.2478559","2234.45301795",""
"sujeto_c28223ba","1","3","7","71","2234.599051","direct","3","1","1","¿Donde fue el mundial de 
fútbol de 1954?","Suiza","Suecia","","1","1","1","competitive","left","1.14051294327","2235.73963189","3.85948705673","2239.75381994","4.1517829895","2243.90564585","1.8482170105","2245.80459881","2247.05715179","2247.13872886","2250.14171386","1","2250.1561718","2254.06794786",""
"sujeto_c28223ba","1","3","8","72","2254.22496986","inverse","1","1","4","¿Cuál de los 7 enanitos
no tenía barba?","Bashful","Mudito","","1","1","0","competitive","right","1.12165784836","2255.34675384","3.87834215164","2259.39601588","2.65665602684","2262.05270982","3.34334397316","2265.44731998","2267.02708983","2267.11603379","2270.11903977","1","2270.13334894","2275.06245399",""
"sujeto_c28223ba","1","3","9","73","2275.2016809","direct","3","1","2","¿Cual red social es
mas utilizada mundialmente?","Instagram","Facebook","","1","1","0","competitive","left","1.03428792953","2276.23605394","3.96571207047","2280.37465882","4.73531007767","2285.11006188","1.26468992233","2286.42673278","2288.34412193","2288.42719197","2291.43018484","1","2291.4448638","2294.37937498",""
"sujeto_c28223ba","1","3","10","74","2294.52972388","inverse","4","1","1","¿Cuándo se inició la copa
 América de fútbol?","1916","1923","","1","1","1","competitive","left","1.52541685104","2296.05518579","3.47458314896","2299.68513298","4.51210403442","2304.19729686","1.48789596558","2305.72093081","2307.6183989","2307.70383787","2310.70681095","1","2310.72142291","2313.37755799",""
"sujeto_c28223ba","1","3","11","75","2313.52373695","direct","3","1","4","¿Cuántos presidentes de EEUU
han muerto asesinados?","3","4","","0","0","1","competitive","right","1.35057806969","2314.87436199","3.64942193031","2318.69557881","4.12775802612","2322.82337999","1.87224197388","2324.72994399","2326.21389198","2326.2970438","2329.30002379","0","2329.314224","2332.9583168",""
"sujeto_c28223ba","1","3","12","76","2333.09921193","inverse","2","1","4","¿Cuántas veces participó EEUU
 en la copa América?","4","5","","0","0","1","competitive","left","0.734289169312","2333.83357596","4.26571083069","2338.28740191","3.92207980156","2342.2095449","2.07792019844","2344.33859181","2345.78269696","2345.87286782","2348.87585783","0","2348.89044499","2355.00760984",""
"sujeto_c28223ba","1","3","13","77","2355.15784597","direct","4","1","1","¿Cuál de estos países 
no formaba la URSS?","Azeribayán","Afganistán","","0","0","1","competitive","right","1.29193997383","2356.44983077","3.70806002617","2360.33381891","4.06703400612","2364.40089583","1.93296599388","2366.38468695","2367.69773078","2367.785954","2370.78896379","0","2370.80247092","2378.7846148",""
"sujeto_c28223ba","1","3","14","78","2378.93795085","inverse","1","1","1","¿En qué año se inauguró
 el teatro Solís?","1867","1856","","0","0","0","individual","left","1.72398805618","2380.66200399","3.27601194382","2384.09591985","2.84498786926","2386.94094491","3.15501213074","2390.12979984","2391.18612194","2391.23108888","2394.23403883","0","2394.24867892","2400.89647579",""
"sujeto_c28223ba","1","3","15","79","2401.05060482","direct","1","1","4","¿A qué velocidad vuela 
el avión más rápido?","3529","3874","","0","0","0","competitive","right","2.44861292839","2403.4992609","2.55138707161","2406.2059989","3.28717398643","2409.49323392","2.71282601357","2412.25888991","2414.01440692","2414.093292","2417.09624982","0","2417.11153293","2419.22180486",""
"sujeto_c28223ba","1","3","16","80","2419.36239195","inverse","3","1","4","¿De qué año es la primer 
película cinematográfica?","1897","1888","","0","0","0","competitive","left","1.00404715538","2420.36654186","3.99595284462","2424.53167582","3.28279209137","2427.81450891","2.71720790863","2430.58297396","2431.71600294","2431.80141282","2434.80437684","0","2434.81789184","2440.2276268",""
"sujeto_c28223ba","1","3","17","81","2440.36966181","direct","2","1","3","¿Cuántos países 
tiene nuestro planeta?","191","194","","1","1","1","competitive","right","1.14598202705","2441.51569486","3.85401797295","2445.52790499","2.67675900459","2448.20470381","3.32324099541","2451.57789683","2452.93512988","2453.01334596","2456.0163219","1","2456.03094482","2459.26925182",""
"sujeto_c28223ba","1","3","18","82","2459.41616583","inverse","2","1","2","¿Cuántos habitantes
 tiene Buenos Aires?","2.9000.000","3650000","","0","0","0","competitive","left","1.94873690605","2461.36499381","3.05126309395","2464.60362887","3.1202352047","2467.72389984","2.8797647953","2470.65615582","2472.05339193","2472.12434292","2475.12732482","0","2475.14168191","2480.97106791",""
"sujeto_c28223ba","1","3","19","83","2481.1085639","direct","2","1","1","¿Cuántos kilos forman una tonelada?","1000","1500","left","1","1","1","competitive","left","1.09746098518","2482.20609999","3.90253901482","2486.26580596","1.42427110672","2487.69013786","4.57572889328","2492.31576085","2494.2030859","2494.28540182","2497.28838181","1","2497.30273581","2503.26013184",""
"sujeto_c28223ba","1","3","20","84","2503.42101383","inverse","4","1","4","¿Cuántos estados tiene la 
República del Perú? ","24","23","","0","0","1","individual","left","0.686065912247","2504.10714078","4.31393408775","2508.57596779","1.40538597107","2509.98141885","4.59461402893","2514.62599683","2515.64821792","2515.69559693","2518.69715881","0","2518.71300578","2523.65831995",""
"sujeto_c28223ba","1","3","21","85","2523.79706478","direct","3","1","3","¿En qué año nació Cristóbal Colón? ","1451","1447","","0","0","1","competitive","left","1.88945007324","2525.68657899","3.11054992676","2528.98956084","4.06700706482","2533.05660987","1.93299293518","2535.03980494","2536.88571882","2536.95766878","2539.96059489","0","2539.97402382","2544.20201993",""
"sujeto_c28223ba","1","3","22","86","2544.35824394","inverse","4","1","4","¿Cuánto mide la 
Montaña Aconcagua? ","6234","6962","","0","0","1","competitive","left","1.27650403976","2545.6347909","3.72349596024","2549.51591587","3.23190283775","2552.74786186","2.76809716225","2555.56697583","2556.85636282","2556.934618","2559.93761992","0","2559.95247793","2567.13612795",""
"sujeto_c28223ba","1","3","23","87","2567.28673196","direct","2","1","4","¿Cuánto mide el punto
 más profundo del océano? ","12508","11003","","0","0","1","competitive","left","1.2719950676","2568.55886698","3.7280049324","2572.46103096","4.26103210449","2576.72210479","1.73896789551","2578.49545097","2579.74695492","2579.83061194","2582.83359885","0","2582.84791589","2587.05416679",""
"sujeto_c28223ba","1","3","24","88","2587.19874191","inverse","1","1","3","¿Cuántos álbumes ha publicado 
el cantante Jaime Roos? ","41","34","","0","0","1","competitive","right","0.902513980865","2588.10131097","4.09748601913","2592.38845897","3.40287303925","2595.791394","2.59712696075","2598.43961883","2599.92948198","2600.00784683","2603.01083994","0","2603.02433181","2609.22048378",""
"sujeto_c28223ba","1","3","25","89","2609.37584996","direct","4","1","3","¿En qué año nació el 
ex-presidente Jorge Battle? ","1921","1927","","1","1","1","individual","left","1.6805870533","2611.05650592","3.3194129467","2614.55030084","3.64618492126","2618.19654584","2.35381507874","2620.58392477","2622.31458592","2622.3525188","2625.35544801","1","2625.37004399","2628.8561089",""
"sujeto_c28223ba","1","3","26","90","2629.0048089","inverse","1","1","3","¿Cuántas presidencias 
constitucionales  hubo en Uruguay? ","41","42","","0","0","1","competitive","left","1.35783410072","2630.3627069","3.64216589928","2634.16075397","4.45100498199","2638.61179996","1.54899501801","2640.21174383","2641.41554594","2641.49556494","2644.49857998","0","2644.51289988","2650.29657984",""
"sujeto_c28223ba","1","3","27","91","2650.44841099","direct","1","1","2","¿Quién escribió mas sinfonías?","Mozart","Haydn","","1","1","0","competitive","left","1.52846503258","2651.97691989","3.47153496742","2655.60432386","3.41864585876","2659.02303481","2.58135414124","2661.6557498","2662.87324286","2662.95689583","2665.95987797","1","2665.97416687","2669.72559285",""
"sujeto_c28223ba","1","3","28","92","2669.87559891","inverse","4","1","2","¿En qué año nació Michael Jackson?","1958","1953","","1","1","1","competitive","right","2.05245685577","2671.92811584","2.94754314423","2675.048136","5.20213294029","2680.25030994","0.797867059708","2681.10112286","2683.07937694","2683.15130877","2686.15428901","1","2686.16892195","2692.03120399",""
"sujeto_c28223ba","1","3","29","93","2692.18671393","direct","3","1","2","¿En qué año entró en vigencia 
la ley antitabaco en Uruguay?","2005","2006","","1","1","1","competitive","left","1.15172100067","2693.33850288","3.84827899933","2697.36116886","3.05324888229","2700.41447687","2.94675111771","2703.41138983","2705.00608277","2705.07941198","2708.08235598","1","2708.09715796","2713.43117881",""
"sujeto_c28223ba","1","3","30","94","2713.56535387","inverse","3","1","1","¿Cuándo se subió el 
primer video a youtube?","2004","2005","","0","0","1","individual","left","2.46625995636","2716.03168297","2.53374004364","2718.73800898","4.82268095016","2723.56075096","1.17731904984","2724.7897768","2726.09547281","2726.14093089","2729.14390993","0","2729.15833497","2736.91395688",""
"sujeto_c28223ba","1","3","31","95","2737.05923796","direct","2","1","1","¿Cuántos habitantes tiene India?","1200 millones","1300 millones","","0","0","0","competitive","right","0.939637899399","2737.99896193","4.0603621006","2742.23424077","2.7996931076","2745.03401399","3.2003068924","2748.2840879","2750.2537508","2750.33613491","2753.33912492","0","2753.354357","2759.40187478",""
"sujeto_c28223ba","1","3","32","96","2759.55540395","inverse","4","1","2","¿A qué edad murió Bob Marley?","36","37","","0","0","1","competitive","left","1.161714077","2760.71718287","3.838285923","2764.72838879","5.06085705757","2769.78930688","0.939142942429","2770.76289797","2772.66077495","2772.74639082","2775.74937391","0","2775.763942","2778.86644197",""
"sujeto_c28223ba","1","4","1","97","2904.74965501","direct","2","1","1","¿Cuantos años dirigió la selección 
uruguaya Tabarez?","15 años","13 años","","0","0","0","competitive","right","1.52812790871","2906.27782679","3.47187209129","2909.905828","4.42301702499","2914.32888699","1.57698297501","2915.95653296","2917.14771485","2917.22363091","2920.22507691","0","2920.24077296","2927.31283689","2778.88133979"
"sujeto_c28223ba","1","4","2","98","2927.45857286","inverse","4","1","1","¿Cuantas teclas tiene un teclado 
de computadora generalmente? ","Entre 99 y 108","Entre 109 y 113","","1","1","1","competitive","right","1.78551983833","2929.24415994","3.21448016167","2932.64970279","1.54242897034","2934.19217181","4.45757102966","2938.70057297","2939.70335984","2939.78641582","2942.78940797","1","2942.80287099","2945.17431688",""
"sujeto_c28223ba","1","4","3","99","2945.32097983","direct","1","1","1","¿Cuál Departamento tiene
 mayor superficie?","Río Negro","Soriano","","0","0","0","competitive","left","2.88531589508","2948.20636082","2.11468410492","2950.49316788","5.84921002388","2956.34241891","0.15078997612","2956.54642391","2958.25991488","2958.34596992","2961.34897995","0","2961.36154795","2965.68759894",""
"sujeto_c28223ba","1","4","4","100","2965.82881188","inverse","3","1","2","¿Cuál es el apellido de las 
hermanastras  de  cenicienta?","Tremaine","Truman","","0","0","1","competitive","left","1.71563601494","2967.5445118","3.28436398506","2971.00356984","3.72797703743","2974.73161292","2.27202296257","2977.03826785","2978.90779996","2978.98947001","2981.99051189","0","2982.00685191","2984.70281577",""
"sujeto_c28223ba","1","4","5","101","2984.84259892","direct","4","1","4","¿Cuál película ganó un
 Oscar a mejor película?","Alto Impacto","Cache","","0","0","1","competitive","right","1.09716391563","2985.93983197","3.90283608437","2990.01338577","3.51640892029","2993.52985477","2.48359107971","2996.06400681","2997.18340492","2997.26519299","3000.26816297","0","3000.28283596","3002.54747581",""
"sujeto_c28223ba","1","4","6","102","3002.70034194","inverse","1","1","3","¿A cuántos centímetros
equivale la medida pié?","25","30","","0","0","1","competitive","left","1.44966602325","3004.15008998","3.55033397675","3007.87436199","2.45863103867","3010.33306384","3.54136896133","3013.92381287","3014.96382594","3015.0426209","3018.045614","0","3018.05914688","3023.46009398",""
"sujeto_c28223ba","1","4","7","103","3023.59273481","direct","2","1","2","¿Qué departamento es mas grande?","Cerro Largo","Paysandú","","0","0","0","competitive","left","0.941460847855","3024.5342629","4.05853915215","3028.7512989","5.83283877373","3034.58419394","0.167161226273","3034.80344892","3036.40317178","3036.48683977","3039.48983979","0","3039.50419188","3043.61418796",""
"sujeto_c28223ba","1","4","8","104","3043.75545788","inverse","2","1","3","¿Quién pintó la Mona Lisa?","Picasso","Da Vinci","right","0","0","1","competitive","right","1.49288916588","3045.24839282","3.50711083412","3048.90713477","4.28525805473","3053.19243288","1.71474194527","3054.95987892","3056.5657258","3056.64355493","3059.64654279","1","3059.66128778","3061.82309794",""
"sujeto_c28223ba","1","4","9","105","3061.98030186","direct","4","1","3","¿Cuántos litros hay en un galon?","3.54","3.78","","1","1","1","competitive","right","1.33970093727","3063.32004881","3.66029906273","3067.15487599","3.9667570591","3071.12169385","2.0332429409","3073.20644999","3074.7241168","3074.80668378","3077.80966687","1","3077.82392788","3083.61628079",""
"sujeto_c28223ba","1","4","10","106","3083.75670695","inverse","4","1","1","¿Cuántas teclas tiene
 un piano moderno?","80","88","","0","0","1","competitive","left","1.15902614594","3084.91577482","3.84097385406","3088.932971","4.16381692886","3093.09682894","1.83618307114","3094.9838109","3095.99206901","3096.06791592","3099.07090378","0","3099.0852499","3105.8830328",""
"sujeto_c28223ba","1","4","11","107","3106.02017093","direct","4","1","3","¿Cuántos países hay en África?","54","62","","0","0","1","competitive","right","1.16674995422","3107.1870079","3.83325004578","3111.17848396","3.20446801186","3114.3830409","2.79553198814","3117.22891879","3118.9191258","3118.99624395","3121.99911594","0","3122.01439285","3129.8191669",""
"sujeto_c28223ba","1","4","12","108","3129.94914985","inverse","1","1","3","¿En qué siglo se crearon
 las primeras pistolas?","XV","XIII","","1","1","1","competitive","left","1.53933787346","3131.48859596","3.46066212654","3135.10492086","3.65329885483","3138.75828791","2.34670114517","3141.15680695","3143.10472488","3143.19103789","3146.19404292","1","3146.20864081","3149.44174194",""
"sujeto_c28223ba","1","4","13","109","3149.57735991","direct","3","1","4","¿En qué año se estrenó 
la serie friends?","1994","1995","","0","0","1","competitive","left","1.02395391464","3150.60138988","3.97604608536","3154.7340498","4.26033210754","3158.99444079","1.73966789246","3160.76835799","3162.64367294","3162.71965098","3165.72261882","0","3165.73734283","3170.74340391",""
"sujeto_c28223ba","1","4","14","110","3170.88783598","inverse","3","1","4","¿En qué año nació Hitler?","1889","1887","","0","0","1","individual","left","2.85764312744","3173.74554992","2.14235687256","3176.05751181","1.83504605293","3177.89259982","4.16495394707","3182.09533286","3183.20914984","3183.247262","3186.25023985","0","3186.26462197","3191.29161191",""
"sujeto_c28223ba","1","4","15","111","3191.43295789","direct","1","1","4","¿Cuánto pesa un elefante Africano?","6000 kilos","5400 kilos","","0","0","0","competitive","right","1.03768396378","3192.47068787","3.96231603622","3196.60650778","3.24624705315","3199.85279799","2.75375294685","3202.656142","3204.01103592","3204.09126496","3207.09422779","0","3207.10864377","3213.81570196",""
"sujeto_c28223ba","1","4","16","112","3213.96049786","inverse","1","1","2","¿Qué porcentaje de 
la población es zurda?","10%","7%","","1","1","0","competitive","left","1.6993868351","3215.65992785","3.3006131649","3219.11723495","2.20671820641","3221.32401299","3.79328179359","3225.16793084","3226.41103983","3226.48607588","3229.48906994","1","3229.50358295","3235.48062086",""
"sujeto_c28223ba","1","4","17","113","3235.62125492","direct","1","1","2","¿En qué año se estrenó
Volver al futuro?","1984","1985","","0","0","1","individual","right","0.903835058212","3236.52515984","4.09616494179","3240.79619598","2.4929459095","3243.28917885","3.5070540905","3246.8462739","3248.4080739","3248.4480238","3251.45103097","0","3251.46572089","3258.55714297",""
"sujeto_c28223ba","1","4","18","114","3258.70008993","inverse","3","1","2","¿Cuántos jugadores hay en un 
equipo de baseball?","9","8","","1","1","0","competitive","right","0.970164060593","3259.67030191","4.02983593941","3263.874259","1.77402806282","3265.64832997","4.22597193718","3269.92405486","3271.53809786","3271.60935283","3274.61230898","1","3274.62782979","3279.60506582",""
"sujeto_c28223ba","1","4","19","115","3279.74597478","direct","2","1","1","¿Cuántos Oscar ganó
 la película titanic?","13","11","","1","1","1","competitive","right","0.971518993378","3280.71756196","4.02848100662","3284.90235996","5.29516100883","3290.19756198","0.704838991165","3290.93724585","3292.23932385","3292.32063794","3295.3236289","1","3295.33840394","3299.9410789",""
"sujeto_c28223ba","1","4","20","116","3300.08975196","inverse","4","1","4","¿En qué año comenzó
la segunda guerra mundial?","1939","1976","left","0","0","1","competitive","left","1.04401898384","3301.13387179","3.95598101616","3305.26033282","1.87730503082","3307.1377008","4.12269496918","3311.31205177","3313.1118679","3313.19742489","3316.200423","1","3316.21462584","3320.20172882",""
"sujeto_c28223ba","1","4","21","117","3320.35056686","direct","2","1","4","¿Cuántos biomas hay en Uruguay?","5","4","","0","0","1","individual","right","1.01040697098","3321.36106992","3.98959302902","3325.50711584","4.30879497528","3329.81594777","1.69120502472","3331.54049993","3333.33778691","3333.37510991","3336.378088","0","3336.39272499","3342.642138",""
"sujeto_c28223ba","1","4","22","118","3342.77771878","inverse","2","1","3","¿Cuándo murió Pablo Escobar?","1993","1997","","1","1","1","competitive","left","0.992404937744","3343.77017283","4.00759506226","3347.93523288","3.83099198341","3351.76626682","2.16900801659","3353.98602486","3355.76889086","3355.85322785","3358.85619593","1","3358.86964393","3364.57331395",""
"sujeto_c28223ba","1","4","23","119","3364.70655799","direct","1","1","4","¿Qué serie ha ganado mas premios?","Friends","Murphy Brown","","1","1","0","competitive","right","1.08079504967","3365.787431","3.91920495033","3369.86284089","5.18650484085","3375.04941297","0.813495159149","3375.91496086","3377.26737499","3377.34803796","3380.35102201","1","3380.3672688","3385.92889786",""
"sujeto_c28223ba","1","4","24","120","3386.06760478","inverse","4","1","2","¿Cuántas fichas tiene el dominó?","26","28","","1","1","1","competitive","left","1.23094201088","3387.29860997","3.76905798912","3391.23865891","3.08693790436","3394.32565594","2.91306209564","3397.29135489","3398.34668994","3398.4259088","3401.42888784","1","3401.4432168","3406.68632483",""
"sujeto_c28223ba","1","4","25","121","3406.82771778","direct","2","1","4","¿Cuántos son los dientes de leche?","20","25","","0","0","1","competitive","left","1.39201903343","3408.21980095","3.60798096657","3412.00236392","3.24140000343","3415.24381995","2.75859999657","3418.05277586","3419.76312995","3419.85467601","3422.85768986","0","3422.87136078","3425.01707387",""
"sujeto_c28223ba","1","4","26","122","3425.17353177","inverse","3","1","3","¿Cuántos gramos son una onza?","22","28","","0","0","1","competitive","left","1.9314289093","3427.10506201","3.0685710907","3430.3602519","4.50464081764","3434.8649559","1.49535918236","3436.41345191","3438.40831184","3438.48058796","3441.48357487","0","3441.49151492","3447.7813158",""
"sujeto_c28223ba","1","4","27","123","3447.92618394","direct","3","1","1","¿Cuándo salió el primer album
 de los Beatles?","1963","1962","","1","1","1","competitive","left","1.06206607819","3448.98832798","3.93793392181","3453.09026098","1.55683112144","3454.64712977","4.44316887856","3459.1405468","3460.30416083","3460.37546897","3463.37844896","1","3463.39280486","3467.16484594",""
"sujeto_c28223ba","1","4","28","124","3467.3111279","inverse","3","1","3","¿Quién fundó la empresa apple?","Carlos Slim","Steve Jobs","","1","1","1","competitive","left","1.01224708557","3468.32343984","3.98775291443","3472.46545982","3.79193091393","3476.25745082","2.20806908607","3478.51718998","3479.63186979","3479.71774077","3482.72073197","1","3482.73538399","3489.03326893",""
"sujeto_c28223ba","1","4","29","125","3489.17020798","direct","4","1","2","¿Cuántos municipios hay
 en Montevideo?","8","7","","1","1","1","competitive","left","1.39641308784","3490.56666994","3.60358691216","3494.32883286","3.30678296089","3497.63567495","2.69321703911","3500.37761784","3502.29242992","3502.3781209","3505.381078","1","3505.39582777","3507.47693181",""
"sujeto_c28223ba","1","4","30","126","3507.61325479","inverse","1","1","1","¿Cuántos kilómetros hay
 de Montevideo a Artigas?","632","599","","0","0","0","competitive","left","1.0295419693","3508.64287186","3.9704580307","3512.77207398","1.7197239399","3514.49185801","4.2802760601","3518.82190895","3520.30506086","3520.3907218","3523.3937149","0","3523.4081738","3529.46029592",""
"sujeto_c28223ba","1","4","31","127","3529.59301877","direct","2","1","2","¿En qué año nació 
Leonardo Da Vinci?","1452","1511","","1","1","0","competitive","right","0.867993116379","3530.46108389","4.13200688362","3534.76457691","4.45552611351","3539.22014284","1.54447388649","3540.81791282","3542.67154479","3542.75232577","3545.75526881","1","3545.76924491","3548.91566086",""
"sujeto_c28223ba","1","4","32","128","3549.0541358","inverse","3","1","1","¿A qué continente
 pertenece el país Gabón?","Africa","Oceanía","","0","0","1","competitive","left","0.80610203743","3549.86029196","4.19389796257","3554.22642398","5.06982707977","3559.2963109","0.930172920227","3560.27666283","3562.08834291","3562.16020179","3565.16317201","0","3565.17785692","3570.415766",""
