"code","nro_aplicante","nro_bloque","nro_trial_bloque","nro_trial_global","show_game_type","choice_order","rival","pay_individual","pay_competitive","question","answer_left_text","answer_right_text","correct_answer","outcome_individual","outcome_competitive","outcome_rival","game_type","answer","social_time","rt_game_type","feedback_delay","show_question","answer_time","rt_answer_global","feedback_delay_2","show_jitter","jitter_time","show_outcome","outcome_time","outcome_participant_real","show_final_jitter","second_jitter_time","inicio_descanso"
"sujeto_0065422","1","1","1","1","658.66553998","direct","3","1","4","¿Cuántos centímetros corresponden
al talle 36 del calzado?","23","24","","0","0","1","competitive","right","2.31306910515","660.978668928","2.68693089485","663.818284988","3.34030795097","667.158637047","2.65969204903","669.873905897","670.90219593","670.975100994","673.978057861","0","673.992038965","676.154512882",""
"sujeto_0065422","1","1","2","2","676.293720961","inverse","3","1","2","¿Cuántas metros mide la Intendencia
Municipal de Montevideo? ","84","78","","0","0","1","competitive","left","1.38492584229","677.678691864","3.61507415771","681.449229002","2.96534013748","684.414626837","3.03465986252","687.498867035","689.37688303","689.450500965","692.453425884","0","692.467869997","694.560587883",""
"sujeto_0065422","1","1","3","3","694.686386824","direct","1","1","3","¿Cuántas La Pasiva
 hay en uruguay?","15","11","","1","1","1","competitive","left","1.41510510445","696.101549864","3.58489489555","699.841078997","2.81354498863","702.654667854","3.18645501137","705.874428988","707.486093044","707.560045004","710.563012838","1","710.576982021","714.85334897",""
"sujeto_0065422","1","1","4","4","715.028908014","inverse","3","1","3","¿De que color es la camiseta de uruguay?","blanca","celeste","right","1","1","1","competitive","right","2.41867494583","717.447645903","2.58132505417","720.185552835","2.03098797798","722.216583967","3.96901202202","726.232606888","727.43738389","727.518450975","730.520287991","1","730.535470009","733.98877883",""
"sujeto_0065422","1","1","5","5","734.120801926","direct","2","1","1","¿Cuánto metros mide
la torre Eiffel?","333","324","","1","1","1","competitive","right","1.09577584267","735.216629982","3.90422415733","739.294833899","2.12271094322","741.417589903","3.87728905678","745.345489979","746.866873026","746.946656942","749.948297977","1","749.964678049","757.001371861",""
"sujeto_0065422","1","1","6","6","757.131935835","inverse","3","1","4","¿Cuantas ciudades existen
 en todo el uruguay?","63","72","","0","0","1","competitive","left","0.872676849365","758.004679918","4.12732315063","762.289206028","2.2043659687","764.493638039","3.7956340313","768.339565992","769.394381046","769.474912882","772.476305962","0","772.492362976","780.118938923",""
"sujeto_0065422","1","1","7","7","780.260619879","direct","1","1","1","¿Cuantos estados tiene África?","52","54","","1","1","0","competitive","left","0.947937011719","781.208619833","4.05206298828","785.418382883","3.21812486649","788.636564016","2.78187513351","791.468621016","793.332645893","793.404008865","796.406955957","1","796.421831846","802.182853937",""
"sujeto_0065422","1","1","8","8","802.322674036","inverse","4","1","4","¿En qué año nació
 Stephen Hawking?","1952","1942","","0","0","1","competitive","left","0.915951013565","803.238692999","4.08404898643","807.476600885","2.54693698883","810.023597956","3.45306301117","813.512292862","814.95625186","815.030864954","818.033793926","0","818.047703028","824.144320011",""
"sujeto_0065422","1","1","9","9","824.282861948","direct","2","1","3","¿Cuánto años tenía Artigas
 cuando se fue a Paraguay?","56","57","","1","1","1","competitive","right","0.87334895134","825.156333923","4.12665104866","829.440345049","3.23718309402","832.677587986","2.76281690598","835.491441011","837.040277958","837.109861851","840.11284399","1","840.127209902","846.174504995",""
"sujeto_0065422","1","1","10","10","846.345389843","inverse","1","1","2","¿Cuantos milímetros 
mide una hoja A2?","420x592","420x594","","0","0","1","competitive","right","1.26720905304","847.612643003","3.73279094696","851.502234936","3.71529912949","855.217597961","2.28470087051","857.553514957","859.121912003","859.204576969","862.207556009","0","862.221837997","869.295444012",""
"sujeto_0065422","1","1","11","11","869.44033885","direct","3","1","3","¿Cuál es la menor temperatura 
registrada en Uruguay?","-5.4","-7.4","","0","0","1","competitive","right","1.3312458992","870.771630049","3.6687541008","874.597846985","2.80768799782","877.405578852","3.19231200218","880.648002863","882.330036879","882.416652918","885.419638872","0","885.43364501","889.166939974",""
"sujeto_0065422","1","1","12","12","889.301854849","inverse","2","1","2","¿Cuantos años hace que 
se fundó facebook?","18","17","","0","0","0","competitive","left","0.925678014755","890.227602959","4.07432198524","894.472298861","2.12119889259","896.593539","3.87880110741","900.524912834","901.897640944","901.975970984","904.97895503","0","904.994175911","907.768820047",""
"sujeto_0065422","1","1","13","13","907.895553827","direct","1","1","4","¿Cuál animal es más
 pesado en promedio?","Rinoceronte","Hipopotamo","","0","0","0","competitive","right","0.737977981567","908.633574963","4.26202201843","913.083479881","3.9980340004","917.081574917","2.0019659996","919.135143042","920.214367867","920.284955978","923.287933826","0","923.303390026","927.14428401",""
"sujeto_0065422","1","1","14","14","927.287780046","inverse","1","1","2","¿Qué personaje de dragon ball 
murió más veces?","Chaoz","Krillin","","1","1","0","competitive","right","0.750813007355","928.038645029","4.24918699265","932.444576025","1.82695603371","934.271590948","4.17304396629","938.493901014","939.95172286","940.029204845","943.032206059","1","943.047281027","950.816289902",""
"sujeto_0065422","1","1","15","15","950.964495897","direct","3","1","2","La universidad de oxford. 
existe desde:","1096","1249","","1","1","0","competitive","right","0.809984922409","951.774548054","4.19001507759","956.122787952","2.85968899727","958.982535839","3.14031100273","962.156224012","963.205024004","963.274945974","966.277925968","1","966.292002916","972.980229855",""
"sujeto_0065422","1","1","16","16","973.126806974","inverse","3","1","1","¿Qué escritor latino ganó antes
 el premio nobel?"," García Marquez","Neruda","","0","0","1","competitive","left","0.902688026428","974.029542923","4.09731197357","978.281824827","2.73656487465","981.018430948","3.26343512535","984.333046913","986.073004961","986.151582956","989.152283907","0","989.169570923","992.630094051",""
"sujeto_0065422","1","1","17","17","992.770746946","direct","4","1","3","¿Cuántos dientes tiene un
 tiburón blanco?","6000","3000","","0","0","1","competitive","left","0.863760948181","993.634610891","4.13623905182","997.961215973","3.54920315742","1001.51045799","2.45079684258","1004.01245999","1005.05144882","1005.12982082","1008.13281798","0","1008.14718103","1012.95684195",""
"sujeto_0065422","1","1","18","18","1013.13234997","inverse","4","1","1","¿Cuánto mide el paralelo Ecuador?","40.000km","70.000km","","0","0","1","competitive","right","1.20414018631","1014.33655","3.79585981369","1018.2880969","2.65439987183","1020.94256496","3.34560012817","1024.33881903","1026.29492784","1026.37358904","1029.37656784","0","1029.39063096","1032.99321604",""
"sujeto_0065422","1","1","19","19","1033.14281797","direct","4","1","2","¿Cuál fue el primer libro 
de Stephen King?","Carrie","The Stand","","1","1","1","competitive","left","0.93563914299","1034.07852983","4.06436085701","1038.31421399","2.01628804207","1040.33056688","3.98371195793","1044.365242","1046.1082809","1046.18415999","1049.18537998","1","1049.20138192","1053.67230988",""
"sujeto_0065422","1","1","20","20","1053.80248594","inverse","2","1","3","¿Qué civilización practicaba
 la momificación?","Grecia","Egipto","right","0","0","1","competitive","right","0.794023990631","1054.59656096","4.20597600937","1058.95563984","3.14681100845","1062.10250902","2.85318899155","1064.99171686","1066.93101788","1067.00996804","1070.01293993","1","1070.02713084","1074.25592089",""
"sujeto_0065422","1","1","21","21","1074.4293499","direct","4","1","4","¿Cuántos millones de visitas
 recibe google por minuto?","3.0","4.5","","0","0","1","competitive","right","0.842171907425","1075.27159286","4.15782809258","1079.58582401","3.52162313461","1083.10750794","2.47837686539","1085.63648701","1087.15135193","1087.22147584","1090.22443986","0","1090.23847103","1097.36027503",""
"sujeto_0065422","1","1","22","22","1097.49087095","inverse","1","1","3","La máquina de fax. se inventó en:","1843","1960","","0","0","1","competitive","left","0.984649896622","1098.47560096","4.01535010338","1102.64810085","2.55534696579","1105.20349002","3.44465303421","1108.69904184","1109.9411509","1110.01645589","1113.01943183","0","1113.03460884","1116.27090287",""
"sujeto_0065422","1","1","23","23","1116.41869187","direct","2","1","4","En la verdadera historia de los
 300 espartanos. habían:","300 soldados","4300 soldados","","1","1","1","competitive","right","0.751775026321","1117.17051101","4.24822497368","1121.57265496","3.09682798386","1124.66954398","2.90317201614","1127.62469983","1128.88590693","1128.95947289","1131.96244788","1","1131.97739291","1135.7791729",""
"sujeto_0065422","1","1","24","24","1135.91216087","inverse","1","1","4","¿Cuántos milímetros crece
 el pelo por día?","0.4","0.04","","0","0","0","competitive","left","0.854273080826","1136.7664969","4.14572691917","1141.06773996","3.37363386154","1144.44143891","2.62636613846","1147.11875606","1148.87947488","1148.95338583","1151.95633101","0","1151.97047591","1158.70556688",""
"sujeto_0065422","1","1","25","25","1158.85608888","direct","4","1","1","¿Cuánto mide la baldosa gris 
clásica de Montevideo?","22x22 cm.","20x20 cm.","","1","1","1","competitive","right","0.973356962204","1159.82951593","4.0266430378","1164.02954984","3.40089893341","1167.43048787","2.59910106659","1170.08062291","1172.07586384","1172.14891696","1175.15189195","1","1175.166291","1180.7090919",""
"sujeto_0065422","1","1","26","26","1180.85090804","inverse","2","1","2","¿Cuántas películas de rápidos
 y furiosos hay?","10","11","","1","1","0","competitive","right","0.907469034195","1181.75844288","4.09253096581","1185.99096799","1.71845006943","1187.70948601","4.28154993057","1192.04037285","1193.39837193","1193.475986","1196.47625804","1","1196.49447989","1198.52919698",""
"sujeto_0065422","1","1","27","27","1198.66229606","direct","3","1","1","¿Cuántos masters 1000
 ganó Del Potro?","1","2","","1","1","1","competitive","left","0.642179965973","1199.30454493","4.35782003403","1203.83044004","3.60995697975","1207.44043803","2.39004302025","1209.8663249","1211.62092185","1211.70086098","1214.70385599","1","1214.71838689","1222.11473203",""
"sujeto_0065422","1","1","28","28","1222.25268602","inverse","2","1","4","¿Cuántos meses dura el 
embarazo de una leona?","3 meses","4 meses","","0","0","1","competitive","right","0.612781047821","1222.86555195","4.38721895218","1227.42911887","3.25828289986","1230.68746901","2.74171710014","1233.47929382","1234.59032393","1234.66453505","1237.66750288","0","1237.68160701","1244.40409684",""
"sujeto_0065422","1","1","29","29","1244.53262091","direct","1","1","1","¿En qué año fue creado
 el sandwich?","1762","1653","","1","1","0","competitive","right","1.77074790001","1246.30341101","3.22925209999","1249.68977785","3.22964596748","1252.91948986","2.77035403252","1255.72422695","1257.32278585","1257.39302993","1260.39601088","1","1260.41022205","1263.88085485",""
"sujeto_0065422","1","1","30","30","1264.02855992","inverse","4","1","2","El nombre de la moneda de Vietnam es:","Dinar","Dong","","0","0","1","competitive","right","1.31790399551","1265.34651089","3.68209600449","1269.18381286","2.71258592606","1271.89644599","3.28741407394","1275.21748304","1276.64821887","1276.71940994","1279.72236395","0","1279.73626685","1285.90427685",""
"sujeto_0065422","1","1","31","31","1286.03834105","direct","2","1","1","¿cuantos aleteos puede dar 
un colibrí por segundo?","120","50","","0","0","0","competitive","left","1.0290389061","1287.06743097","3.9709610939","1291.2114749","3.13686084747","1294.34837294","2.86313915253","1297.26232195","1298.99470997","1299.06336093","1302.06632185","0","1302.08122301","1306.29349303",""
"sujeto_0065422","1","1","32","32","1306.43278003","inverse","4","1","3","¿Qué altura promedio tienen
 los hombres uruguayos?","1.73 m","1.72 m","","1","1","1","competitive","right","1.23163199425","1307.6644609","3.76836800575","1311.60517192","2.95722198486","1314.562433","3.04277801514","1317.65583086","1318.91823483","1318.99053192","1321.99352002","1","1322.00765491","1326.48359489",""
"sujeto_0065422","1","2","1","33","1453.04857397","direct","1","1","1","¿En qué año nació 
el actor Bradd Pitt?","1967","1963","","1","1","1","competitive","left","1.4508099556","1454.49942899","3.5491900444","1458.19839597","2.6418671608","1460.84029889","3.3581328392","1464.22918987","1465.32421899","1465.39740586","1468.40033984","1","1468.41572499","1474.34022498","1326.49875498"
"sujeto_0065422","1","2","2","34","1474.46706796","inverse","2","1","1","¿Cual es el segundo 
monte más alto?","Kanchenjunga","K2","","1","1","1","competitive","right","0.838305950165","1475.30544305","4.16169404984","1479.62546396","2.66389799118","1482.28940201","3.33610200882","1485.67550397","1487.12791491","1487.21041703","1490.21341205","1","1490.22803092","1493.65793204",""
"sujeto_0065422","1","2","3","35","1493.79621887","direct","3","1","1","¿Cuándo finalizó la construcción
 del Palacio Legislativo?","1925","1917","","0","0","1","competitive","right","0.685148954391","1494.48147392","4.31485104561","1498.98550296","3.60679197311","1502.59233904","2.39320802689","1505.03646088","1506.67810297","1506.75346303","1509.75627995","0","1509.77162099","1515.46914291",""
"sujeto_0065422","1","2","4","36","1515.65633798","inverse","3","1","3","¿Cuántos integrantes tenía
 en su inicio  el cuarteto de nos?","3","4","","1","1","1","competitive","left","0.951012134552","1516.60739398","4.04898786545","1520.81303787","2.7682390213","1523.58133698","3.2317609787","1526.86383796","1527.996943","1528.06552005","1531.0682919","1","1531.08238101","1536.72824693",""
"sujeto_0065422","1","2","5","37","1536.88347602","direct","2","1","3","¿Qué valor tiene el número pi?","3.14","4.18","left","0","0","1","competitive","left","1.04045891762","1537.92402291","3.95954108238","1542.04076099","1.48552703857","1543.52635384","4.51447296143","1548.09030294","1549.54422092","1549.626194","1552.62913895","1","1552.64325094","1559.56421494",""
"sujeto_0065422","1","2","6","38","1559.72855496","inverse","2","1","2","¿Cuál es la esperanza de vida
 en Uruguay?","75","77","","1","1","0","competitive","right","0.770741939545","1560.49934006","4.22925806046","1564.88561583","2.74968600273","1567.63539505","3.25031399727","1570.93538904","1572.58824205","1572.67092991","1575.67392302","1","1575.68811893","1582.14827991",""
"sujeto_0065422","1","2","7","39","1582.29998684","direct","1","1","2","¿Cuantos pisos tiene la torre 
de las comunicaciones?","26","32","","1","1","0","competitive","right","0.831257104874","1583.13128686","4.16874289513","1587.48071504","3.10255098343","1590.58330393","2.89744901657","1593.53143883","1595.36017489","1595.43255997","1598.43553305","1","1598.45100904","1600.597188",""
"sujeto_0065422","1","2","8","40","1600.73589683","inverse","2","1","4","¿En qué país sudamericano 
no hay McDonalds?","Bolivia","Venezuela","","0","0","1","competitive","right","0.790441036224","1601.52640295","4.20955896378","1605.90644693","2.16281890869","1608.0693059","3.83718109131","1611.95689583","1613.26624489","1613.34316993","1616.34612703","0","1616.35988688","1622.71960688",""
"sujeto_0065422","1","2","9","41","1622.86173987","direct","3","1","1","¿En qué año empieza
 la Edad Media?","476","512","","1","1","1","competitive","left","0.93554186821","1623.79734492","4.06445813179","1628.01515484","3.29407405853","1631.309268","2.70592594147","1634.050421","1635.45413184","1635.53559303","1638.53625989","1","1638.55274105","1641.54124093",""
"sujeto_0065422","1","2","10","42","1641.671067","inverse","3","1","4","¿Hace cuántos años surgió
 el ser humano?","200mil","300mil","","0","0","0","competitive","left","1.14021396637","1642.81135488","3.85978603363","1646.82863092","2.93860912323","1649.76729703","3.06139087677","1652.87835193","1654.76441503","1654.84723687","1657.85019994","0","1657.86435986","1661.17483091",""
"sujeto_0065422","1","2","11","43","1661.31567001","direct","3","1","4","¿Cuántas cuadras tiene
 actualmente 18 de julio? ","36","33","","0","0","1","competitive","left","0.717688083649","1662.03349185","4.28231191635","1666.48841","2.86591219902","1669.35439086","3.13408780098","1672.53863883","1674.24090505","1674.32389092","1677.32686996","0","1677.340909","1682.06717086",""
"sujeto_0065422","1","2","12","44","1682.20828795","inverse","1","1","4","¿Qué juego de equipo se 
considera mas rápido?","Lacrosse","Badminton","","0","0","0","competitive","left","0.785965919495","1682.99431801","4.21403408051","1687.36252189","3.15665793419","1690.51921797","2.84334206581","1693.415241","1694.658324","1694.73308802","1697.7360549","0","1697.74988103","1705.74503994",""
"sujeto_0065422","1","2","13","45","1705.88492584","direct","1","1","3","¿Qué promedio de edad 
vive una jirafa? ","25","20","","0","0","1","competitive","right","0.881354093552","1706.76634693","4.11864590645","1711.06117702","2.70408415794","1713.76532102","3.29591584206","1717.11153793","1718.87305188","1718.94593287","1721.94892883","0","1721.96442103","1727.91628385",""
"sujeto_0065422","1","2","14","46","1728.04842997","inverse","1","1","2","¿Cuántos grandes lagos hay?","7","5","","0","0","1","competitive","left","0.936826944351","1728.98530293","4.06317305565","1733.20505404","2.66614294052","1735.87125683","3.33385705948","1739.23942685","1740.53158283","1740.60809088","1743.61108994","0","1743.62533903","1751.44671202",""
"sujeto_0065422","1","2","15","47","1751.57634592","direct","3","1","2","¿Cuántos discos de estudio
 grabó Johhny Cash? ","54","43","","1","1","0","competitive","right","1.001983881","1752.578439","3.998016119","1756.75159883","3.03262710571","1759.78429484","2.96737289429","1762.80112886","1764.07976794","1764.1534009","1767.15627289","1","1767.17076397","1773.82167602",""
"sujeto_0065422","1","2","16","48","1773.97248483","inverse","4","1","1","¿Cuántos barrios tiene
 Montevideo? ","71","62","","0","0","1","competitive","left","0.823777914047","1774.79630804","4.17622208595","1779.12921691","2.69702196121","1781.82628202","3.30297803879","1785.16241002","1786.16947603","1786.24785686","1789.25084305","0","1789.26480794","1794.72683096",""
"sujeto_0065422","1","2","17","49","1794.86642599","direct","3","1","3","¿Qué edad tiene Homero Simpson?","36","42","","0","0","1","competitive","right","0.782793998718","1795.64928389","4.21720600128","1800.03651905","2.28569412231","1802.32225394","3.71430587769","1806.08793092","1807.46394205","1807.54034901","1810.543329","0","1810.55747104","1814.94427896",""
"sujeto_0065422","1","2","18","50","1815.09267092","inverse","4","1","2","¿Cuántos países con monarquía 
hay en europa actualmente? ","6","10","","1","1","1","competitive","left","0.777503013611","1815.87024403","4.22249698639","1820.25033593","2.97386598587","1823.22424102","3.02613401413","1826.30139685","1827.73970199","1827.81885886","1830.82184601","1","1830.83594084","1836.99223185",""
"sujeto_0065422","1","2","19","51","1837.13824987","direct","2","1","3","¿Cuántos capítulos de
 Friends existen? ","236","228","","1","1","1","competitive","left","1.6440038681","1838.7823019","3.3559961319","1842.29545283","3.0647790432","1845.36027789","2.9352209568","1848.3461659","1849.65167904","1849.73027492","1852.73228192","1","1852.74878597","1855.12422585",""
"sujeto_0065422","1","2","20","52","1855.28323984","inverse","1","1","3","¿Cuántas óperas compuso Mozart? ","27","22","","1","1","1","competitive","right","1.55396795273","1856.83725286","3.44603204727","1860.43779087","2.04647707939","1862.48430991","3.95352292061","1866.47040606","1867.76250792","1867.8393259","1870.84028196","1","1870.85721397","1878.16868901",""
"sujeto_0065422","1","2","21","53","1878.30855489","direct","4","1","3","¿Cuántos mundiales de fútbol 
femenino ha realizado FIFA? ","9","7","","1","1","1","competitive","right","0.983717918396","1879.29232001","4.0162820816","1883.4804399","2.37769699097","1885.85819197","3.62230300903","1889.51532602","1890.75900984","1890.83411288","1893.83706999","1","1893.85134602","1899.95380592",""
"sujeto_0065422","1","2","22","54","1900.08522201","inverse","3","1","2","¿Cuál es la temperatura 
media anual en Montevideo? ","17.5","16.3","","0","0","1","competitive","right","0.704976081848","1900.790241","4.29502391815","1905.27784991","2.57432484627","1907.85224104","3.42567515373","1911.32761788","1913.26620984","1913.34628201","1916.34927392","0","1916.36364985","1922.93227005",""
"sujeto_0065422","1","2","23","55","1923.0821979","direct","2","1","2","¿En qué año se estrenó el
 videojuego The Sims? ","2000","2002","","0","0","0","competitive","left","0.716115951538","1923.79842687","4.28388404846","1928.27263594","2.86951398849","1931.14219093","3.13048601151","1934.32298088","1936.18498683","1936.25845194","1939.26142192","0","1939.27588797","1946.66953802",""
"sujeto_0065422","1","2","24","56","1946.79357886","inverse","2","1","1","¿Cuál es la canción con 
mas covers? ","Yesterday","Stand by me","","0","0","0","individual","left","0.606620073318","1947.40027094","4.39337992668","1951.96731591","3.8477628231","1955.81512189","2.1522371769","1958.01943803","1959.41797805","1959.47077799","1962.47228503","0","1962.48741698","1966.65822601",""
"sujeto_0065422","1","2","25","57","1966.80629683","direct","1","1","4","¿Cuánto duró la guerra
 de los 100 años?","116","123","","0","0","0","competitive","left","0.61689209938","1967.42323494","4.38310790062","1971.96059799","2.81560301781","1974.77624202","3.18439698219","1978.01196194","1979.492239","1979.56368995","1982.56666398","0","1982.58052087","1984.90025687",""
"sujeto_0065422","1","2","26","58","1985.04896498","inverse","4","1","4","¿Qué color tiene la  bandera de Brasil?","Amarillo","Naranja","left","0","0","1","individual","left","0.566172122955","1985.61519885","4.43382787704","1990.22136402","2.55076098442","1992.77218199","3.44923901558","1996.27106285","1997.83625197","1997.87276292","2000.87572694","1","2000.89113402","2003.923944",""
"sujeto_0065422","1","2","27","59","2004.07555389","direct","4","1","3","¿Qué carabela de 
Colon no volvió del viaje?","Santa María","La pinta","","0","0","1","competitive","left","0.765679836273","2004.84131598","4.23432016373","2009.26420999","2.70090103149","2011.96516991","3.29909896851","2015.31430888","2016.8053019","2016.88285303","2019.88586283","0","2019.89977288","2021.99921203",""
"sujeto_0065422","1","2","28","60","2022.1525209","inverse","4","1","4","¿Cuántos huesos tiene
 un adulto humano?","217","206","","0","0","1","competitive","right","0.880584001541","2023.03314805","4.11941599846","2027.30500889","1.54810786247","2028.85318184","4.45189213753","2033.355721","2034.62672806","2034.70869589","2037.71167183","0","2037.72560191","2045.56329489",""
"sujeto_0065422","1","2","29","61","2045.71077585","direct","1","1","1","¿Qué país africano fue 
fundado por esclavos?","Liberia","Chad","","0","0","0","competitive","left","1.23237299919","2046.94319487","3.76762700081","2050.86987996","2.37321686745","2053.24313402","3.62678313255","2056.91984296","2058.91146994","2058.98758388","2061.98825097","0","2062.005862","2069.99670291",""
"sujeto_0065422","1","2","30","62","2070.14031196","inverse","4","1","2","¿A cuánto asciende la cima
 del monte Everest?","7.990 mts","8.848 mts","","0","0","1","competitive","right","0.866806983948","2071.00722194","4.13319301605","2075.33191991","3.32416796684","2078.65615988","2.67583203316","2081.38232398","2082.56713104","2082.64972782","2085.65271997","0","2085.66719794","2092.85123706",""
"sujeto_0065422","1","2","31","63","2092.98505998","direct","4","1","1","¿Cuál es el país mas chico?","Sealand","Luxemburgo","","1","1","1","competitive","right","0.932052135468","2093.91717792","4.06794786453","2098.17609406","2.39197206497","2100.56812406","3.60802793503","2104.22693086","2106.09043193","2106.16154194","2109.16452503","1","2109.17999697","2112.30227399",""
"sujeto_0065422","1","2","32","64","2112.44847989","inverse","2","1","4","¿Cuántas pirámides hay en Egipto?","10000","11000","","1","1","1","competitive","left","1.43962001801","2113.88815904","3.56037998199","2117.58724093","2.01585483551","2119.60314083","3.98414516449","2123.63639593","2124.66996098","2124.73826289","2127.74123788","1","2127.75645494","2132.86554098",""
"sujeto_0065422","1","3","1","65","2245.66634893","direct","2","1","2","¿Cuál es el quinto país con 
mas extensión?","Canadá","Brasil","","1","1","0","competitive","right","1.06070280075","2246.72711492","3.93929719925","2250.80187893","3.11318898201","2253.91513395","2.88681101799","2256.83784604","2258.1711359","2258.25598383","2261.25894594","1","2261.2731719","2268.99956584","2132.88120103"
"sujeto_0065422","1","3","2","66","2269.15747404","inverse","1","1","2","¿Qué rasgo facial no tiene
 la Mona Lisa?","Cejas","Pómulos","","0","0","1","competitive","left","0.869626045227","2270.02716684","4.13037395477","2274.30038595","2.83272719383","2277.13317585","3.16727280617","2280.35055304","2282.10023403","2282.16884685","2285.17185187","0","2285.18625593","2291.457582",""
"sujeto_0065422","1","3","3","67","2291.60483289","direct","4","1","3","¿Cuál es el país con 
mayor población?","Esados Unidos","China","right","0","0","1","competitive","right","1.22525787354","2292.83015585","3.77474212646","2296.74559784","2.20846295357","2298.95410299","3.79153704643","2302.79592896","2304.44190884","2304.51424599","2307.51628399","1","2307.53179193","2310.89909387",""
"sujeto_0065422","1","3","4","68","2311.0336709","inverse","1","1","1","La palabra dinosaurio significa","Lagarto Terrible","Lagarto Dragón","","1","1","0","competitive","","0.996417045593","2312.03015685","4.00358295441","2316.18917799","6","2322.18931603","0","2322.20389986","2323.37418795","2323.45729995","2326.46024299","0","2326.47532892","2329.33623385",""
"sujeto_0065422","1","3","5","69","2329.47595787","direct","2","1","3","¿Qué es el membrillero?","Arbol","Arbusto","","0","0","0","competitive","left","0.977095842361","2330.45312691","4.02290415764","2334.63101697","2.13899803162","2336.77005386","3.86100196838","2340.68182802","2342.63589287","2342.71667385","2345.71966791","0","2345.73476887","2352.19880986",""
"sujeto_0065422","1","3","6","70","2352.33547091","inverse","3","1","3","¿Alrededor de qué planeta orbita 
el satélite Europa?","Jupiter","Saturno","","1","1","1","competitive","right","0.962523937225","2353.29806399","4.03747606277","2357.49252987","3.41144299507","2360.90401602","2.58855700493","2363.52662683","2365.07144594","2365.14521289","2368.14816999","1","2368.16205788","2370.36721396",""
"sujeto_0065422","1","3","7","71","2370.49819803","direct","3","1","1","¿Donde fue el mundial de 
fútbol de 1954?","Suiza","Suecia","","1","1","1","competitive","left","0.835801124573","2371.33404994","4.16419887543","2375.65293002","2.34522104263","2377.99822688","3.65477895737","2381.70299387","2382.955585","2383.03834486","2386.04133797","1","2386.05554104","2389.96730995",""
"sujeto_0065422","1","3","8","72","2390.10664892","inverse","1","1","4","¿Cuál de los 7 enanitos
no tenía barba?","Bashful","Mudito","","1","1","0","competitive","right","0.858337879181","2390.96503592","4.14166212082","2395.26049089","2.38754987717","2397.648103","3.61245012283","2401.31210589","2402.89226198","2402.96503592","2405.96801805","1","2405.98189688","2410.91097093",""
"sujeto_0065422","1","3","9","73","2411.0499599","direct","3","1","2","¿Cual red social es
mas utilizada mundialmente?","Instagram","Facebook","","1","1","0","competitive","right","0.847097873688","2411.89713287","4.15290212631","2416.20703793","3.19699001312","2419.40408683","2.80300998688","2422.25707483","2424.17445898","2424.24237204","2427.24533296","1","2427.25970984","2430.19223404",""
"sujeto_0065422","1","3","10","74","2430.34478402","inverse","4","1","1","¿Cuándo se inició la copa
 América de fútbol?","1916","1923","","1","1","1","competitive","right","1.02518510818","2431.37003493","3.97481489182","2435.49947906","2.83048391342","2438.33000588","3.16951608658","2441.55065703","2443.44810987","2443.535115","2446.5380969","1","2446.55338287","2449.20951605",""
"sujeto_0065422","1","3","11","75","2449.35445595","direct","3","1","4","¿Cuántos presidentes de EEUU
han muerto asesinados?","3","4","","0","0","1","competitive","left","0.879571914673","2450.23410296","4.12042808533","2454.50951385","1.98351788521","2456.49309182","4.01648211479","2460.55963087","2462.04355288","2462.11175799","2465.11473989","0","2465.12863684","2468.77273893",""
"sujeto_0065422","1","3","12","76","2468.91391397","inverse","2","1","4","¿Cuántas veces participó EEUU
 en la copa América?","4","5","","0","0","1","competitive","right","1.09012198448","2470.00410604","3.90987801552","2474.05289197","2.33112812042","2476.38407993","3.66887187958","2480.103163","2481.54720783","2481.62209582","2484.62507796","0","2484.63950896","2490.75671887",""
"sujeto_0065422","1","3","13","77","2490.90785098","direct","4","1","1","¿Cuál de estos países 
no formaba la URSS?","Azeribayán","Afganistán","","0","0","1","competitive","left","0.942192077637","2491.85011387","4.05780792236","2496.06384206","3.29615998268","2499.36006284","2.70384001732","2502.11504984","2503.428123","2503.49956894","2506.50026584","0","2506.51708984","2514.49922585",""
"sujeto_0065422","1","3","14","78","2514.63546205","inverse","1","1","1","¿En qué año se inauguró
 el teatro Solís?","1867","1856","","0","0","0","competitive","left","0.880525112152","2515.51603198","4.11947488785","2519.80966187","3.12028098106","2522.9299829","2.87971901894","2525.86079693","2526.91711402","2526.99593687","2529.99890995","0","2530.01183295","2536.65628886",""
"sujeto_0065422","1","3","15","79","2536.79725695","direct","1","1","4","¿A qué velocidad vuela 
el avión más rápido?","3529","3874","","0","0","0","competitive","left","0.915718793869","2537.71302199","4.08428120613","2541.95495391","3.62691688538","2545.58191204","2.37308311462","2547.98894","2549.74425888","2549.82310104","2552.826087","0","2552.84111786","2554.9514029",""
"sujeto_0065422","1","3","16","80","2555.09333301","inverse","3","1","4","¿De qué año es la primer 
película cinematográfica?","1897","1888","","0","0","0","competitive","right","0.66964507103","2555.76304197","4.33035492897","2560.24750304","3.46649003029","2563.71403599","2.53350996971","2566.29834604","2567.43133998","2567.51627183","2570.51925397","0","2570.53357291","2575.94339085",""
"sujeto_0065422","1","3","17","81","2576.10152483","direct","2","1","3","¿Cuántos países 
tiene nuestro planeta?","191","194","","1","1","1","competitive","right","0.84047293663","2576.94204497","4.15952706337","2581.25808883","2.87289595604","2584.13104606","3.12710404396","2587.30879903","2588.66602492","2588.74429083","2591.74726701","1","2591.76152992","2594.99980187",""
"sujeto_0065422","1","3","18","82","2595.12971497","inverse","2","1","2","¿Cuántos habitantes
 tiene Buenos Aires?","2.9000.000","3650000","","0","0","0","competitive","left","0.750191926956","2595.87995386","4.24980807304","2600.30111289","2.65483689308","2602.95599484","3.34516310692","2606.3519249","2607.74917698","2607.83714104","2610.84012699","0","2610.85429883","2616.68369102",""
"sujeto_0065422","1","3","19","83","2616.82276392","direct","2","1","1","¿Cuántos kilos forman una tonelada?","1000","1500","left","1","1","1","competitive","left","1.01022791862","2617.83309793","3.98977208138","2621.99219298","3.29271507263","2625.28495288","2.70728492737","2628.02830601","2629.91567397","2629.99676704","2632.99974799","1","2633.01414585","2638.97156501",""
"sujeto_0065422","1","3","20","84","2639.11563683","inverse","4","1","4","¿Cuántos estados tiene la 
República del Perú? ","24","23","","0","0","1","competitive","right","1.15230894089","2640.26801395","3.84769105911","2644.27506995","2.48586416245","2646.76099706","3.51413583755","2650.3240869","2651.34624505","2651.42604685","2654.42829394","0","2654.44364691","2659.38825703",""
"sujeto_0065422","1","3","21","85","2659.5283699","direct","3","1","3","¿En qué año nació Cristóbal Colón? ","1451","1447","","0","0","1","competitive","left","0.871623039246","2660.40006304","4.12837696075","2664.68440986","3.0384979248","2667.72294998","2.9615020752","2670.73568392","2672.58028603","2672.65352702","2675.65626788","0","2675.67079592","2679.89629197",""
"sujeto_0065422","1","3","22","86","2680.03874493","inverse","4","1","4","¿Cuánto mide la 
Montaña Aconcagua? ","6234","6962","","0","0","1","competitive","right","0.796132802963","2680.83494186","4.20386719704","2685.22870183","1.99724912643","2687.22601295","4.00275087357","2691.27854204","2692.56782699","2692.64692593","2695.64986491","0","2695.66476393","2702.84828401",""
"sujeto_0065422","1","3","23","87","2702.98288703","direct","2","1","4","¿Cuánto mide el punto
 más profundo del océano? ","12508","11003","","0","0","1","competitive","left","0.950025081635","2703.93297696","4.04997491837","2708.13877296","2.95207905769","2711.090909","3.04792094231","2714.19108105","2715.44259501","2715.52529287","2718.52828193","0","2718.54237604","2722.74864483",""
"sujeto_0065422","1","3","24","88","2722.87780404","inverse","1","1","3","¿Cuántos álbumes ha publicado 
el cantante Jaime Roos? ","41","34","","0","0","1","competitive","right","1.26611399651","2724.14396095","3.73388600349","2728.03437686","2.4245660305","2730.45900702","3.5754339695","2734.08394098","2735.57374597","2735.65271187","2738.65566683","0","2738.67004895","2744.86620593",""
"sujeto_0065422","1","3","25","89","2745.00472283","direct","4","1","3","¿En qué año nació el 
ex-presidente Jorge Battle? ","1921","1927","","1","1","1","competitive","left","1.19012904167","2746.19489694","3.80987095833","2750.17836905","2.34955906868","2752.52796984","3.65044093132","2756.22810483","2757.95878983","2758.02995896","2761.03293395","1","2761.04793","2764.53397489",""
"sujeto_0065422","1","3","26","90","2764.66575384","inverse","1","1","3","¿Cuántas presidencias 
constitucionales  hubo en Uruguay? ","41","42","","0","0","1","competitive","right","0.710129022598","2765.37592793","4.2898709774","2769.83833885","3.55650305748","2773.39489985","2.44349694252","2775.88965201","2777.09342003","2777.17416787","2780.17715788","0","2780.19120288","2785.97482085",""
"sujeto_0065422","1","3","27","91","2786.10903597","direct","1","1","2","¿Quién escribió mas sinfonías?","Mozart","Haydn","","1","1","0","competitive","left","1.31084799767","2787.41992903","3.68915200233","2791.28090882","1.61195111275","2792.89292002","4.38804888725","2797.31532598","2798.53226089","2798.60111785","2801.60409904","1","2801.61822104","2805.36963391",""
"sujeto_0065422","1","3","28","92","2805.51938295","inverse","4","1","2","¿En qué año nació Michael Jackson?","1958","1953","","1","1","1","competitive","left","1.06249594688","2806.58193588","3.93750405312","2810.67595792","2.46178793907","2813.13780689","3.53821206093","2816.70956802","2818.68773293","2818.76175404","2821.76472902","1","2821.77899003","2827.64130783",""
"sujeto_0065422","1","3","29","93","2827.78094792","direct","3","1","2","¿En qué año entró en vigencia 
la ley antitabaco en Uruguay?","2005","2006","","1","1","1","competitive","left","0.881364822388","2828.66236496","4.11863517761","2832.93710303","5.52675008774","2838.46391487","0.473249912262","2838.97329688","2840.56802988","2840.6401279","2843.64309502","1","2843.65725398","2848.988235",""
"sujeto_0065422","1","3","30","94","2849.12497592","inverse","3","1","1","¿Cuándo se subió el 
primer video a youtube?","2004","2005","","0","0","1","competitive","left","0.704066038132","2849.82920289","4.29593396187","2854.31577206","2.06806206703","2856.38387704","3.93193793297","2860.36480904","2861.67047596","2861.75102401","2864.7522769","0","2864.76838589","2872.52399302",""
"sujeto_0065422","1","3","31","95","2872.68594003","direct","2","1","1","¿Cuántos habitantes tiene India?","1200 millones","1300 millones","","0","0","0","competitive","left","1.01790499687","2873.70390892","3.98209500313","2877.84235382","2.56852388382","2880.41094089","3.43147611618","2883.893116","2885.86268401","2885.94508004","2888.94801998","0","2888.96306992","2895.00825596",""
"sujeto_0065422","1","3","32","96","2895.14771891","inverse","4","1","2","¿A qué edad murió Bob Marley?","36","37","","0","0","1","competitive","left","0.908097028732","2896.05587983","4.09190297127","2900.30565095","1.73419904709","2902.03990793","4.26580095291","2906.35578203","2908.25366592","2908.32380486","2911.32433987","0","2911.34173584","2914.44420099",""
"sujeto_0065422","1","4","1","97","3042.87589002","direct","2","1","1","¿Cuantos años dirigió la selección 
uruguaya Tabarez?","15 años","13 años","","0","0","0","competitive","left","1.11786913872","3043.99380898","3.88213086128","3048.0315299","1.95624184608","3049.9878149","4.04375815392","3054.08205891","3055.27321196","3055.35034084","3058.35331583","0","3058.36750698","3065.43953705","2914.45917487"
"sujeto_0065422","1","4","2","98","3065.60196805","inverse","4","1","1","¿Cuantas teclas tiene un teclado 
de computadora generalmente? ","Entre 99 y 108","Entre 109 y 113","","1","1","1","competitive","left","0.714844942093","3066.31685996","4.28515505791","3070.76003098","2.66973209381","3073.42983103","3.33026790619","3076.80987787","3077.81262088","3077.89502096","3080.89629483","1","3080.91277599","3083.28422093",""
"sujeto_0065422","1","4","3","99","3083.4640379","direct","1","1","1","¿Cuál Departamento tiene
 mayor superficie?","Río Negro","Soriano","","0","0","0","competitive","right","1.00679683685","3084.47088099","3.99320316315","3088.61893296","3.3908829689","3092.00985694","2.6091170311","3094.66987085","3096.38335085","3096.45416403","3099.45627785","0","3099.47164297","3103.79770803",""
"sujeto_0065422","1","4","4","100","3103.93989682","inverse","3","1","2","¿Cuál es el apellido de las 
hermanastras  de  cenicienta?","Tremaine","Truman","","0","0","1","competitive","left","1.74188613892","3105.68182683","3.25811386108","3109.09709191","2.6326880455","3111.72982192","3.3673119545","3115.14738393","3117.01691985","3117.09847498","3120.10025406","0","3120.11627102","3122.81223297",""
"sujeto_0065422","1","4","5","101","3122.95164585","direct","4","1","4","¿Cuál película ganó un
 Oscar a mejor película?","Alto Impacto","Cache","","0","0","1","competitive","left","1.17116594315","3124.12289691","3.82883405685","3128.11990905","2.22576904297","3130.34571195","3.77423095703","3134.154284","3135.27360392","3135.35587788","3138.35882187","0","3138.37304997","3140.63762593",""
"sujeto_0065422","1","4","6","102","3140.77541399","inverse","1","1","3","¿A cuántos centímetros
equivale la medida pié?","25","30","","0","0","1","competitive","left","0.952383995056","3141.72786593","4.04761600494","3145.9324019","2.56530189514","3148.49776196","3.43469810486","3151.98204088","3153.0220499","3153.10066986","3156.10360599","0","3156.11798692","3161.51894903",""
"sujeto_0065422","1","4","7","103","3161.65267682","direct","2","1","2","¿Qué departamento es mas grande?","Cerro Largo","Paysandú","","0","0","0","competitive","right","1.15806508064","3162.81080604","3.84193491936","3166.80964184","2.77113890648","3169.58083987","3.22886109352","3172.86002398","3174.45974493","3174.52842402","3177.53143883","0","3177.54533696","3181.65222692",""
"sujeto_0065422","1","4","8","104","3181.78018904","inverse","2","1","3","¿Quién pintó la Mona Lisa?","Picasso","Da Vinci","right","0","0","1","competitive","right","0.911587953568","3182.69184399","4.08841204643","3186.93309283","2.05961108208","3188.99274302","3.94038891792","3192.968328","3194.57417202","3194.65339184","3197.65638304","1","3197.67185593","3199.83417583",""
"sujeto_0065422","1","4","9","105","3199.98976898","direct","4","1","3","¿Cuántos litros hay en un galon?","3.54","3.78","","1","1","1","competitive","right","1.2539999485","3201.24387193","3.7460000515","3205.12911105","2.55464696884","3207.68379998","3.44535303116","3211.17946196","3212.69626188","3212.78152204","3215.78452897","1","3215.79897594","3221.58827186",""
"sujeto_0065422","1","4","10","106","3221.71711302","inverse","4","1","1","¿Cuántas teclas tiene
 un piano moderno?","80","88","","0","0","1","competitive","right","0.828667163849","3222.54584694","4.17133283615","3226.87308598","2.49563312531","3229.36877894","3.50436687469","3232.92343283","3233.93187404","3234.00892305","3237.01187301","0","3237.02581406","3243.82354188",""
"sujeto_0065422","1","4","11","107","3243.99411392","direct","4","1","3","¿Cuántos países hay en África?","54","62","","0","0","1","competitive","left","1.23453998566","3245.22871399","3.76546001434","3249.13538194","1.79325389862","3250.92869401","4.20674610138","3255.18511295","3256.87562585","3256.95322084","3259.9562149","0","3259.97110796","3267.7758739",""
"sujeto_0065422","1","4","12","108","3267.90583491","inverse","1","1","3","¿En qué siglo se crearon
 las primeras pistolas?","XV","XIII","","1","1","1","competitive","right","0.718894004822","3268.62479591","4.28110599518","3273.07741189","3.80230998993","3276.87979102","2.19769001007","3279.1304729","3281.07835984","3281.14835191","3284.15131092","1","3284.16532302","3287.39843392",""
"sujeto_0065422","1","4","13","109","3287.53366089","direct","3","1","4","¿En qué año se estrenó 
la serie friends?","1994","1995","","0","0","1","competitive","right","1.06603884697","3288.5997479","3.93396115303","3292.69087005","2.47786593437","3295.16880584","3.52213406563","3298.72472501","3300.60005999","3300.67633486","3303.67932701","0","3303.693609","3308.69965887",""
"sujeto_0065422","1","4","14","110","3308.84543705","inverse","3","1","4","¿En qué año nació Hitler?","1889","1887","","0","0","1","competitive","right","1.17834997177","3310.02385497","3.82165002823","3314.01912189","2.05661797523","3316.0758009","3.94338202477","3320.06899405","3321.18338084","3321.25427794","3324.257267","0","3324.27156687","3329.29851484",""
"sujeto_0065422","1","4","15","111","3329.422647","direct","1","1","4","¿Cuánto pesa un elefante Africano?","6000 kilos","5400 kilos","","0","0","0","competitive","right","1.26204395294","3330.68473601","3.73795604706","3334.57890987","2.13082003593","3336.70977092","3.86917996407","3340.62849784","3341.98442483","3342.06456685","3345.06754088","0","3345.08146691","3351.78850889",""
"sujeto_0065422","1","4","16","112","3351.96670604","inverse","1","1","2","¿Qué porcentaje de 
la población es zurda?","10%","7%","","1","1","0","competitive","right","0.806412935257","3352.77319002","4.19358706474","3357.10715389","1.96654295921","3359.07373595","4.03345704079","3363.15655494","3364.39963698","3364.47643304","3367.47944093","1","3367.49366784","3373.47343683",""
"sujeto_0065422","1","4","17","113","3373.61171293","direct","1","1","2","¿En qué año se estrenó
Volver al futuro?","1984","1985","","0","0","1","competitive","left","0.692682027817","3374.30451083","4.30731797218","3378.76755786","3.13212990761","3381.89972901","2.86787009239","3384.81889796","3386.38068295","3386.45350385","3389.45629287","0","3389.47072291","3396.56217504",""
"sujeto_0065422","1","4","18","114","3396.70615792","inverse","3","1","2","¿Cuántos jugadores hay en un 
equipo de baseball?","9","8","","1","1","0","competitive","left","1.00758099556","3397.71380591","3.99241900444","3401.86361694","2.37203383446","3404.23569298","3.62796616554","3407.91384792","3409.52813697","3409.59827495","3412.60124683","1","3412.61676598","3417.59400487",""
"sujeto_0065422","1","4","19","115","3417.73421693","direct","2","1","1","¿Cuántos Oscar ganó
 la película titanic?","13","11","","1","1","1","competitive","right","1.02242398262","3418.75671196","3.97757601738","3422.89098406","2.17573595047","3425.06678295","3.82426404953","3428.94072795","3430.24279499","3430.3257699","3433.32824492","1","3433.34337187","3437.944278",""
"sujeto_0065422","1","4","20","116","3438.09474802","inverse","4","1","4","¿En qué año comenzó
la segunda guerra mundial?","1939","1976","left","0","0","1","competitive","left","0.79293012619","3438.88775301","4.20706987381","3443.24848604","2.15108990669","3445.39962983","3.84891009331","3449.29971695","3451.0995779","3451.18620491","3454.18916202","1","3454.20334983","3458.19046998",""
"sujeto_0065422","1","4","21","117","3458.32139492","direct","2","1","4","¿Cuántos biomas hay en Uruguay?","5","4","","0","0","1","competitive","left","1.06033682823","3459.38183784","3.93966317177","3463.47870088","2.85195088387","3466.33071303","3.14804911613","3469.52852488","3471.32586288","3471.41405797","3474.41704082","0","3474.43149805","3480.68027687",""
"sujeto_0065422","1","4","22","118","3480.81562185","inverse","2","1","3","¿Cuándo murió Pablo Escobar?","1993","1997","","1","1","1","competitive","right","0.849037885666","3481.66471004","4.15096211433","3485.97305584","2.13158392906","3488.1046989","3.86841607094","3492.00677395","3493.7895999","3493.85815287","3496.86113","1","3496.87676191","3502.58042002",""
"sujeto_0065422","1","4","23","119","3502.71121383","direct","1","1","4","¿Qué serie ha ganado mas premios?","Friends","Murphy Brown","","1","1","0","competitive","left","0.81242609024","3503.52370405","4.18757390976","3507.86817384","2.0304980278","3509.89874697","3.9695019722","3513.91745305","3515.26986289","3515.35273385","3518.355721","1","3518.37091088","3523.93247986",""
"sujeto_0065422","1","4","24","120","3524.07206893","inverse","4","1","2","¿Cuántas fichas tiene el dominó?","26","28","","1","1","1","competitive","right","0.709620952606","3524.78179884","4.29037904739","3529.24265099","1.95893621445","3531.20162797","4.04106378555","3535.29409194","3536.34942198","3536.42973685","3539.43272495","1","3539.44669104","3544.68975687",""
"sujeto_0065422","1","4","25","121","3544.83212399","direct","2","1","4","¿Cuántos son los dientes de leche?","20","25","","0","0","1","competitive","left","0.990517139435","3545.82271004","4.00948286057","3550.00643492","1.98720788956","3551.9937129","4.01279211044","3556.05607295","3557.76642585","3557.84143496","3560.84429789","0","3560.859514","3563.0052309",""
"sujeto_0065422","1","4","26","122","3563.14357495","inverse","3","1","3","¿Cuántos gramos son una onza?","22","28","","0","0","1","competitive","right","0.680094003677","3563.82374787","4.31990599632","3568.29856086","1.69607591629","3569.99468303","4.30392408371","3574.33146191","3576.32633805","3576.40129089","3579.404284","0","3579.41848183","3585.70874596",""
"sujeto_0065422","1","4","27","123","3585.85318995","direct","3","1","1","¿Cuándo salió el primer album
 de los Beatles?","1963","1962","","1","1","1","competitive","left","0.659468889236","3586.51272798","4.34053111076","3591.01076102","1.8737821579","3592.88460493","4.1262178421","3597.06058884","3598.22423506","3598.31267786","3601.31566286","1","3601.329705","3605.10173988",""
"sujeto_0065422","1","4","28","124","3605.23137999","inverse","3","1","3","¿Quién fundó la empresa apple?","Carlos Slim","Steve Jobs","","1","1","1","competitive","right","0.734219074249","3605.96564293","4.26578092575","3610.38698983","2.21972298622","3612.60675693","3.78027701378","3616.43723297","3617.55187488","3617.62304592","3620.62603784","1","3620.64002299","3626.93783402",""
"sujeto_0065422","1","4","29","125","3627.07495403","direct","4","1","2","¿Cuántos municipios hay
 en Montevideo?","8","7","","1","1","1","competitive","left","1.2086379528","3628.28363705","3.7913620472","3632.23136997","1.91727018356","3634.14868093","4.08272981644","3638.28197289","3640.19670796","3640.26702905","3643.27001405","1","3643.28434992","3645.36546993",""
"sujeto_0065422","1","4","30","126","3645.51980901","inverse","1","1","1","¿Cuántos kilómetros hay
 de Montevideo a Artigas?","632","599","","0","0","0","competitive","left","0.714807987213","3646.23466897","4.28519201279","3650.674757","3.32980918884","3654.00460887","2.67019081116","3656.72525501","3658.20838094","3658.27624488","3661.27923584","0","3661.29319692","3667.34530783",""
"sujeto_0065422","1","4","31","127","3667.49559498","direct","2","1","2","¿En qué año nació 
Leonardo Da Vinci?","1452","1511","","1","1","0","competitive","right","0.739998102188","3668.23566699","4.26000189781","3672.65256","2.5689470768","3675.22154403","3.4310529232","3678.7023809","3680.55596495","3680.63806295","3683.64029598","1","3683.6553669","3686.80030298",""
"sujeto_0065422","1","4","32","128","3686.94088292","inverse","3","1","1","¿A qué continente
 pertenece el país Gabón?","Africa","Oceanía","","0","0","1","competitive","right","0.653954982758","3687.59488297","4.34604501724","3692.11268997","2.8918762207","3695.00462794","3.1081237793","3698.16269994","3699.97436786","3700.04766083","3703.05064082","0","3703.06588602","3708.30378985",""
