"code","nro_aplicante","nro_bloque","nro_trial_bloque","nro_trial_global","show_game_type","choice_order","rival","pay_individual","pay_competitive","question","answer_left_text","answer_right_text","correct_answer","outcome_individual","outcome_competitive","outcome_rival","game_type","answer","social_time","rt_game_type","feedback_delay","show_question","answer_time","rt_answer_global","feedback_delay_2","show_jitter","jitter_time","show_outcome","outcome_time","outcome_participant_real","show_final_jitter","second_jitter_time","inicio_descanso"
"sujeto_0030383","1","1","1","1","23.8580570221","direct","3","1","4","¿Cuántos centímetros corresponden
al talle 36 del calzado?","23","24",,"0","0","1","competitive","right","2.29802298546","26.1561501026","2.70197701454","29.0279009342","5.34317493439","34.3711409569","0.656825065613","35.0649120808","36.0931720734","36.1644990444","39.1674771309","0","39.1813659668","41.3438870907",
"sujeto_0030383","1","1","2","2","41.481441021","inverse","3","1","2","¿Cuántas metros mide la Intendencia
Municipal de Montevideo? ","84","78",,"0","0","1","competitive",,"3.64561200142","45.1270971298","1.35438799858","46.6388399601","6","52.6389839649","0","52.6569390297","54.534954071","54.6063640118","57.609347105","0","57.6240940094","59.7168650627",
"sujeto_0030383","1","1","3","3","59.8593099117","direct","1","1","3","¿Cuántas La Pasiva
 hay en uruguay?","15","11",,"1","1","1","competitive","right","1.67472887039","61.534101963","3.32527112961","64.9976649284","2.77038908005","67.7680799961","3.22961091995","71.0480630398","72.6597750187","72.7322781086","75.7333791256","1","75.7506110668","80.0253751278",
"sujeto_0030383","1","1","4","4","80.2001180649","inverse","3","1","3","¿De que color es la camiseta de uruguay?","blanca","celeste","right","1","1","1","competitive","right","2.09297609329","82.2931630611","2.90702390671","85.3415629864","2.16951704025","87.5111470222","3.83048295975","91.3918640614","92.596599102","92.6772871017","95.6802520752","1","95.6941950321","99.1481070518",
"sujeto_0030383","1","1","5","5","99.2959849834","direct","2","1","1","¿Cuánto metros mide
la torre Eiffel?","333","324",,"1","1","1","competitive","right","1.79416394234","101.090223074","3.20583605766","104.467721939","2.88639497757","107.354181051","3.11360502243","110.517462969","112.038866043","112.118684053","115.12165308","1","115.136523008","122.173227072",
"sujeto_0030383","1","1","6","6","122.309377909","inverse","3","1","4","¿Cuantas ciudades existen
 en todo el uruguay?","63","72",,"0","0","1","competitive","left","1.49460196495","123.804039955","3.50539803505","127.463328123","3.83065104485","131.294034958","2.16934895515","133.514195919","134.568956137","134.648947001","137.651897907","0","137.665590048","145.292133093",
"sujeto_0030383","1","1","7","7","145.454024076","direct","1","1","1","¿Cuantos estados tiene África?","52","54",,"1","1","0","competitive","right","1.68704009056","147.141107082","3.31295990944","150.591907024","3.47110199928","154.063066006","2.52889800072","156.64279294","158.506854057","158.576678991","161.579658985","1","161.594733953","167.353384972",
"sujeto_0030383","1","1","8","8","167.497107983","inverse","4","1","4","¿En qué año nació
 Stephen Hawking?","1952","1942",,"0","0","1","competitive","left","1.50594091415","169.003091097","3.49405908585","172.653146029","2.88992714882","175.543132067","3.11007285118","178.702912092","180.147207022","180.221784115","183.224761963","0","183.238889933","189.338237047",
"sujeto_0030383","1","1","9","9","189.491034985","direct","2","1","3","¿Cuánto años tenía Artigas
 cuando se fue a Paraguay?","56","57",,"1","1","1","competitive","left","1.92807388306","191.419157028","3.07192611694","194.647872925","4.45415997505","199.102072001","1.54584002495","200.699129105","202.24864006","202.316226006","205.317387104","1","205.333527088","211.37738204",
"sujeto_0030383","1","1","10","10","211.503329039","inverse","1","1","2","¿Cuantos milímetros 
mide una hoja A2?","420x592","420x594",,"0","0","1","competitive","right","1.55276584625","213.056141138","3.44723415375","216.642440081","4.86756515503","221.510044098","1.13243484497","222.692788124","224.261168957","224.343230009","227.345394135","0","227.360398054","234.433406115",
"sujeto_0030383","1","1","11","11","234.599159002","direct","3","1","3","¿Cuál es la menor temperatura 
registrada en Uruguay?","-5.4","-7.4",,"0","0","1","competitive","right","2.06288981438","236.662115097","2.93711018562","239.765401125","4.57862210274","244.344089031","1.42137789726","245.805604935","247.48764801","247.556725979","250.55971694","0","250.573919058","254.30717206",
"sujeto_0030383","1","1","12","12","254.442241907","inverse","2","1","2","¿Cuantos años hace que 
se fundó facebook?","18","17",,"0","0","0","competitive","left","1.97789406776","256.420243979","3.02210593224","259.613210917","3.84190392494","263.455157995","2.15809607506","265.665307045","267.038007021","267.116661072","270.117398977","0","270.133678913","272.908314943",
"sujeto_0030383","1","1","13","13","273.068682909","direct","1","1","4","¿Cuál animal es más
 pesado en promedio?","Rinoceronte","Hipopotamo",,"0","0","0","competitive","left","1.99236106873","275.061109066","3.00763893127","278.273869991","3.29713892937","281.571048021","2.70286107063","284.30865407","285.387916088","285.459564924","288.461377144","0","288.476241112","292.317203045",
"sujeto_0030383","1","1","14","14","292.44501996","inverse","1","1","2","¿Qué personaje de dragon ball 
murió más veces?","Chaoz","Krillin",,"1","1","0","competitive","right","2.03208184242","294.477144957","2.96791815758","297.599836111","4.40626811981","302.006144047","1.59373188019","303.651865005","305.10940814","305.186681032","308.189659119","1","308.203704119","315.976639032",
"sujeto_0030383","1","1","15","15","316.107113123","direct","3","1","2","La universidad de oxford. 
existe desde:","1096","1249",,"1","1","0","competitive","right","2.08800506592","318.195223093","2.91199493408","321.280084133","5.18900704384","326.46915102","0.810992956161","327.330788136","328.379599094","328.447040081","331.449410915","1","331.464600086","338.155451059",
"sujeto_0030383","1","1","16","16","338.288101912","inverse","3","1","1","¿Qué escritor latino ganó antes
 el premio nobel?"," García Marquez","Neruda",,"0","0","1","competitive","left","1.85899400711","340.147141933","3.14100599289","343.458172083","3.44488406181","346.903113127","2.55511593819","349.508805037","351.248836994","351.32622695","354.329155922","0","354.343384981","357.80390501",
"sujeto_0030383","1","1","17","17","357.963804007","direct","4","1","3","¿Cuántos dientes tiene un
 tiburón blanco?","6000","3000",,"0","0","1","competitive","right","1.47427296638","359.438120127","3.52572703362","363.101047039","3.81500482559","366.916110039","2.18499517441","369.152380943","370.191335917","370.270044088","373.272969961","0","373.286775112","378.096441031",
"sujeto_0030383","1","1","18","18","378.257352114","inverse","4","1","1","¿Cuánto mide el paralelo Ecuador?","40.000km","70.000km",,"0","0","1","competitive","right","1.54276108742","379.800174952","3.45723891258","383.412111044","3.35597085953","386.768141031","2.64402914047","389.462009907","391.418139935","391.496666908","394.499653101","0","394.514542103","398.117087126",
"sujeto_0030383","1","1","19","19","398.249571085","direct","4","1","2","¿Cuál fue el primer libro 
de Stephen King?","Carrie","The Stand",,"1","1","1","competitive",,"2.29750299454","400.547116995","2.70249700546","403.421785116","6","409.421915054","0","409.439850092","411.183953047","411.257731915","414.260710001","0","414.274860144","418.745408058",
"sujeto_0030383","1","1","20","20","418.87688899","inverse","2","1","3","¿Qué civilización practicaba
 la momificación?","Grecia","Egipto","right","0","0","1","competitive","right","3.5452477932","422.422200918","1.4547522068","424.032393932","3.06870698929","427.101140976","2.93129301071","430.083038092","432.022306919","432.101639986","435.10462904","1","435.118433952","439.347187996",
"sujeto_0030383","1","1","21","21","439.48913312","direct","4","1","4","¿Cuántos millones de visitas
 recibe google por minuto?","3.0","4.5",,"0","0","1","competitive","right","2.17893314362","441.668118954","2.82106685638","444.658507109","4.61762499809","449.276194096","1.38237500191","450.709095001","452.223948002","452.309703112","455.31269598","0","455.32682991","462.449402094",
"sujeto_0030383","1","1","22","22","462.579031944","inverse","1","1","3","La máquina de fax. se inventó en:","1843","1960",,"0","0","1","competitive","left","1.83804798126","464.417149067","3.16195201874","467.738726139","3.54727101326","471.286031008","2.45272898674","473.772505045","475.014586926","475.090296984","478.093258142","0","478.107366085","481.343662977",
"sujeto_0030383","1","1","23","23","481.493659973","direct","2","1","4","En la verdadera historia de los
 300 espartanos. habían:","300 soldados","4300 soldados",,"1","1","1","competitive","right","1.58946299553","483.083199024","3.41053700447","486.648025036","5.07907986641","491.727164984","0.920920133591","492.699774027","493.960963011","494.03254199","497.035516024","1","497.050693035","500.849406004",
"sujeto_0030383","1","1","24","24","501.020303965","inverse","1","1","4","¿Cuántos milímetros crece
 el pelo por día?","0.4","0.04",,"0","0","0","competitive","left","1.57376384735","502.594130993","3.42623615265","506.158318043","5.41470098495","511.573060036","0.585299015045","512.209592104","513.969407082","514.043175936","517.046149015","0","517.061038971","523.793373108",
"sujeto_0030383","1","1","25","25","523.932692051","direct","4","1","1","¿Cuánto mide la baldosa gris 
clásica de Montevideo?","22x22 cm.","20x20 cm.",,"1","1","1","competitive","left","2.53037810326","526.463132143","2.46962189674","529.102890015","4.05517482758","533.158103943","1.94482517242","535.154690027","537.149931908","537.222036123","540.224980116","1","540.239896059","545.782704115",
"sujeto_0030383","1","1","26","26","545.90822196","inverse","2","1","2","¿Cuántas películas de rápidos
 y furiosos hay?","10","11",,"1","1","0","competitive","left","1.06488108635","546.973170042","3.93511891365","551.064378977","2.53172779083","553.596167088","3.46827220917","557.114490986","558.47251296","558.549154043","561.552150011","1","561.566189051","563.600902081",
"sujeto_0030383","1","1","27","27","563.734509945","direct","3","1","1","¿Cuántos masters 1000
 ganó Del Potro?","1","2",,"1","1","1","competitive","right","1.63558697701","565.370144129","3.36441302299","568.873862982","3.40121889114","572.275124073","2.59878110886","574.923631907","576.678241014","576.759171963","579.76147604","1","579.776056051","587.16940093",
"sujeto_0030383","1","1","28","28","587.310991049","inverse","2","1","4","¿Cuántos meses dura el 
embarazo de una leona?","3 meses","4 meses",,"0","0","1","competitive","left","1.77209591866","589.083148956","3.22790408134","592.452852011","3.04724502563","595.500141144","2.95275497437","598.502533913","599.613623142","599.688302994","602.691287041","0","602.705202103","609.427685022",
"sujeto_0030383","1","1","29","29","609.556539059","direct","1","1","1","¿En qué año fue creado
 el sandwich?","1762","1653",,"1","1","0","competitive","left","2.00056910515","611.55717206","2.99943089485","614.729012012","3.30707788467","618.036149979","2.69292211533","620.781036139","622.379580021","622.449420929","625.452415943","1","625.466202974","628.936856985",
"sujeto_0030383","1","1","30","30","629.086841106","inverse","4","1","2","El nombre de la moneda de Vietnam es:","Dinar","Dong",,"0","0","1","competitive","left","0.48228597641","629.569172144","4.51771402359","634.256463051","5.25067615509","639.507197142","0.74932384491","640.30876708","641.740761042","641.825103045","644.828063011","0","644.843120098","651.011547089",
"sujeto_0030383","1","1","31","31","651.144231081","direct","2","1","1","¿cuantos aleteos puede dar 
un colibrí por segundo?","120","50",,"0","0","0","competitive","left","1.95889902115","653.103178978","3.04110097885","656.302454948","4.22764992714","660.53016901","1.77235007286","662.336201906","664.068594933","664.154073","667.157048941","0","667.171225071","671.381405115",
"sujeto_0030383","1","1","32","32","671.524470091","inverse","4","1","3","¿Qué altura promedio tienen
 los hombres uruguayos?","1.73 m","1.72 m",,"1","1","1","competitive","left","2.24865698814","673.773230076","2.75134301186","676.710225105","3.6858921051","680.396162033","2.3141078949","682.763765097","684.026161909","684.097686052","687.10068512","1","687.114547968","691.590491056",
"sujeto_0030383","1","2","1","33","903.924587011","direct","1","1","1","¿En qué año nació 
el actor Bradd Pitt?","1967","1963",,"1","1","1","individual","left","1.3115439415","905.236176968","3.6884560585","909.0654881","3.59963202477","912.665179968","2.40036797523","915.116073132","916.21194911","916.25089407","919.253885031","1","919.266819","925.194411993","691.605639935"
"sujeto_0030383","1","2","2","34","925.318795919","inverse","2","1","1","¿Cual es el segundo 
monte más alto?","Kanchenjunga","K2",,"1","1","1","competitive","left","2.58734202385","927.906188965","2.41265797615","930.491287947","3.01684904099","933.508197069","2.98315095901","936.527130127","937.979516983","938.061676979","941.064664125","1","941.079594135","944.509474993",
"sujeto_0030383","1","2","3","35","944.648397923","direct","3","1","1","¿Cuándo finalizó la construcción
 del Palacio Legislativo?","1925","1917",,"0","0","1","competitive","left","1.04280185699","945.69126606","3.95719814301","949.799644947","2.73751497269","952.537225008","3.26248502731","955.85129714","957.492938995","957.569916964","960.57290411","0","960.587042093","966.284601927",
"sujeto_0030383","1","2","4","36","966.422595024","inverse","3","1","3","¿Cuántos integrantes tenía
 en su inicio  el cuarteto de nos?","3","4",,"1","1","1","competitive","left","3.87055206299","970.293190956","1.12944793701","971.581473112","4.70359897614","976.285128117","1.29640102386","977.632683039","978.765754938","978.849900007","981.852901936","1","981.867052078","987.51689291",
"sujeto_0030383","1","2","5","37","987.654133081","direct","2","1","3","¿Qué valor tiene el número pi?","3.14","4.18","left","0","0","1","competitive","left","3.37001299858","991.024218082","1.62998700142","992.807773113","2.68434596062","995.492187023","3.31565403938","998.859163046","1000.31336904","1000.39381814","1003.39678597","1","1003.41097212","1010.33195114",
"sujeto_0030383","1","2","6","38","1010.46278811","inverse","2","1","2","¿Cuál es la esperanza de vida
 en Uruguay?","75","77",,"1","1","0","competitive","left","2.40535402298","1012.86819005","2.59464597702","1015.61997914","3.56411194801","1019.18412995","2.43588805199","1021.65427399","1023.30807209","1023.38945198","1026.39241314","1","1026.40628314","1032.86930895",
"sujeto_0030383","1","2","7","39","1033.01139903","direct","1","1","2","¿Cuantos pisos tiene la torre 
de las comunicaciones?","26","32",,"1","1","0","individual","left","3.59571003914","1036.60718012","1.40428996086","1038.16147995","3.19860696793","1041.36014199","2.80139303207","1044.19943213","1046.02821803","1046.06768298","1049.0706501","1","1049.085078","1051.23129106",
"sujeto_0030383","1","2","8","40","1051.38588595","inverse","2","1","4","¿En qué país sudamericano 
no hay McDonalds?","Bolivia","Venezuela",,"0","0","1","competitive","left","1.17328906059","1052.55921912","3.82671093941","1056.54186511","2.71224212646","1059.25414491","3.28775787354","1062.59099698","1063.90032911","1063.97698402","1066.97997713","0","1066.99304509","1073.35275912",
"sujeto_0030383","1","2","9","41","1073.49813104","direct","3","1","1","¿En qué año empieza
 la Edad Media?","476","512",,"1","1","1","competitive","right","1.2560198307","1074.75422096","3.7439801693","1078.63590813","4.01222014427","1082.64819193","1.98777985573","1084.67053914","1086.07340312","1086.15391803","1089.15690899","1","1089.17152095","1092.16002512",
"sujeto_0030383","1","2","10","42","1092.31145191","inverse","3","1","4","¿Hace cuántos años surgió
 el ser humano?","200mil","300mil",,"0","0","0","competitive","right","0.907748937607","1093.2192421","4.09225106239","1097.462466","3.97764086723","1101.4401691","2.02235913277","1103.49637604","1105.38237214","1105.46473694","1108.46773005","0","1108.48115802","1111.78936005",
"sujeto_0030383","1","2","11","43","1111.93453097","direct","3","1","4","¿Cuántas cuadras tiene
 actualmente 18 de julio? ","36","33",,"0","0","1","competitive","right","2.52462387085","1114.45920801","2.47537612915","1117.08785105","3.84428787231","1120.93219995","2.15571212769","1123.12366199","1124.82593298","1124.90738797","1127.91037202","0","1127.92549205","1132.65178299",
"sujeto_0030383","1","2","12","44","1132.82946491","inverse","1","1","4","¿Qué juego de equipo se 
considera mas rápido?","Lacrosse","Badminton",,"0","0","0","individual","right","3.21871495247","1136.04824209","1.78128504753","1137.98249912","3.00066399574","1140.98322892","2.99933600426","1144.03355002","1145.27665591","1145.31876612","1148.32172799","0","1148.33587313","1156.331007",
"sujeto_0030383","1","2","13","45","1156.47053003","direct","1","1","3","¿Qué promedio de edad 
vive una jirafa? ","25","20",,"0","0","1","individual","right","3.4996008873","1159.97019601","1.5003991127","1161.62876606","4.8363070488","1166.46511292","1.1636929512","1167.67965508","1169.441154","1169.4809041","1172.48389697","0","1172.49832797","1178.45401001",
"sujeto_0030383","1","2","14","46","1178.616328","inverse","1","1","2","¿Cuántos grandes lagos hay?","7","5",,"0","0","1","individual","right","1.32783889771","1179.94423413","3.67216110229","1183.77322102","4.44896507263","1188.22222304","1.55103492737","1189.80794406","1191.10006595","1191.14130497","1194.14428091","0","1194.15918803","1201.98056698",
"sujeto_0030383","1","2","15","47","1202.13128495","direct","3","1","2","¿Cuántos discos de estudio
 grabó Johhny Cash? ","54","43",,"1","1","0","competitive","right","0.901930093765","1203.03328013","4.09806990623","1207.29976106","4.3313229084","1211.63112307","1.6686770916","1213.33538413","1214.61340404","1214.68573713","1217.68872094","1","1217.70293403","1224.35385394",
"sujeto_0030383","1","2","16","48","1224.49128604","inverse","4","1","1","¿Cuántos barrios tiene
 Montevideo? ","71","62",,"0","0","1","competitive","right","4.16889500618","1228.66024303","0.83110499382","1229.64716601","5.12996315956","1234.77718711","0.870036840439","1235.69679809","1236.70387506","1236.78000593","1239.78297997","0","1239.79723501","1245.25927305",
"sujeto_0030383","1","2","17","49","1245.40056109","direct","3","1","3","¿Qué edad tiene Homero Simpson?","36","42",,"0","0","1","competitive","right","1.86658096313","1247.26718807","3.13341903687","1250.57452011","4.80558991432","1255.38017392","1.19441008568","1256.62604094","1258.00144291","1258.07650399","1261.07739711","0","1261.09367299","1265.48243093",
"sujeto_0030383","1","2","18","50","1265.64474392","inverse","4","1","2","¿Cuántos países con monarquía 
hay en europa actualmente? ","6","10",,"1","1","1","competitive","left","1.49343204498","1267.13821793","3.50656795502","1270.80142593","2.63977694511","1273.44124198","3.36022305489","1276.85210109","1278.29036212","1278.36961198","1281.37259603","1","1281.387532","1287.54430604",
"sujeto_0030383","1","2","19","51","1287.68854904","direct","2","1","3","¿Cuántos capítulos de
 Friends existen? ","236","228",,"1","1","1","competitive","right","1.80764293671","1289.49625397","3.19235706329","1292.84678411","4.3753490448","1297.2221911","1.6246509552","1298.87848592","1300.18400812","1300.26266193","1303.26565313","1","1303.27982211","1305.65545297",
"sujeto_0030383","1","2","20","52","1305.79807711","inverse","1","1","3","¿Cuántas óperas compuso Mozart? ","27","22",,"1","1","1","competitive","right","1.87409114838","1307.67225599","3.12590885162","1310.95584202","4.32032299042","1315.276232","1.67967700958","1317.00631404","1318.29847002","1318.37372804","1321.37670994","1","1321.39101195","1328.70247293",
"sujeto_0030383","1","2","21","53","1328.84260106","direct","4","1","3","¿Cuántos mundiales de fútbol 
femenino ha realizado FIFA? ","9","7",,"1","1","1","competitive","right","1.98061704636","1330.82330513","3.01938295364","1334.00040007","3.56672406197","1337.56716704","2.43327593803","1340.05117607","1341.29488707","1341.36986399","1344.3728621","1","1344.38638997","1350.48539901",
"sujeto_0030383","1","2","22","54","1350.62171197","inverse","3","1","2","¿Cuál es la temperatura 
media anual en Montevideo? ","17.5","16.3",,"0","0","1","competitive","right","1.3454349041","1351.96719003","3.6545650959","1355.77800703","4.28315591812","1360.06123114","1.71684408188","1361.82904005","1363.76764107","1363.84639311","1366.84934902","0","1366.86421204","1373.43340492",
"sujeto_0030383","1","2","23","55","1373.60244799","direct","2","1","2","¿En qué año se estrenó el
 videojuego The Sims? ","2000","2002",,"0","0","0","competitive","left","1.14468288422","1374.74720097","3.85531711578","1378.75373912","3.77543497086","1382.52923512","2.22456502914","1384.78922606","1386.65127802","1386.72412705","1389.72707796","0","1389.7410531","1397.13471293",
"sujeto_0030383","1","2","24","56","1397.28100705","inverse","2","1","1","¿Cuál es la canción con 
mas covers? ","Yesterday","Stand by me",,"0","0","0","competitive","left","2.6211810112","1399.90225697","2.3788189888","1402.45412803","3.56807494164","1406.02227211","2.43192505836","1408.50200891","1409.90054512","1409.97067094","1412.97365713","0","1412.98782492","1417.15866804",
"sujeto_0030383","1","2","25","57","1417.30821013","direct","1","1","4","¿Cuánto duró la guerra
 de los 100 años?","116","123",,"0","0","0","competitive","left","1.64091205597","1418.94916511","3.35908794403","1422.46320391","3.36600112915","1425.82924604","2.63399887085","1428.51311803","1429.99397492","1430.08159113","1433.084553","0","1433.09864497","1435.41842794",
"sujeto_0030383","1","2","26","58","1435.55001593","inverse","4","1","4","¿Qué color tiene la  bandera de Brasil?","Amarillo","Naranja","left","0","0","1","competitive","left","1.24412107468","1436.79420805","3.75587892532","1440.70606899","4.01105999947","1444.71719503","1.98894000053","1446.75677705","1448.32330513","1448.40764093","1451.41063309","1","1451.42458892","1454.45739102",
"sujeto_0030383","1","2","27","59","1454.59258604","direct","4","1","3","¿Qué carabela de 
Colon no volvió del viaje?","Santa María","La pinta",,"0","0","1","competitive","left","1.28265380859","1455.87528896","3.71734619141","1459.74570394","4.22249293327","1463.96825695","1.77750706673","1465.79816508","1467.28922009","1467.36562395","1470.3685801","0","1470.38277793","1472.48224902",
"sujeto_0030383","1","2","28","60","1472.61777306","inverse","4","1","4","¿Cuántos huesos tiene
 un adulto humano?","217","206",,"0","0","1","competitive","right","1.07246208191","1473.69030714","3.92753791809","1477.77414393","4.32700610161","1482.10119009","1.67299389839","1483.80869198","1485.07972693","1485.15927696","1488.16226792","0","1488.17704892","1496.01475096",
"sujeto_0030383","1","2","29","61","1496.14538598","direct","1","1","1","¿Qué país africano fue 
fundado por esclavos?","Liberia","Chad",,"0","0","0","competitive","right","3.19277000427","1499.33821893","1.80722999573","1501.30313611","4.11409115791","1505.41728902","1.88590884209","1507.33759809","1509.32923007","1509.40523005","1512.40818691","0","1512.42256093","1520.41338491",
"sujeto_0030383","1","2","30","62","1520.55796599","inverse","4","1","2","¿A cuánto asciende la cima
 del monte Everest?","7.990 mts","8.848 mts",,"0","0","1","competitive","right","1.64119291306","1522.19922209","3.35880708694","1525.71669602","5.50948214531","1531.22624111","0.490517854691","1531.75078797","1532.93557191","1533.01725912","1536.02021313","0","1536.035393","1543.21943498",
"sujeto_0030383","1","2","31","63","1543.36165214","direct","4","1","1","¿Cuál es el país mas chico?","Sealand","Luxemburgo",,"1","1","1","competitive","right","1.53056406975","1544.89228606","3.46943593025","1548.51163507","3.09046316147","1551.60213494","2.90953683853","1554.55996609","1556.42347407","1556.49510407","1559.49805808","1","1559.51298714","1562.63527298",
"sujeto_0030383","1","2","32","64","1562.78179002","inverse","2","1","4","¿Cuántas pirámides hay en Egipto?","10000","11000",,"1","1","1","competitive","left","1.12748503685","1563.90935898","3.87251496315","1567.93705702","5.21113991737","1573.14826298","0.788860082626","1573.97213101","1575.00570202","1575.0888021","1578.08940601","1","1578.1067481","1583.21581912",
"sujeto_0030383","1","3","1","65","1713.19257593","direct","2","1","2","¿Cuál es el quinto país con 
mas extensión?","Canadá","Brasil",,"1","1","0","competitive","left","1.99368309975","1715.18632603","3.00631690025","1718.36513996","3.1070728302","1721.47227311","2.8929271698","1724.41537595","1725.74864697","1725.8343451","1728.837322","1","1728.85046411","1736.57685208","1583.23061609"
"sujeto_0030383","1","3","2","66","1736.719203","inverse","1","1","2","¿Qué rasgo facial no tiene
 la Mona Lisa?","Cejas","Pómulos",,"0","0","1","competitive","right","1.99499702454","1738.71424508","3.00500297546","1741.85875893","3.89444804192","1745.75328708","2.10555195808","1747.89457297","1749.64498091","1749.72903895","1752.72938704","0","1752.74646997","1759.01736808",
"sujeto_0030383","1","3","3","67","1759.16824412","direct","4","1","3","¿Cuál es el país con 
mayor población?","Esados Unidos","China","right","0","0","1","competitive","right","1.20197105408","1760.37028098","3.79802894592","1764.32133913","2.49785709381","1766.81923914","3.50214290619","1770.37161493","1772.01761103","1772.08917403","1775.08937001","1","1775.10661697","1778.47397709",
"sujeto_0030383","1","3","4","68","1778.60793209","inverse","1","1","1","La palabra dinosaurio significa","Lagarto Terrible","Lagarto Dragón",,"1","1","0","competitive","right","1.92440700531","1780.53241992","3.07559299469","1783.78008413","5.86707401276","1789.64722395","0.132925987244","1789.83411407","1791.00444698","1791.08442092","1794.08737397","1","1794.10151005","1796.96138811",
"sujeto_0030383","1","3","5","69","1797.1369431","direct","2","1","3","¿Qué es el membrillero?","Arbol","Arbusto",,"0","0","0","competitive","right","0.673336029053","1797.81034493","4.32666397095","1802.30490303","4.12529397011","1806.43026114","1.87470602989","1808.3404851","1810.29460597","1810.37474895","1813.37773609","0","1813.39284706","1819.85339093",
"sujeto_0030383","1","3","6","70","1819.99442911","inverse","3","1","3","¿Alrededor de qué planeta orbita 
el satélite Europa?","Jupiter","Saturno",,"1","1","1","competitive","left","2.54478406906","1822.53931594","2.45521593094","1825.15059114","4.71165513992","1829.86230898","1.28834486008","1831.18860006","1832.73334503","1832.80506802","1835.80535793","1","1835.82263207","1838.02780509",
"sujeto_0030383","1","3","7","71","1838.17467904","direct","3","1","1","¿Donde fue el mundial de 
fútbol de 1954?","Suiza","Suecia",,"1","1","1","competitive","right","1.34953594208","1839.52427912","3.65046405792","1843.32895708","3.82425999641","1847.15329504","2.17574000359","1849.37993503","1850.63253498","1850.71487498","1853.71789193","1","1853.73186302","1857.64365101",
"sujeto_0030383","1","3","8","72","1857.78393006","inverse","1","1","4","¿Cuál de los 7 enanitos
no tenía barba?","Bashful","Mudito",,"1","1","0","competitive","left","1.35028219223","1859.13427711","3.64971780777","1862.93931413","3.52391195297","1866.46328592","2.47608804703","1868.99049091","1870.57062101","1870.6410501","1873.641366","1","1873.65928102","1878.58837104",
"sujeto_0030383","1","3","9","73","1878.72694492","direct","3","1","2","¿Cual red social es
mas utilizada mundialmente?","Instagram","Facebook",,"1","1","0","competitive","left","1.21132612228","1879.93831706","3.78867387772","1883.88043094","2.14282798767","1886.02331901","3.85717201233","1889.93123102","1891.84882593","1891.91718197","1894.92010593","1","1894.93418407","1897.86869192",
"sujeto_0030383","1","3","10","74","1898.00258803","inverse","4","1","1","¿Cuándo se inició la copa
 América de fútbol?","1916","1923",,"1","1","1","individual","left","1.19562292099","1899.198282","3.80437707901","1903.15971804","5.56044316292","1908.72022009","0.439556837082","1909.19471407","1911.09213209","1911.12859511","1914.13154697","1","1914.14575791","1916.80187893",
"sujeto_0030383","1","3","11","75","1916.94780111","direct","3","1","4","¿Cuántos presidentes de EEUU
han muerto asesinados?","3","4",,"0","0","1","competitive","left","1.01844596863","1917.96629095","3.98155403137","1922.10276294","3.29250597954","1925.39530802","2.70749402046","1928.13662791","1929.62057209","1929.7046721","1932.70765114","0","1932.72255111","1936.36666107",
"sujeto_0030383","1","3","12","76","1936.50693798","inverse","2","1","4","¿Cuántas veces participó EEUU
 en la copa América?","4","5",,"0","0","1","competitive","left","2.93726396561","1939.44424796","2.06273603439","1941.67723107","3.37296509743","1945.05023909","2.62703490257","1947.72943306","1949.17353892","1949.24746513","1952.250453","0","1952.26461196","1958.38179398",
"sujeto_0030383","1","3","13","77","1958.5168221","direct","4","1","1","¿Cuál de estos países 
no formaba la URSS?","Azeribayán","Afganistán",,"0","0","1","competitive","right","2.86340212822","1961.38029504","2.13659787178","1963.67330003","3.96291899681","1967.63626003","2.03708100319","1969.70881414","1971.02188492","1971.09359407","1974.09657907","0","1974.11079812","1982.0893991",
"sujeto_0030383","1","3","14","78","1982.26372194","inverse","1","1","1","¿En qué año se inauguró
 el teatro Solís?","1867","1856",,"0","0","0","competitive","right","3.27447795868","1985.53826499","1.72552204132","1987.43692207","4.71534013748","1992.15232205","1.28465986252","1993.48807502","1994.5443821","1994.62246013","1997.62536597","0","1997.63976693","2004.28754997",
"sujeto_0030383","1","3","15","79","2004.42389107","direct","1","1","4","¿A qué velocidad vuela 
el avión más rápido?","3529","3874",,"0","0","0","individual","left","1.97842311859","2006.40243006","3.02157688141","2009.5814991","2.78070902824","2012.36226797","3.21929097176","2015.61547709","2017.37098193","2017.41711497","2020.42006493","0","2020.43415809","2022.54443598",
"sujeto_0030383","1","3","16","80","2022.70299292","inverse","3","1","4","¿De qué año es la primer 
película cinematográfica?","1897","1888",,"0","0","0","competitive","left","1.88829112053","2024.59134698","3.11170887947","2027.85817313","3.85904502869","2031.71725893","2.14095497131","2033.89224505","2035.02521801","2035.10917997","2038.10940695","0","2038.12652493","2043.53629708",
"sujeto_0030383","1","3","17","81","2043.69440603","direct","2","1","3","¿Cuántos países 
tiene nuestro planeta?","191","194",,"1","1","1","competitive","left","0.958899974823","2044.65338993","4.04110002518","2048.85213709","3.63014912605","2052.48232698","2.36985087395","2054.88559508","2056.24281311","2056.32033706","2059.32332492","1","2059.33703709","2062.57534313",
"sujeto_0030383","1","3","18","82","2062.72289205","inverse","2","1","2","¿Cuántos habitantes
 tiene Buenos Aires?","2.9000.000","3650000",,"0","0","0","competitive","left","2.04431891441","2064.76725912","2.95568108559","2067.87571001","4.36754798889","2072.24329901","1.63245201111","2073.92905211","2075.32540298","2075.39732409","2078.40032005","0","2078.41424298","2084.24363899",
"sujeto_0030383","1","3","19","83","2084.38226199","direct","2","1","1","¿Cuántos kilos forman una tonelada?","1000","1500","left","1","1","1","competitive","left","2.30102205276","2086.68339205","2.69897794724","2089.55465102","2.53656697273","2092.09126306","3.46343302727","2095.60543203","2097.49279094","2097.57427096","2100.57726502","1","2100.591398","2106.54882097",
"sujeto_0030383","1","3","20","84","2106.71231794","inverse","4","1","4","¿Cuántos estados tiene la 
República del Perú? ","24","23",,"0","0","1","competitive","left","1.18293690681","2107.89530611","3.81706309319","2111.86462712","3.86651110649","2115.731179","2.13348889351","2117.91623402","2118.93839812","2119.01819301","2122.02116108","0","2122.03520703","2126.980515",
"sujeto_0030383","1","3","21","85","2127.12030411","direct","3","1","3","¿En qué año nació Cristóbal Colón? ","1451","1447",,"0","0","1","competitive","right","2.52599811554","2129.64637494","2.47400188446","2132.29437494","3.66882395744","2135.96326303","2.33117604256","2138.34590006","2140.19180703","2140.26328492","2143.26626611","0","2143.28138208","2147.509377",
"sujeto_0030383","1","3","22","86","2147.68223906","inverse","4","1","4","¿Cuánto mide la 
Montaña Aconcagua? ","6234","6962",,"0","0","1","competitive","left","0.952030181885","2148.63433504","4.04796981812","2152.83793092","3.68227505684","2156.52025008","2.31772494316","2158.88878107","2160.17810702","2160.25719714","2163.2601521","0","2163.27405","2170.45770097",
"sujeto_0030383","1","3","23","87","2170.6049521","direct","2","1","4","¿Cuánto mide el punto
 más profundo del océano? ","12508","11003",,"0","0","1","competitive","left","1.05726099014","2171.66227698","3.94273900986","2175.76686406","3.6444041729","2179.41130805","2.3555958271","2181.8169241","2183.06841207","2183.15214896","2186.15510798","0","2186.16970897","2190.37599802",
"sujeto_0030383","1","3","24","88","2190.55454493","inverse","1","1","3","¿Cuántos álbumes ha publicado 
el cantante Jaime Roos? ","41","34",,"0","0","1","individual","right","2.43266487122","2192.98727512","2.56733512878","2195.70873499","5.67846083641","2201.38723993","0.321539163589","2201.74332809","2203.23316407","2203.27720594","2206.28014612","0","2206.29483914","2212.49100494",
"sujeto_0030383","1","3","25","89","2212.63307691","direct","4","1","3","¿En qué año nació el 
ex-presidente Jorge Battle? ","1921","1927",,"1","1","1","competitive","right","1.07715201378","2213.71029997","3.92284798622","2217.78825712","4.45799803734","2222.24629998","1.54200196266","2223.82312298","2225.55337811","2225.62360811","2228.62538099","1","2228.64161301","2232.12766504",
"sujeto_0030383","1","3","26","90","2232.27713394","inverse","1","1","3","¿Cuántas presidencias 
constitucionales  hubo en Uruguay? ","41","42",,"0","0","1","competitive","left","1.44911599159","2233.72632003","3.55088400841","2237.43297791","4.9482550621","2242.38128495","1.0517449379","2243.48388505","2244.68765593","2244.76711202","2247.76941395","0","2247.78430605","2253.56795597",
"sujeto_0030383","1","3","27","91","2253.75424314","direct","1","1","2","¿Quién escribió mas sinfonías?","Mozart","Haydn",,"1","1","0","competitive","left","1.72904205322","2255.48336101","3.27095794678","2258.91034913","3.38591790199","2262.29630494","2.61408209801","2264.96033597","2266.17782211","2266.26192307","2269.26490092","1","2269.27885699","2273.03026605",
"sujeto_0030383","1","3","28","92","2273.1806891","inverse","4","1","2","¿En qué año nació Michael Jackson?","1958","1953",,"1","1","1","competitive","left","1.24756813049","2274.4283011","3.75243186951","2278.33582211","5.11739015579","2283.45328403","0.882609844208","2284.38812709","2286.36539102","2286.45434999","2289.45735693","1","2289.47249413","2295.33482194",
"sujeto_0030383","1","3","29","93","2295.47412395","direct","3","1","2","¿En qué año entró en vigencia 
la ley antitabaco en Uruguay?","2005","2006",,"1","1","1","competitive","left","1.23212695122","2296.70632601","3.76787304878","2300.64755797","3.92564702034","2304.573246","2.07435297966","2306.68172598","2308.27647495","2308.34980798","2311.35279799","1","2311.36700797","2316.70101213",
"sujeto_0030383","1","3","30","94","2316.88659406","inverse","3","1","1","¿Cuándo se subió el 
primer video a youtube?","2004","2005",,"0","0","1","competitive","left","1.04867815971","2317.93532014","3.95132184029","2322.04208708","3.63512611389","2325.677284","2.36487388611","2328.09244704","2329.39806199","2329.47717094","2332.48013401","0","2332.49418211","2340.24979496",
"sujeto_0030383","1","3","31","95","2340.39705706","direct","2","1","1","¿Cuántos habitantes tiene India?","1200 millones","1300 millones",,"0","0","0","competitive","right","3.52818202972","2343.92531109","1.47181797028","2345.554322","3.11390089989","2348.668262","2.88609910011","2351.60486794","2353.57450199","2353.65637302","2356.65936112","0","2356.67426705","2362.72177601",
"sujeto_0030383","1","3","32","96","2362.87915993","inverse","4","1","2","¿A qué edad murió Bob Marley?","36","37",,"0","0","1","competitive","left","1.0951359272","2363.97435808","3.9048640728","2368.02917695","3.51410698891","2371.54334497","2.48589301109","2374.06509399","2375.9629271","2376.04918098","2379.04941797","0","2379.06776714","2382.17021894",
"sujeto_0030383","1","4","1","97","2506.53484011","direct","2","1","1","¿Cuantos años dirigió la selección 
uruguaya Tabarez?","15 años","13 años",,"0","0","0","competitive","right","1.8244240284","2508.3593111","3.1755759716","2511.70422792","4.4471039772","2516.15137196","1.5528960228","2517.75693893","2518.94809198","2519.02399492","2522.02697206","0","2522.04092693","2529.10941601","2382.1849041"
"sujeto_0030383","1","4","2","98","2529.25977707","inverse","4","1","1","¿Cuantas teclas tiene un teclado 
de computadora generalmente? ","Entre 99 y 108","Entre 109 y 113",,"1","1","1","competitive","left","1.30655121803","2530.56639695","3.69344878197","2534.41793799","4.88833284378","2539.30633211","1.11166715622","2540.46940494","2541.47214198","2541.553303","2544.55627012","1","2544.57041502","2546.94185495",
"sujeto_0030383","1","4","3","99","2547.08854198","direct","1","1","1","¿Cuál Departamento tiene
 mayor superficie?","Río Negro","Soriano",,"0","0","0","competitive","left","1.28276395798","2548.37135291","3.71723604202","2552.24375701","3.83649802208","2556.08029699","2.16350197792","2558.29444408","2560.00789499","2560.07933807","2563.08139801","0","2563.09640598","2567.42249393",
"sujeto_0030383","1","4","4","100","2567.59854102","inverse","3","1","2","¿Cuál es el apellido de las 
hermanastras  de  cenicienta?","Tremaine","Truman",,"0","0","1","competitive","right","1.7867231369","2569.38536191","3.2132768631","2572.77176809","3.38553500175","2576.15737891","2.61446499825","2578.82158995","2580.69110107","2580.77284408","2583.77582693","0","2583.79076004","2586.48672795",
"sujeto_0030383","1","4","5","101","2586.65923691","direct","4","1","4","¿Cuál película ganó un
 Oscar a mejor película?","Alto Impacto","Cache",,"0","0","1","competitive","left","1.97515201569","2588.63443708","3.02484798431","2591.81467891","4.94752907753","2596.76227307","1.05247092247","2597.86433291","2598.98370004","2599.06417608","2602.06714392","0","2602.08136201","2604.34602094",
"sujeto_0030383","1","4","6","102","2604.48297095","inverse","1","1","3","¿A cuántos centímetros
equivale la medida pié?","25","30",,"0","0","1","individual","right","4.15431785583","2608.63734102","0.845682144165","2609.6379931","5.58624100685","2615.2243011","0.413758993149","2615.69190907","2616.73192096","2616.77501202","2619.77798414","0","2619.79308701","2625.19406199",
"sujeto_0030383","1","4","7","103","2625.32806897","direct","2","1","2","¿Qué departamento es mas grande?","Cerro Largo","Paysandú",,"0","0","0","competitive","left","1.77125000954","2627.09938407","3.22874999046","2630.48468399","5.02361702919","2635.50836205","0.97638297081","2636.51881313","2638.11857414","2638.20252609","2641.20539999","0","2641.22027898","2645.33020401",
"sujeto_0030383","1","4","8","104","2645.47168303","inverse","2","1","3","¿Quién pintó la Mona Lisa?","Picasso","Da Vinci","right","0","0","1","competitive","right","2.80059981346","2648.27234507","2.19940018654","2650.65865707","2.72661805153","2653.38531995","3.27338194847","2656.69451594","2658.30036902","2658.37874413","2661.38173699","1","2661.39697003","2663.55929494",
"sujeto_0030383","1","4","9","105","2663.74870706","direct","4","1","3","¿Cuántos litros hay en un galon?","3.54","3.78",,"1","1","1","competitive","left","2.42057514191","2666.16933703","2.57942485809","2668.90338302","2.51279091835","2671.41623402","3.48720908165","2674.93828511","2676.45610213","2676.53944206","2679.54242802","1","2679.55669212","2685.34905505",
"sujeto_0030383","1","4","10","106","2685.49145007","inverse","4","1","1","¿Cuántas teclas tiene
 un piano moderno?","80","88",,"0","0","1","competitive","left","2.92880105972","2688.42029595","2.07119894028","2690.66258097","3.50162601471","2694.16426301","2.49837398529","2696.69914699","2697.707623","2697.784513","2700.78542399","0","2700.8014791","2707.59921908",
"sujeto_0030383","1","4","11","107","2707.73646092","direct","4","1","3","¿Cuántos países hay en África?","54","62",,"0","0","1","competitive","left","1.09789609909","2708.83440208","3.90210390091","2712.89395499","2.82429599762","2715.71829414","3.17570400238","2718.9435041","2720.63406897","2720.71233106","2723.7133801","0","2723.72923112","2731.53402901",
"sujeto_0030383","1","4","12","108","2731.68067193","inverse","1","1","3","¿En qué siglo se crearon
 las primeras pistolas?","XV","XIII",,"1","1","1","competitive","right","1.25768208504","2732.93842292","3.74231791496","2736.82006812","4.42722201347","2741.24735808","1.57277798653","2742.855968","2744.80388212","2744.89011097","2747.89311314","1","2747.90728307","2751.14038014",
"sujeto_0030383","1","4","13","109","2751.27591801","direct","3","1","4","¿En qué año se estrenó 
la serie friends?","1994","1995",,"0","0","1","competitive","right","1.22236204147","2752.4983511","3.77763795853","2756.43274307","2.9235200882","2759.35632992","3.0764799118","2762.48348904","2764.35882497","2764.43443513","2767.43743491","0","2767.45176697","2772.45784497",
"sujeto_0030383","1","4","14","110","2772.62040496","inverse","3","1","4","¿En qué año nació Hitler?","1889","1887",,"0","0","1","competitive","right","2.29790091515","2774.91838002","2.70209908485","2777.77583599","2.78244805336","2780.55832911","3.21755194664","2783.81086493","2784.92519808","2784.99586391","2787.99885511","0","2788.01291394","2793.03740096",
"sujeto_0030383","1","4","15","111","2793.16429305","direct","1","1","4","¿Cuánto pesa un elefante Africano?","6000 kilos","5400 kilos",,"0","0","0","individual","left","2.01999092102","2795.18432903","2.98000907898","2798.31913495","3.54115200043","2801.86033297","2.45884799957","2804.35400295","2805.70992613","2805.75490403","2808.75740409","0","2808.77257705","2815.47964096",
"sujeto_0030383","1","4","16","112","2815.62354112","inverse","1","1","2","¿Qué porcentaje de 
la población es zurda?","10%","7%",,"1","1","0","individual","left","1.33977103233","2816.96337605","3.66022896767","2820.79520512","2.97008800507","2823.76534295","3.02991199493","2826.84653401","2828.08939695","2828.13159394","2831.13456702","1","2831.1487391","2837.12846208",
"sujeto_0030383","1","4","17","113","2837.26780295","direct","1","1","2","¿En qué año se estrenó
Volver al futuro?","1984","1985",,"0","0","1","competitive","left","2.26047897339","2839.52835608","2.73952102661","2842.42666292","4.74359512329","2847.17031813","1.25640487671","2848.46118808","2850.02300191","2850.09490108","2853.09788895","0","2853.11302209","2860.20446897",
"sujeto_0030383","1","4","18","114","2860.3482101","inverse","3","1","2","¿Cuántos jugadores hay en un 
equipo de baseball?","9","8",,"1","1","0","competitive","left","1.45205712318","2861.80033112","3.54794287682","2865.50601196","4.00831389427","2869.5143671","1.99168610573","2871.53932595","2873.15360403","2873.22340107","2876.22637796","1","2876.24174905","2881.21899199",
"sujeto_0030383","1","4","19","115","2881.35954404","direct","2","1","1","¿Cuántos Oscar ganó
 la película titanic?","13","11",,"1","1","1","competitive","right","1.05575108528","2882.41536713","3.94424891472","2886.51551008","2.84876203537","2889.36431503","3.15123796463","2892.56637192","2893.86838293","2893.95137191","2896.95435405","1","2896.96818805","2901.56939101",
"sujeto_0030383","1","4","20","116","2901.71969509","inverse","4","1","4","¿En qué año comenzó
la segunda guerra mundial?","1939","1976","left","0","0","1","competitive","left","0.915616989136","2902.63535595","4.08438301086","2906.87419009","4.97709107399","2911.85134411","1.02290892601","2912.90952992","2914.70936012","2914.79437709","2917.79733014","1","2917.81122494","2921.79736614",
"sujeto_0030383","1","4","21","117","2921.94635391","direct","2","1","4","¿Cuántos biomas hay en Uruguay?","5","4",,"0","0","1","competitive","left","2.59432697296","2924.54073191","2.40567302704","2927.10036802","3.54199886322","2930.64241004","2.45800113678","2933.15468693","2934.95203614","2935.02255106","2938.02537012","0","2938.0394671","2944.2888751",
"sujeto_0030383","1","4","22","118","2944.42491293","inverse","2","1","3","¿Cuándo murió Pablo Escobar?","1993","1997",,"1","1","1","competitive","right","0.924454927444","2945.34941292","4.07554507256","2949.581249","3.53605699539","2953.11737704","2.46394300461","2955.63262296","2957.41548395","2957.48347497","2960.48645997","1","2960.50063896","2966.20141792",
"sujeto_0030383","1","4","23","119","2966.33585691","direct","1","1","4","¿Qué serie ha ganado mas premios?","Friends","Murphy Brown",,"1","1","0","competitive","left","3.08544802666","2969.42136097","1.91455197334","2971.49303913","3.50731801987","2975.000422","2.49268198013","2977.54441214","2978.89680505","2978.97875714","2981.9817431","1","2981.99574804","2987.55737114",
"sujeto_0030383","1","4","24","120","2987.69762206","inverse","4","1","2","¿Cuántas fichas tiene el dominó?","26","28",,"1","1","1","competitive","left","0.940749168396","2988.6384511","4.0592508316","2992.85091496","3.61236786842","2996.463341","2.38763213158","2998.8867631","2999.94137812","3000.02082801","3003.02382612","1","3003.03821492","3008.28131199",
"sujeto_0030383","1","4","25","121","3008.423105","direct","2","1","4","¿Cuántos son los dientes de leche?","20","25",,"0","0","1","competitive","right","1.00625491142","3009.429461","3.99374508858","3013.58144999","5.17387890816","3018.75536895","0.826121091843","3019.61605191","3021.32535911","3021.40013909","3024.40314198","0","3024.41742897","3026.56314611",
"sujeto_0030383","1","4","26","122","3026.70228195","inverse","3","1","3","¿Cuántos gramos son una onza?","22","28",,"0","0","1","competitive","left","2.36708188057","3029.06944203","2.63291811943","3031.87452507","3.63576221466","3035.51032805","2.36423778534","3037.92451096","3039.91931796","3039.99293208","3042.99342799","0","3043.01033592","3049.3006041",
"sujeto_0030383","1","4","27","123","3049.46224093","direct","3","1","1","¿Cuándo salió el primer album
 de los Beatles?","1963","1962",,"1","1","1","competitive","left","2.159044981","3051.62136602","2.840955019","3054.61939192","3.72792410851","3058.34735703","2.27207589149","3060.65347409","3061.81712508","3061.88793302","3064.88936591","1","3064.90542197","3068.67741895",
"sujeto_0030383","1","4","28","124","3068.8067131","inverse","3","1","3","¿Quién fundó la empresa apple?","Carlos Slim","Steve Jobs",,"1","1","1","competitive","right","0.823635101318","3069.63045502","4.17636489868","3073.97858691","3.3017270565","3077.28035712","2.6982729435","3080.02985811","3081.14453101","3081.21437192","3084.217345","1","3084.231287","3090.52913594",
"sujeto_0030383","1","4","29","125","3090.66614509","direct","4","1","2","¿Cuántos municipios hay
 en Montevideo?","8","7",,"1","1","1","competitive","left","2.59721803665","3093.26343513","2.40278196335","3095.83705497","3.21719884872","3099.05431008","2.78280115128","3101.87467194","3103.78942704","3103.87560391","3106.87738609","1","3106.89350605","3108.97465491",
"sujeto_0030383","1","4","30","126","3109.11193705","inverse","1","1","1","¿Cuántos kilómetros hay
 de Montevideo a Artigas?","632","599",,"0","0","0","individual","left","1.30840086937","3110.42040801","3.69159913063","3114.24972391","4.52961111069","3118.77937698","1.47038888931","3120.28415608","3121.76728892","3121.81842613","3124.82138205","0","3124.83536911","3130.88748407",
"sujeto_0030383","1","4","31","127","3131.02074313","direct","2","1","2","¿En qué año nació 
Leonardo Da Vinci?","1452","1511",,"1","1","0","competitive","left","2.08161997795","3133.10240698","2.91838002205","3136.17754006","4.25478100777","3140.43238807","1.74521899223","3142.22921896","3144.08140993","3144.16375804","3147.16673708","1","3147.18067002","3150.32540202",
"sujeto_0030383","1","4","32","128","3150.46561098","inverse","3","1","1","¿A qué continente
 pertenece el país Gabón?","Africa","Oceanía",,"0","0","1","competitive","right","1.22470092773","3151.690377","3.77529907227","3155.62084293","3.61649703979","3159.23738194","2.38350296021","3161.67133904","3163.48298812","3163.55656314","3166.55954695","0","3166.57367897","3171.81157994",
