"code","nro_aplicante","nro_bloque","nro_trial_bloque","nro_trial_global","show_game_type","choice_order","rival","pay_individual","pay_competitive","question","answer_left_text","answer_right_text","correct_answer","outcome_individual","outcome_competitive","outcome_rival","game_type","answer","social_time","rt_game_type","feedback_delay","show_question","answer_time","rt_answer_global","feedback_delay_2","show_jitter","jitter_time","show_outcome","outcome_time","outcome_participant_real","show_final_jitter","second_jitter_time","inicio_descanso"
"sujeto_0074535","1","1","1","1","23.7720630169","direct","3","1","4","¿Cuántos centímetros corresponden
al talle 36 del calzado?","23","24",,"0","0","1","competitive","right","4.04700088501","27.8191242218","0.95299911499","28.9273250103","4.68777990341","33.6151731014","1.31222009659","34.9788441658","36.0071380138","36.0789101124","39.0818521976","0","39.0960080624","41.258534193",
"sujeto_0074535","1","1","2","2","41.3985650539","inverse","3","1","2","¿Cuántas metros mide la Intendencia
Municipal de Montevideo? ","84","78",,"0","0","1","competitive","left","3.64554905891","45.0441792011","1.35445094109","46.5538032055","5.36828708649","51.9221529961","0.631712913513","52.6047620773","54.4828062057","54.55488801","57.5578541756","0","57.5729131699","59.6656811237",
"sujeto_0074535","1","1","3","3","59.8048942089","direct","1","1","3","¿Cuántas La Pasiva
 hay en uruguay?","15","11",,"1","1","1","competitive","left","2.25425004959","62.059210062","2.74574995041","64.9621090889","4.45299291611","69.4151461124","1.54700708389","71.0138421059","72.6254980564","72.6977012157","75.7006862164","1","75.7158541679","79.9941551685",
"sujeto_0074535","1","1","4","4","80.1355340481","inverse","3","1","3","¿De que color es la camiseta de uruguay?","blanca","celeste","right","1","1","1","competitive","right","2.6225669384","82.7581751347","2.3774330616","85.2871952057","2.96894598007","88.2562022209","3.03105401993","91.3398120403","92.5445752144","92.6254301071","95.6273560524","1","95.6427690983","99.0953481197",
"sujeto_0074535","1","1","5","5","99.2620911598","direct","2","1","1","¿Cuánto metros mide
la torre Eiffel?","333","324",,"1","1","1","individual","right","1.85202598572","101.114166021","3.14797401428","104.433083057","3.29005002975","107.723195076","2.70994997025","110.48320508","112.00336504","112.051432133","115.054394007","1","115.068430185","122.105127096",
"sujeto_0074535","1","1","6","6","122.238277197","inverse","3","1","4","¿Cuantas ciudades existen
 en todo el uruguay?","63","72",,"0","0","1","competitive","left","1.82183814049","124.060181141","3.17816185951","127.394457102","4.48660421371","131.881127119","1.51339578629","133.445564032","134.500385046","134.57965517","137.582652092","0","137.596475124","145.223053217",
"sujeto_0074535","1","1","7","7","145.384056091","direct","1","1","1","¿Cuantos estados tiene África?","52","54",,"1","1","0","individual","right","2.75105690956","148.13519001","2.24894309044","150.536939144","5.10314917564","155.640157223","0.896850824356","156.575162172","158.439173222","158.474555016","161.477517128","1","161.492467165","167.253491163",
"sujeto_0074535","1","1","8","8","167.398060083","inverse","4","1","4","¿En qué año nació
 Stephen Hawking?","1952","1942",,"0","0","1","competitive","left","1.51305198669","168.911155224","3.48694801331","172.568015099","4.50009489059","177.068150043","1.49990510941","178.619440079","180.063739061","180.136721134","183.139699221","0","183.153851032","189.253210068",
"sujeto_0074535","1","1","9","9","189.408503056","direct","2","1","3","¿Cuánto años tenía Artigas
 cuando se fue a Paraguay?","56","57",,"1","1","1","competitive","left","2.16260886192","191.571155071","2.83739113808","194.562945127","5.19111609459","199.754103184","0.808883905411","200.597640038","202.147133112","202.214241028","205.217219114","1","205.231443167","211.278767109",
"sujeto_0074535","1","1","10","10","211.41706419","inverse","1","1","2","¿Cuantos milímetros 
mide una hoja A2?","420x592","420x594",,"0","0","1","competitive","right","2.41516208649","213.832278013","2.58483791351","216.573713064","5.35637903214","221.930135012","0.643620967865","222.62580204","224.194238186","224.275788069","227.278771162","0","227.294011116","234.367653131",
"sujeto_0074535","1","1","11","11","234.495103121","direct","3","1","3","¿Cuál es la menor temperatura 
registrada en Uruguay?","-5.4","-7.4",,"0","0","1","competitive","left","2.16500401497","236.660176039","2.83499598503","239.652243137","4.38082885742","244.033135176","1.61917114258","245.703596115","247.385637999","247.454312086","250.457240105","0","250.472289085","254.205585003",
"sujeto_0074535","1","1","12","12","254.342960119","inverse","2","1","2","¿Cuantos años hace que 
se fundó facebook?","18","17",,"0","0","0","competitive","right","2.56013679504","256.903140068","2.43986320496","259.492778063","5.22232985497","264.715149164","0.777670145035","265.544993162","266.917707205","266.995577097","269.99855113","0","270.012589216","272.787245035",
"sujeto_0074535","1","1","13","13","272.914414167","direct","1","1","4","¿Cuál animal es más
 pesado en promedio?","Rinoceronte","Hipopotamo",,"0","0","0","competitive","left","1.44374799728","274.358208179","3.55625200272","278.105534077","4.94859600067","283.054199219","1.05140399933","284.156541109","285.235803127","285.306845188","288.309836149","0","288.32390213","292.164885044",
"sujeto_0074535","1","1","14","14","292.293819189","inverse","1","1","2","¿Qué personaje de dragon ball 
murió más veces?","Chaoz","Krillin",,"1","1","0","competitive","right","1.81231617928","294.106200218","3.18768382072","297.449123144","4.83700013161","302.286195993","1.16299986839","303.50062418","304.958449125","305.034173012","308.037160158","1","308.051128149","315.824102163",
"sujeto_0074535","1","1","15","15","315.956976175","direct","3","1","2","La universidad de oxford. 
existe desde:","1096","1249",,"1","1","0","competitive","right","2.02615714073","317.98319912","2.97384285927","321.108244181","5.31589412689","326.424205065","0.684105873108","327.145813227","328.194622993","328.263148069","331.266084194","1","331.280133009","337.967319012",
"sujeto_0074535","1","1","16","16","338.1025002","inverse","3","1","1","¿Qué escritor latino ganó antes
 el premio nobel?"," García Marquez","Neruda",,"0","0","1","individual","right","1.76664614677","339.869190216","3.23335385323","343.272316217","4.56392288208","347.836312056","1.43607711792","349.323104143","351.06309104","351.107809067","354.110804081","0","354.125106096","357.583376169",
"sujeto_0074535","1","1","17","17","357.726247072","direct","4","1","3","¿Cuántos dientes tiene un
 tiburón blanco?","6000","3000",,"0","0","1","competitive","right","1.65487790108","359.381188154","3.34512209892","362.866379023","4.66468691826","367.531133175","1.33531308174","368.916325092","369.955332994","370.033595085","373.036600113","0","373.051050186","377.860724211",
"sujeto_0074535","1","1","18","18","378.004348993","inverse","4","1","1","¿Cuánto mide el paralelo Ecuador?","40.000km","70.000km",,"0","0","1","individual","right","1.47273993492","379.477155209","3.52726006508","383.143290043","5.27880597115","388.422138214","0.721194028854","389.178257227","391.134374142","391.178503036","394.181471109","0","394.19542408","397.795361996",
"sujeto_0074535","1","1","19","19","397.931504011","direct","4","1","2","¿Cuál fue el primer libro 
de Stephen King?","Carrie","The Stand",,"1","1","1","competitive","right","2.63463711739","400.56620717","2.36536288261","403.10021019","4.41390013695","407.514172077","1.58609986305","409.137580156","410.88167119","410.954888105","413.957891226","1","413.97322917","418.447357178",
"sujeto_0074535","1","1","20","20","418.576831102","inverse","2","1","3","¿Qué civilización practicaba
 la momificación?","Grecia","Egipto","right","0","0","1","competitive","right","1.51228308678","420.089156151","3.48771691322","423.730532169","3.03953313828","426.770106077","2.96046686172","429.781322002","431.719325066","431.799533129","434.802523136","1","434.816654205","439.045449018",
"sujeto_0074535","1","1","21","21","439.185113192","direct","4","1","4","¿Cuántos millones de visitas
 recibe google por minuto?","3.0","4.5",,"0","0","1","competitive","right","1.94003105164","441.125192165","3.05996894836","444.357098103","4.07199501991","448.429154158","1.92800498009","450.408771038","451.923657179","451.99232316","454.995299101","0","455.009263039","462.131350994",
"sujeto_0074535","1","1","22","22","462.262794018","inverse","1","1","3","La máquina de fax. se inventó en:","1843","1960",,"0","0","1","competitive","left","1.80434203148","464.067200184","3.19565796852","467.419461012","3.9506521225","471.370155096","2.0493478775","473.470057011","474.711380005","474.787862062","477.790823221","0","477.804742098","481.039369106",
"sujeto_0074535","1","1","23","23","481.173322201","direct","2","1","4","En la verdadera historia de los
 300 espartanos. habían:","300 soldados","4300 soldados",,"1","1","1","competitive",,"1.80379009247","482.977155209","3.19620990753","486.329558134","6","492.329685211","0","492.344207048","493.605432034","493.680986166","496.683939219","0","496.698083162","500.499855042",
"sujeto_0074535","1","1","24","24","500.635076046","inverse","1","1","4","¿Cuántos milímetros crece
 el pelo por día?","0.4","0.04",,"0","0","0","competitive","right","1.76510500908","502.400257111","3.23489499092","505.78945303","3.47567200661","509.265189171","2.52432799339","511.823367119","513.583329201","513.657860041","516.659348011","0","516.67577219","523.407351017",
"sujeto_0074535","1","1","25","25","523.56383419","direct","4","1","1","¿Cuánto mide la baldosa gris 
clásica de Montevideo?","22x22 cm.","20x20 cm.",,"1","1","1","individual","left","2.43825602531","526.002154112","2.56174397469","528.733610153","3.95849013329","532.692159176","2.04150986671","534.786074162","536.781348228","536.819737196","539.822718143","1","539.83795023","545.380768061",
"sujeto_0074535","1","1","26","26","545.522078037","inverse","2","1","2","¿Cuántas películas de rápidos
 y furiosos hay?","10","11",,"1","1","0","individual","left","3.21500611305","548.737147093","1.78499388695","550.678982019","2.85010409355","553.529152155","3.14989590645","556.729469061","558.087491035","558.130864143","561.131355047","1","561.148395061","563.183089018",
"sujeto_0074535","1","1","27","27","563.317863226","direct","3","1","1","¿Cuántos masters 1000
 ganó Del Potro?","1","2",,"1","1","1","individual","right","2.00528693199","565.323242188","2.99471306801","568.472830057","3.99829292297","572.471183062","2.00170707703","574.50545001","576.260039091","576.307090998","579.310034037","1","579.324674129","586.721005201",
"sujeto_0074535","1","1","28","28","586.862541199","inverse","2","1","4","¿Cuántos meses dura el 
embarazo de una leona?","3 meses","4 meses",,"0","0","1","competitive","right","1.34655499458","588.209139109","3.65344500542","592.016366005","4.29077506065","596.307216167","1.70922493935","598.051281214","599.162356138","599.235223055","602.238216162","0","602.252446175","608.9748981",
"sujeto_0074535","1","1","29","29","609.124507189","direct","1","1","1","¿En qué año fue creado
 el sandwich?","1762","1653",,"1","1","0","individual","right","1.75764012337","610.882218122","3.24235987663","614.278643131","3.91051888466","618.18920207","2.08948111534","620.31273222","621.911290169","621.947504044","624.950462103","1","624.964539051","628.4351511",
"sujeto_0074535","1","1","30","30","628.570588112","inverse","4","1","2","El nombre de la moneda de Vietnam es:","Dinar","Dong",,"0","0","1","individual","left","3.2085211277","631.779155016","1.7914788723","633.737738132","3.00136208534","636.739161015","2.99863791466","639.772583008","641.20455122","641.240135193","644.243106127","0","644.257688046","650.423321009",
"sujeto_0074535","1","1","31","31","650.5595541","direct","2","1","1","¿cuantos aleteos puede dar 
un colibrí por segundo?","120","50",,"0","0","0","individual","left","1.6286008358","652.188220024","3.3713991642","655.700122118","4.07806301117","659.778249025","1.92193698883","661.734009027","663.46641016","663.501853228","666.504819155","0","666.518951178","670.727329016",
"sujeto_0074535","1","1","32","32","670.872992992","inverse","4","1","3","¿Qué altura promedio tienen
 los hombres uruguayos?","1.73 m","1.72 m",,"1","1","1","competitive","left","1.64811587334","672.521153212","3.35188412666","676.026847124","3.55527877808","679.582187176","2.44472122192","682.077170134","683.339597225","683.411856174","686.414865017","1","686.42903018","690.903323174",
"sujeto_0074535","2","2","1","1","16.9661121368","direct","1","1","1","¿En qué año nació 
el actor Bradd Pitt?","1967","1963",,"1","1","1","individual","right","2.90597605705","19.8721320629","2.09402394295","22.1231691837","5.62193107605","27.7451660633","0.37806892395","28.1747100353","29.2705461979","29.3076970577","32.3106541634","1","32.3248920441","38.2524731159",
"sujeto_0074535","2","2","2","2","38.3766760826","inverse","2","1","1","¿Cual es el segundo 
monte más alto?","Kanchenjunga","K2",,"1","1","1","individual","left","2.53038287163","40.9071040154","2.46961712837","43.5296471119","4.95541882515","48.4851272106","1.04458117485","49.5853722095","51.0377840996","51.0853981972","54.0883560181","1","54.1024661064","57.5323719978",
"sujeto_0074535","2","2","3","3","57.6900811195","direct","3","1","1","¿Cuándo finalizó la construcción
 del Palacio Legislativo?","1925","1917",,"0","0","1","individual","left","1.53505182266","59.2252001762","3.46494817734","62.826772213","5.05629611015","67.883108139","0.943703889847","68.8589780331","70.5006511211","70.5424940586","73.5454599857","0","73.5607171059","79.2582740784",
"sujeto_0074535","2","2","4","4","79.3986840248","inverse","3","1","3","¿Cuántos integrantes tenía
 en su inicio  el cuarteto de nos?","3","4",,"1","1","1","competitive","right","1.51039290428","80.9091210365","3.48960709572","84.5543630123","4.48573088646","89.0401620865","1.51426911354","90.6051640511","91.738256216","91.822810173","94.8258020878","1","94.8400611877","100.489892006",
"sujeto_0074535","2","2","5","5","100.625325203","direct","2","1","3","¿Qué valor tiene el número pi?","3.14","4.18","left","0","0","1","competitive","left","2.04976415634","102.675134182","2.95023584366","105.780521154","2.637622118","108.418184042","3.362377882","111.832442999","113.286655188","113.367787123","116.370779037","1","116.384826183","123.305776119",
"sujeto_0074535","2","2","6","6","123.435985088","inverse","2","1","2","¿Cuál es la esperanza de vida
 en Uruguay?","75","77",,"1","1","0","individual","right","2.9260559082","126.362104177","2.0739440918","128.607734203","4.32735800743","132.935132027","1.67264199257","134.644532204","136.298314095","136.346336126","139.349273205","1","139.363149166","145.826143026",
"sujeto_0074535","2","2","7","7","145.984968185","direct","1","1","2","¿Cuantos pisos tiene la torre 
de las comunicaciones?","26","32",,"1","1","0","individual","right","2.15710496902","148.142138004","2.84289503098","151.139206171","3.96286606789","155.102116108","2.03713393211","157.1732831","159.002012014","159.040919065","162.043893099","1","162.058436155","164.204643011",
"sujeto_0074535","2","2","8","8","164.326596022","inverse","2","1","4","¿En qué país sudamericano 
no hay McDonalds?","Bolivia","Venezuela",,"0","0","1","competitive","right","1.30848002434","165.635120153","3.69151997566","169.464681149","3.04840016365","172.513125181","2.95159983635","175.514855146","176.823332071","176.899560213","179.902527094","0","179.916710138","186.275303125",
"sujeto_0074535","2","2","9","9","186.401352167","direct","3","1","1","¿En qué año empieza
 la Edad Media?","476","512",,"1","1","1","individual","right","1.51174902916","187.913164139","3.48825097084","191.55934906","4.14577698708","195.705171108","1.85422301292","197.593847036","198.997550011","199.045282125","202.047315121","1","202.061784983","205.050316095",
"sujeto_0074535","2","2","10","10","205.192817211","inverse","3","1","4","¿Hace cuántos años surgió
 el ser humano?","200mil","300mil",,"0","0","0","competitive","right","1.32231807709","206.515224218","3.67768192291","210.336109161","4.23194813728","214.568113089","1.76805186272","216.386712074","218.2727561","218.354337215","221.357313156","0","221.372315168","224.682784081",
"sujeto_0074535","2","2","11","11","224.823423147","direct","3","1","4","¿Cuántas cuadras tiene
 actualmente 18 de julio? ","36","33",,"0","0","1","competitive","right","1.1437151432","225.967235088","3.8562848568","229.959392071","4.01772403717","233.977155209","1.98227596283","236.012096167","237.714337111","237.796649218","240.799315214","0","240.813333035","245.539623022",
"sujeto_0074535","2","2","12","12","245.667721987","inverse","1","1","4","¿Qué juego de equipo se 
considera mas rápido?","Lacrosse","Badminton",,"0","0","0","competitive","left","1.43837189674","247.106154203","3.56162810326","250.807253122","4.1298391819","254.937131166","1.8701608181","256.857676029","258.100755215","258.175235033","261.178203106","0","261.19254303","269.187319994",
"sujeto_0074535","2","2","13","13","269.328664064","direct","1","1","3","¿Qué promedio de edad 
vive una jirafa? ","25","20",,"0","0","1","competitive","right","2.23345184326","271.562182188","2.76654815674","274.500748158","3.9873650074","278.488152027","2.0126349926","280.586997986","282.3485291","282.420802116","285.423732996","0","285.437940121","291.391278982",
"sujeto_0074535","2","2","14","14","291.523351192","inverse","1","1","2","¿Cuántos grandes lagos hay?","7","5",,"0","0","1","individual","right","1.75772309303","293.281117201","3.24227690697","296.664155006","4.2509560585","300.915151119","1.7490439415","302.714470148","304.006585121","304.049249172","307.05223012","0","307.066336155","314.887305021",
"sujeto_0074535","2","2","15","15","315.0176332","direct","3","1","2","¿Cuántos discos de estudio
 grabó Johhny Cash? ","54","43",,"1","1","0","individual","right","2.05651807785","317.074243069","2.94348192215","320.175795078","4.7492480278","324.92508316","1.2507519722","326.210180998","327.488839149","327.527931213","330.530920029","1","330.544848204","337.195763111",
"sujeto_0074535","2","2","16","16","337.329257011","inverse","4","1","1","¿Cuántos barrios tiene
 Montevideo? ","71","62",,"0","0","1","individual","right","1.18689608574","338.516220093","3.81310391426","342.467489004","4.26764202118","346.735170126","1.73235797882","348.520066023","349.527127028","349.570815086","352.573785067","0","352.587997198","358.050000191",
"sujeto_0074535","2","2","17","17","358.189647198","direct","3","1","3","¿Qué edad tiene Homero Simpson?","36","42",,"0","0","1","competitive","right","1.70248007774","359.892170191","3.29751992226","363.331786156","3.82528614998","367.157110214","2.17471385002","369.364757061","370.740797043","370.816250086","373.819229126","0","373.833142996","378.221899033",
"sujeto_0074535","2","2","18","18","378.367652178","inverse","4","1","2","¿Cuántos países con monarquía 
hay en europa actualmente? ","6","10",,"1","1","1","individual","left","1.65540409088","380.023101091","3.34459590912","383.507923126","4.8601667881","388.368151188","1.1398332119","389.542426109","390.980736017","391.026573181","394.029547215","1","394.044555187","400.20138216",
"sujeto_0074535","2","2","19","19","400.380707026","direct","2","1","3","¿Cuántos capítulos de
 Friends existen? ","236","228",,"1","1","1","competitive","right","1.68229794502","402.063043118","3.31770205498","405.536948204","4.15507888794","409.692085981","1.84492111206","411.587319136","412.892902136","412.971600056","415.974583149","1","415.988540173","418.36413312",
"sujeto_0074535","2","2","20","20","418.507813215","inverse","1","1","3","¿Cuántas óperas compuso Mozart? ","27","22",,"1","1","1","competitive","left","1.43429899216","419.942174196","3.56570100784","423.645215034","4.22784686089","427.873102188","1.77215313911","429.680124044","430.972282171","431.047547102","434.050503016","1","434.064241171","441.375714064",
"sujeto_0074535","2","2","21","21","441.520004034","direct","4","1","3","¿Cuántos mundiales de fútbol 
femenino ha realizado FIFA? ","9","7",,"1","1","1","competitive","right","1.4710919857","442.991177082","3.5289080143","446.690665007","4.44942092896","451.140146017","1.55057907104","452.741300106","453.98498702","454.058542013","457.061511993","1","457.075918198","463.178376198",
"sujeto_0074535","2","2","22","22","463.327636003","inverse","3","1","2","¿Cuál es la temperatura 
media anual en Montevideo? ","17.5","16.3",,"0","0","1","individual","left","2.24343490601","465.571135998","2.75656509399","468.485607147","4.63247919083","473.118147135","1.36752080917","474.53621912","476.474843025","476.520348072","479.523274183","0","479.538383007","486.107940197",
"sujeto_0074535","2","2","23","23","486.238898039","direct","2","1","2","¿En qué año se estrenó el
 videojuego The Sims? ","2000","2002",,"0","0","0","individual","right","2.2722299099","488.51122117","2.7277700901","491.397960186","4.60818910599","496.006217003","1.39181089401","497.430478096","499.292225122","499.331627131","502.334601164","0","502.348754168","509.742403984",
"sujeto_0074535","2","2","24","24","509.888747215","inverse","2","1","1","¿Cuál es la canción con 
mas covers? ","Yesterday","Stand by me",,"0","0","0","individual","right","1.77643013","511.665222168","3.22356987","515.04283309","3.98632287979","519.029224157","2.01367712021","521.093826056","522.492393017","522.52773118","525.530697107","0","525.544958115","529.7158041",
"sujeto_0074535","2","2","25","25","529.865456104","direct","1","1","4","¿Cuánto duró la guerra
 de los 100 años?","116","123",,"0","0","0","competitive","left","2.2656788826","532.131196022","2.7343211174","535.01842308","4.78862094879","539.807085991","1.21137905121","541.0714221","542.551318169","542.621123075","545.623311043","0","545.638922215","547.958705187",
"sujeto_0074535","2","2","26","26","548.090319157","inverse","4","1","4","¿Qué color tiene la  bandera de Brasil?","Amarillo","Naranja","left","0","0","1","competitive","left","1.07383680344","549.164202213","3.92616319656","553.244810104","3.66224789619","556.907114029","2.33775210381","559.279392004","560.84592104","560.930905104","563.933896065","1","563.94780302","566.979305029",
"sujeto_0074535","2","2","27","27","567.1175282","direct","4","1","3","¿Qué carabela de 
Colon no volvió del viaje?","Santa María","La pinta",,"0","0","1","competitive","right","1.85160493851","568.969194174","3.14839506149","572.288643122","4.87242293358","577.16112709","1.12757706642","578.340229034","579.831248045","579.907033205","582.907289982","0","582.92468214","585.023319006",
"sujeto_0074535","2","2","28","28","585.159126043","inverse","4","1","4","¿Cuántos huesos tiene
 un adulto humano?","217","206",,"0","0","1","competitive","right","1.21003890038","586.369233131","3.78996109962","590.314198017","2.3829369545","592.697202206","3.6170630455","596.364214182","597.635245085","597.716467142","600.719451189","0","600.733561993","608.571257114",
"sujeto_0074535","2","2","29","29","608.705682039","direct","1","1","1","¿Qué país africano fue 
fundado por esclavos?","Liberia","Chad",,"0","0","0","individual","right","1.85245108604","610.558199167","3.14754891396","613.876777172","4.69638800621","618.573235035","1.30361199379","619.927668095","621.919297218","621.962550163","624.965511084","0","624.980324984","632.967327118",
"sujeto_0074535","2","2","30","30","633.097563982","inverse","4","1","2","¿A cuánto asciende la cima
 del monte Everest?","7.990 mts","8.848 mts",,"0","0","1","individual","right","3.98452210426","637.082146168","1.01547789574","638.256208181","5.6179330349","643.874181032","0.382066965103","644.308327198","645.493135214","645.541079044","648.543274164","0","648.558343172","655.742339134",
"sujeto_0074535","2","2","31","31","655.876754999","direct","4","1","1","¿Cuál es el país mas chico?","Sealand","Luxemburgo",,"1","1","1","competitive","right","1.3123281002","657.189125061","3.6876718998","661.03274703","4.28136181831","665.314149141","1.71863818169","667.085440159","668.947278023","669.018734217","672.019273996","1","672.036588192","675.158891201",
"sujeto_0074535","2","2","32","32","675.288686037","inverse","2","1","4","¿Cuántas pirámides hay en Egipto?","10000","11000",,"1","1","1","competitive","left","1.96849608421","677.257272005","3.03150391579","680.443274021","4.15979599953","684.603107214","1.84020400047","686.496034145","687.529632092","687.61322999","690.6153512","1","690.630417109","695.735309124",
"sujeto_0074535","2","3","1","33","821.529134035","direct","2","1","2","¿Cuál es el quinto país con 
mas extensión?","Canadá","Brasil",,"1","1","0","individual",,"2.51396799088","824.043163061","2.48603200912","826.683241129","6","832.683380127","0","832.704179049","834.037484169","834.088114023","837.091056108","0","837.10515213","844.831593037",
"sujeto_0074535","2","3","2","34","844.957089186","inverse","1","1","2","¿Qué rasgo facial no tiene
 la Mona Lisa?","Cejas","Pómulos",,"0","0","1","individual","right","1.8210439682","846.778176069","3.1789560318","850.115348101","4.91280317307","855.028211117","1.08719682693","856.166488171","857.916907072","857.966576099","860.967307091","0","860.984742165","867.256025076",
"sujeto_0074535","2","3","3","35","867.41891408","direct","4","1","3","¿Cuál es el país con 
mayor población?","Esados Unidos","China","right","0","0","1","competitive","right","1.57816791534","868.997121096","3.42183208466","872.576532125","3.16063094139","875.737223148","2.83936905861","878.610267162","880.255278111","880.327680111","883.330637217","1","883.34596014","886.713246107",
"sujeto_0074535","2","3","4","36","886.846992016","inverse","1","1","1","La palabra dinosaurio significa","Lagarto Terrible","Lagarto Dragón",,"1","1","0","individual","right","1.60318303108","888.450242996","3.39681696892","891.987032175","4.9151070118","896.902199984","1.0848929882","898.037758112","899.207273006","899.255334139","902.258257151","1","902.272150993","905.131278992",
"sujeto_0074535","2","3","5","37","905.275157213","direct","2","1","3","¿Qué es el membrillero?","Arbol","Arbusto",,"0","0","0","competitive","right","2.13000607491","907.405225992","2.86999392509","910.416201115","4.99896478653","915.415235996","1.00103521347","916.461905003","918.415985107","918.496236086","921.499167204","0","921.513622046","927.97527504",
"sujeto_0074535","2","3","6","38","928.115585089","inverse","3","1","3","¿Alrededor de qué planeta orbita 
el satélite Europa?","Jupiter","Saturno",,"1","1","1","competitive","left","1.66553997993","929.781165123","3.33446002007","933.274918079","5.73714089394","939.012096167","0.262859106064","939.326567173","940.871380091","940.942296982","943.945239067","1","943.960535049","946.165703058",
"sujeto_0074535","2","3","7","39","946.311474085","direct","3","1","1","¿Donde fue el mundial de 
fútbol de 1954?","Suiza","Suecia",,"1","1","1","individual","left","1.57268285751","947.88420105","3.42731714249","951.450803995","4.47835087776","955.929216146","1.52164912224","957.484582186","958.737203121","958.78580308","961.788776159","1","961.802723169","965.714495182",
"sujeto_0074535","2","3","8","40","965.85427618","inverse","1","1","4","¿Cuál de los 7 enanitos
no tenía barba?","Bashful","Mudito",,"1","1","0","competitive","right","1.25883412361","967.113173008","3.74116587639","970.992376089","5.37565803528","976.368085146","0.624341964722","977.028612137","978.608760118","978.678618193","981.679299116","1","981.696610212","986.625708103",
"sujeto_0074535","2","3","9","41","986.764965057","direct","3","1","2","¿Cual red social es
mas utilizada mundialmente?","Instagram","Facebook",,"1","1","0","individual","left","1.52225184441","988.287298203","3.47774815559","991.904379129","3.71374106407","995.61818409","2.28625893593","997.955341101","999.871283054","999.906522036","1002.90946412","1","1002.92363214","1005.85809016",
"sujeto_0074535","2","3","10","42","1005.99226809","inverse","4","1","1","¿Cuándo se inició la copa
 América de fútbol?","1916","1923",,"1","1","1","individual","left","1.66685390472","1007.65916514","3.33314609528","1011.147964","5.01423811913","1016.16226411","0.985761880875","1017.19910121","1019.09528804","1019.13276315","1022.13572907","1","1022.15129399","1024.80737615",
"sujeto_0074535","2","3","11","43","1024.9350462","direct","3","1","4","¿Cuántos presidentes de EEUU
han muerto asesinados?","3","4",,"0","0","1","competitive","left","1.49003601074","1026.42511821","3.50996398926","1030.07463908","3.54556322098","1033.62024117","2.45443677902","1036.10788202","1037.59131908","1037.67621803","1040.67923498","0","1040.69335103","1044.33745599",
"sujeto_0074535","2","3","12","44","1044.49508309","inverse","2","1","4","¿Cuántas veces participó EEUU
 en la copa América?","4","5",,"0","0","1","competitive","left","1.55416107178","1046.04929113","3.44583892822","1049.65128422","4.12990903854","1053.78126502","1.87009096146","1055.68540001","1057.1295011","1057.202636","1060.20561099","0","1060.21985507","1066.33701801",
"sujeto_0074535","2","3","13","45","1066.50514603","direct","4","1","1","¿Cuál de estos países 
no formaba la URSS?","Azeribayán","Afganistán",,"0","0","1","individual",,"1.3440258503","1067.84921408","3.6559741497","1071.66251111","6","1077.66265106","0","1077.67691422","1078.98990607","1079.03038001","1082.03334022","0","1082.04763699","1090.02977419",
"sujeto_0074535","2","3","14","46","1090.18229008","inverse","1","1","1","¿En qué año se inauguró
 el teatro Solís?","1867","1856",,"0","0","0","individual","left","1.96893501282","1092.15130019","3.03106498718","1095.3402822","4.16084694862","1099.501194","1.83915305138","1101.37581921","1102.4312911","1102.4766891","1105.47924519","0","1105.4935801","1112.14140201",
"sujeto_0074535","2","3","15","47","1112.2783742","direct","1","1","4","¿A qué velocidad vuela 
el avión más rápido?","3529","3874",,"0","0","0","competitive","left","1.15585207939","1113.43429208","3.84414792061","1117.41964102","4.49352002144","1121.91322112","1.50647997856","1123.4534502","1125.20897222","1125.28773618","1128.29071522","0","1128.30587316","1130.41613913",
"sujeto_0074535","2","3","16","48","1130.55691719","inverse","3","1","4","¿De qué año es la primer 
película cinematográfica?","1897","1888",,"0","0","0","competitive","right","1.19620513916","1131.75316405","3.80379486084","1135.71135521","5.47779393196","1141.189188","0.522206068039","1141.74711514","1142.88009","1142.96355319","1145.966501","0","1145.98085809","1151.39063001",
"sujeto_0074535","2","3","17","49","1151.5355432","direct","2","1","3","¿Cuántos países 
tiene nuestro planeta?","191","194",,"1","1","1","competitive","right","1.86669206619","1153.40231419","3.13330793381","1156.72272921","4.01340413094","1160.73617315","1.98659586906","1162.77376199","1164.13095403","1164.20859313","1167.21157813","1","1167.22476411","1170.46304202",
"sujeto_0074535","2","3","18","50","1170.59390306","inverse","2","1","2","¿Cuántos habitantes
 tiene Buenos Aires?","2.9000.000","3650000",,"0","0","0","individual","left","1.74427485466","1172.33822012","3.25572514534","1175.74969316","4.36444807053","1180.114182","1.63555192947","1181.80047703","1183.19773722","1183.23403001","1186.23699021","0","1186.25185108","1192.08123708",
"sujeto_0074535","2","3","19","51","1192.22031808","direct","2","1","1","¿Cuántos kilos forman una tonelada?","1000","1500","left","1","1","1","individual","right","1.22290182114","1193.44327402","3.77709817886","1197.35802317","4.37510108948","1201.73316216","1.62489891052","1203.39362001","1205.27929711","1205.32807112","1208.33101106","0","1208.34604907","1214.30343604",
"sujeto_0074535","2","3","20","52","1214.44705319","inverse","4","1","4","¿Cuántos estados tiene la 
República del Perú? ","24","23",,"0","0","1","competitive","left","1.10915017128","1215.55626822","3.89084982872","1219.58799005","4.32207298279","1223.910115","1.67792701721","1225.63950205","1226.66168714","1226.75005817","1229.75302911","0","1229.77450299","1234.71982002",
"sujeto_0074535","2","3","21","53","1234.859236","direct","3","1","3","¿En qué año nació Cristóbal Colón? ","1451","1447",,"0","0","1","competitive","right","1.36299991608","1236.22228003","3.63700008392","1240.01533103","4.18279504776","1244.19816399","1.81720495224","1246.06646419","1247.91237116","1247.98359513","1250.98655701","0","1251.00206614","1255.22728109",
"sujeto_0074535","2","3","22","54","1255.37092519","inverse","4","1","4","¿Cuánto mide la 
Montaña Aconcagua? ","6234","6962",,"0","0","1","competitive","left","1.04018115997","1256.41114807","3.95981884003","1260.52575517","4.64742517471","1265.17324018","1.35257482529","1266.55970001","1267.84901118","1267.92708111","1270.9300251","0","1270.945014","1278.1286602",
"sujeto_0074535","2","3","23","55","1278.26347899","direct","2","1","4","¿Cuánto mide el punto
 más profundo del océano? ","12508","11003",,"0","0","1","competitive","right","1.10569691658","1279.36921906","3.89430308342","1283.40393806","5.03527188301","1288.43928409","0.964728116989","1289.45623708","1290.70727921","1290.790061","1293.79301214","0","1293.80685806","1298.01307106",
"sujeto_0074535","2","3","24","56","1298.14164114","inverse","1","1","3","¿Cuántos álbumes ha publicado 
el cantante Jaime Roos? ","41","34",,"0","0","1","competitive","right","1.60853219032","1299.75021601","3.39146780968","1303.29794312","4.06122493744","1307.35925317","1.93877506256","1309.33267903","1310.82251","1310.90054822","1313.90353012","0","1313.9178431","1320.11399817",
"sujeto_0074535","2","3","25","57","1320.25394917","direct","4","1","3","¿En qué año nació el 
ex-presidente Jorge Battle? ","1921","1927",,"1","1","1","competitive","left","1.68724298477","1321.94125605","3.31275701523","1325.42617702","4.91303110123","1330.3392601","1.08696889877","1331.46053505","1333.19091821","1333.26162219","1336.26332116","1","1336.2788291","1339.76484919",
"sujeto_0074535","2","3","26","58","1339.89725518","inverse","1","1","3","¿Cuántas presidencias 
constitucionales  hubo en Uruguay? ","41","42",,"0","0","1","competitive","right","1.15893697739","1341.05626512","3.84106302261","1345.05331516","4.22980117798","1349.28317499","1.77019882202","1351.104146","1352.30792308","1352.38810515","1355.39106512","0","1355.40496111","1361.18860912",
"sujeto_0074535","2","3","27","59","1361.32342911","direct","1","1","2","¿Quién escribió mas sinfonías?","Mozart","Haydn",,"1","1","0","individual","left","2.24673318863","1363.57020521","2.75326681137","1366.48009419","3.64004516602","1370.12018108","2.35995483398","1372.53190398","1373.74938416","1373.79927921","1376.80224013","1","1376.81652498","1380.56732917",
"sujeto_0074535","2","3","28","60","1380.71809006","inverse","4","1","2","¿En qué año nació Michael Jackson?","1958","1953",,"1","1","1","individual","right","1.56710886955","1382.28524208","3.43289113045","1385.87483907","4.81136798859","1390.68626618","1.18863201141","1391.90824819","1393.8864882","1393.92636609","1396.92933321","1","1396.94344902","1402.80576015",
"sujeto_0074535","2","3","29","61","1402.96171713","direct","3","1","2","¿En qué año entró en vigencia 
la ley antitabaco en Uruguay?","2005","2006",,"1","1","1","individual","left","1.827450037","1404.78923011","3.172549963","1408.13555312","5.09962296486","1413.23522401","0.900377035141","1414.18731904","1415.78201509","1415.82100511","1418.82327199","1","1418.83887911","1424.17289805",
"sujeto_0074535","2","3","30","62","1424.30665421","inverse","3","1","1","¿Cuándo se subió el 
primer video a youtube?","2004","2005",,"0","0","1","individual","left","1.4196331501","1425.72635913","3.5803668499","1429.46285415","3.7513320446","1433.21422505","2.2486679554","1435.51399302","1436.81966615","1436.86474109","1439.86771917","0","1439.88285398","1447.63846421",
"sujeto_0074535","2","3","31","63","1447.79980922","direct","2","1","1","¿Cuántos habitantes tiene India?","1200 millones","1300 millones",,"0","0","0","individual","right","1.25729393959","1449.05714607","3.74270606041","1452.95521116","4.38095593452","1457.33621001","1.61904406548","1459.00788903","1460.97751904","1461.02539921","1464.02835798","0","1464.04234219","1470.08732605",
"sujeto_0074535","2","3","32","64","1470.28076601","inverse","4","1","2","¿A qué edad murió Bob Marley?","36","37",,"0","0","1","individual","right","1.56544208527","1471.84626913","3.43455791473","1475.45314002","3.90202093124","1479.35523415","2.09797906876","1481.50396514","1483.40182114","1483.45585012","1486.4588232","0","1486.47328901","1489.57572699",
"sujeto_0074535","2","4","1","65","1611.12206101","direct","2","1","1","¿Cuantos años dirigió la selección 
uruguaya Tabarez?","15 años","13 años",,"0","0","0","individual","left","1.46014094353","1612.58226705","3.53985905647","1616.25893307","2.98925185204","1619.248245","3.01074814796","1622.30924201","1623.50039315","1623.5443151","1626.54727101","0","1626.56187606","1633.63390708",
"sujeto_0074535","2","4","2","66","1633.76328206","inverse","4","1","1","¿Cuantas teclas tiene un teclado 
de computadora generalmente? ","Entre 99 y 108","Entre 109 y 113",,"1","1","1","individual","right","1.27396702766","1635.03731608","3.72603297234","1638.921067","4.90205407143","1643.82315803","1.09794592857","1644.97173619","1645.97448206","1646.02217603","1649.02511311","1","1649.03926921","1651.41069603",
"sujeto_0074535","2","4","3","67","1651.54080105","direct","1","1","1","¿Cuál Departamento tiene
 mayor superficie?","Río Negro","Soriano",,"0","0","0","individual","left","1.25952601433","1652.80037022","3.74047398567","1656.68022513","5.43099117279","1662.11126113","0.569008827209","1662.73163319","1664.4450891","1664.48198318","1667.48331404","0","1667.49930501","1671.82539415",
"sujeto_0074535","2","4","4","68","1671.96723199","inverse","3","1","2","¿Cuál es el apellido de las 
hermanastras  de  cenicienta?","Tremaine","Truman",,"0","0","1","individual","left","1.78362798691","1673.75094914","3.21637201309","1677.12422919","5.05697607994","1682.18124509","0.943023920059","1683.17313313","1685.04266119","1685.09061408","1688.09361005","0","1688.10836411","1690.8043201",
"sujeto_0074535","2","4","5","69","1690.94258714","direct","4","1","4","¿Cuál película ganó un
 Oscar a mejor película?","Alto Impacto","Cache",,"0","0","1","competitive","left","1.39965415001","1692.34230614","3.60034584999","1696.09962416","5.12557697296","1701.22523999","0.874423027039","1702.13503313","1703.25442219","1703.33538318","1706.33837104","0","1706.35264421","1708.61727214",
"sujeto_0074535","2","4","6","70","1708.75453901","inverse","1","1","3","¿A cuántos centímetros
equivale la medida pié?","25","30",,"0","0","1","competitive","left","1.53773403168","1710.29231906","3.46226596832","1713.909657","4.33459496498","1718.24429417","1.66540503502","1719.96033216","1721.00026202","1721.07820702","1724.08114314","0","1724.09505105","1729.4960382",
"sujeto_0074535","2","4","7","71","1729.63070917","direct","2","1","2","¿Qué departamento es mas grande?","Cerro Largo","Paysandú",,"0","0","0","individual","right","1.62749004364","1731.25824308","3.37250995636","1734.78681707","3.92330980301","1738.71018219","2.07669019699","1740.83599305","1742.43531919","1742.48691201","1745.48987913","0","1745.50430799","1749.61427808",
"sujeto_0074535","2","4","8","72","1749.75617719","inverse","2","1","3","¿Quién pintó la Mona Lisa?","Picasso","Da Vinci","right","0","0","1","competitive","right","1.61605715752","1751.37227607","3.38394284248","1754.91415715","3.30205607414","1758.21627307","2.69794392586","1760.96455121","1762.57038999","1762.64879704","1765.65178919","1","1765.6662271","1767.82854509",
"sujeto_0074535","2","4","9","73","1767.96842909","direct","4","1","3","¿Cuántos litros hay en un galon?","3.54","3.78",,"1","1","1","competitive","left","1.33779621124","1769.30626607","3.66220378876","1773.10212612","4.94409799576","1778.04629207","1.05590200424","1779.137568","1780.65546012","1780.73780608","1783.74079418","1","1783.75578213","1789.54808617",
"sujeto_0074535","2","4","10","74","1789.69033003","inverse","4","1","1","¿Cuántas teclas tiene
 un piano moderno?","80","88",,"0","0","1","individual","right","1.24497294426","1790.93537998","3.75502705574","1794.85105801","4.80217504501","1799.65330219","1.19782495499","1800.90187812","1801.9103291","1801.95221305","1804.95514321","0","1804.96951103","1811.76725817",
"sujeto_0074535","2","4","11","75","1811.90514898","direct","4","1","3","¿Cuántos países hay en África?","54","62",,"0","0","1","competitive","right","1.28412699699","1813.18932009","3.71587300301","1817.05920506","3.38603186607","1820.445297","2.61396813393","1823.11072707","1824.80127811","1824.87932301","1827.88227606","0","1827.89651012","1835.70127606",
"sujeto_0074535","2","4","12","76","1835.83144999","inverse","1","1","3","¿En qué siglo se crearon
 las primeras pistolas?","XV","XIII",,"1","1","1","competitive","right","1.24679398537","1837.07829213","3.75320601463","1840.97492719","4.94029712677","1845.91529202","1.05970287323","1847.00915217","1848.95704603","1849.02600908","1852.02898002","1","1852.044245","1855.27733707",
"sujeto_0074535","2","4","13","77","1855.41241002","direct","3","1","4","¿En qué año se estrenó 
la serie friends?","1994","1995",,"0","0","1","competitive","right","1.12081503868","1856.53327298","3.87918496132","1860.56861901","4.00657010078","1864.57525706","1.99342989922","1866.61943221","1868.49380708","1868.5700891","1871.57305503","0","1871.58706999","1876.59311104",
"sujeto_0074535","2","4","14","78","1876.73875213","inverse","3","1","4","¿En qué año nació Hitler?","1889","1887",,"0","0","1","competitive","right","1.25748896599","1877.99629021","3.74251103401","1881.89510798","4.2890689373","1886.18423319","1.7109310627","1887.94700599","1889.06135416","1889.13089108","1892.13388419","0","1892.14795613","1897.1749661",
"sujeto_0074535","2","4","15","79","1897.31602407","direct","1","1","4","¿Cuánto pesa un elefante Africano?","6000 kilos","5400 kilos",,"0","0","0","competitive","left","1.17013692856","1898.48622108","3.82986307144","1902.4734652","3.85967588425","1906.33318114","2.14032411575","1908.50649619","1909.86240911","1909.94150901","1912.94330502","0","1912.95842719","1919.66549802",
"sujeto_0074535","2","4","16","80","1919.8103652","inverse","1","1","2","¿Qué porcentaje de 
la población es zurda?","10%","7%",,"1","1","0","individual","left","1.55586194992","1921.3662982","3.44413805008","1924.95204616","4.44618701935","1929.39831519","1.55381298065","1930.98601103","1932.22909617","1932.26996017","1935.27294302","1","1935.287256","1941.2670002",
"sujeto_0074535","2","4","17","81","1941.40502405","direct","1","1","2","¿En qué año se estrenó
Volver al futuro?","1984","1985",,"0","0","1","individual","right","1.35123705864","1942.75630713","3.64876294136","1946.5623982","4.33882808685","1950.90128708","1.66117191315","1952.61340618","1954.1751821","1954.21404314","1957.21529102","0","1957.23187017","1964.32330012",
"sujeto_0074535","2","4","18","82","1964.45014119","inverse","3","1","2","¿Cuántos jugadores hay en un 
equipo de baseball?","9","8",,"1","1","0","individual","right","1.47515201569","1965.9253602","3.52484798431","1969.60778618","3.66151404381","1973.26936221","2.33848595619","1975.64111614","1977.25539613","1977.29333711","1980.29628921","1","1980.31039","1985.28762698",
"sujeto_0074535","2","4","19","83","1985.42849422","direct","2","1","1","¿Cuántos Oscar ganó
 la película titanic?","13","11",,"1","1","1","individual","left","0.891705989838","1986.32026911","4.10829401016","1990.5820322","3.49218511581","1994.07427716","2.50781488419","1996.61784816","1997.91928411","1997.96880007","2000.97130799","1","2000.98637915","2005.587322",
"sujeto_0074535","2","4","20","84","2005.73811722","inverse","4","1","4","¿En qué año comenzó
la segunda guerra mundial?","1939","1976","left","0","0","1","individual","left","1.16116094589","2006.89934421","3.83883905411","2010.89461517","2.88155794144","2013.77620912","3.11844205856","2016.9446702","2018.74454021","2018.78022599","2021.78316402","1","2021.79807019","2025.78520012",
"sujeto_0074535","2","4","21","85","2025.9159801","direct","2","1","4","¿Cuántos biomas hay en Uruguay?","5","4",,"0","0","1","competitive","left","1.21028280258","2027.1263082","3.78971719742","2031.05583215","4.1974260807","2035.25329709","1.8025739193","2037.09018207","2038.8875432","2038.95725107","2041.96020508","0","2041.97563314","2048.22505021",
"sujeto_0074535","2","4","22","86","2048.376858","inverse","2","1","3","¿Cuándo murió Pablo Escobar?","1993","1997",,"1","1","1","competitive","right","1.11043596268","2049.48733616","3.88956403732","2053.51690412","3.45133781433","2056.9683032","2.54866218567","2059.56830311","2061.35112309","2061.43624306","2064.43921018","1","2064.45313716","2070.15680814",
"sujeto_0074535","2","4","23","87","2070.28886414","direct","1","1","4","¿Qué serie ha ganado mas premios?","Friends","Murphy Brown",,"1","1","0","competitive","left","1.70440411568","2071.99333215","3.29559588432","2075.42849803","4.27276206017","2079.70132113","1.72723793983","2081.47777414","2082.8301692","2082.91241002","2085.91274619","1","2085.929317","2091.49094009",
"sujeto_0074535","2","4","24","88","2091.63081598","inverse","4","1","2","¿Cuántas fichas tiene el dominó?","26","28",,"1","1","1","individual","left","1.29345607758","2092.92433906","3.70654392242","2096.78996801","3.25626897812","2100.046278","2.74373102188","2102.840482","2103.89529204","2103.9414022","2106.94328713","1","2106.95910001","2112.19928217",
"sujeto_0074535","2","4","25","89","2112.34365511","direct","2","1","4","¿Cuántos son los dientes de leche?","20","25",,"0","0","1","competitive","right","1.18453407288","2113.52824616","3.81546592712","2117.48383808","3.38542103767","2120.86932015","2.61457896233","2123.53414702","2125.24331903","2125.31825709","2128.32121706","0","2128.33605719","2130.48176599",
"sujeto_0074535","2","4","26","90","2130.65466309","inverse","3","1","3","¿Cuántos gramos son una onza?","22","28",,"0","0","1","competitive","right","1.47558689117","2132.13029814","3.52441310883","2135.8100481","4.09620404243","2139.9062922","1.90379595757","2141.84388614","2143.83873916","2143.91104698","2146.91403198","0","2146.92925715","2153.21950507",
"sujeto_0074535","2","4","27","91","2153.36358404","direct","3","1","1","¿Cuándo salió el primer album
 de los Beatles?","1963","1962",,"1","1","1","individual","right","0.980664014816","2154.34429002","4.01933598518","2158.5188601","3.75443983078","2162.27333999","2.24556016922","2164.5716331","2165.73523617","2165.77267909","2168.77565002","1","2168.79015112","2172.56215405",
"sujeto_0074535","2","4","28","92","2172.69165206","inverse","3","1","3","¿Quién fundó la empresa apple?","Carlos Slim","Steve Jobs",,"1","1","1","competitive","right","1.05463695526","2173.7463522","3.94536304474","2177.83136606","2.70688199997","2180.538311","3.29311800003","2183.88211417","2184.996773","2185.06642008","2188.06940317","1","2188.08358002","2194.38144207",
"sujeto_0074535","2","4","29","93","2194.53488421","direct","4","1","2","¿Cuántos municipios hay
 en Montevideo?","8","7",,"1","1","1","individual","left","1.93048596382","2196.46544099","3.06951403618","2199.69259501","3.13871097565","2202.83134913","2.86128902435","2205.74289918","2207.657691","2207.6943562","2210.69728708","1","2210.71230412","2212.793437",
"sujeto_0074535","2","4","30","94","2212.93008804","inverse","1","1","1","¿Cuántos kilómetros hay
 de Montevideo a Artigas?","632","599",,"0","0","0","individual","left","1.30918192863","2214.23933721","3.69081807137","2218.0854671","3.97977685928","2222.06531","2.02022314072","2224.13577414","2225.61889505","2225.65427613","2228.65528607","0","2228.67170501","2234.72381806",
"sujeto_0074535","2","4","31","95","2234.85651422","direct","2","1","2","¿En qué año nació 
Leonardo Da Vinci?","1452","1511",,"1","1","0","individual","left","1.08379912376","2235.94035721","3.91620087624","2240.01300812","3.64717507362","2243.6602242","2.35282492638","2246.04741621","2247.90102816","2247.94858408","2250.951298","1","2250.96631503","2254.11273813",
"sujeto_0074535","2","4","32","96","2254.25146508","inverse","3","1","1","¿A qué continente
 pertenece el país Gabón?","Africa","Oceanía",,"0","0","1","individual","left","1.08483791351","2255.33636808","3.91516208649","2259.40644121","4.01886701584","2263.425349","1.98113298416","2265.45810008","2267.26977801","2267.30826807","2270.31121421","0","2270.32582116","2275.56374121",
