"code","nro_aplicante","nro_bloque","nro_trial_bloque","nro_trial_global","show_game_type","choice_order","rival","pay_individual","pay_competitive","question","answer_left_text","answer_right_text","correct_answer","outcome_individual","outcome_competitive","outcome_rival","game_type","answer","social_time","rt_game_type","feedback_delay","show_question","answer_time","rt_answer_global","feedback_delay_2","show_jitter","jitter_time","show_outcome","outcome_time","outcome_participant_real","show_final_jitter","second_jitter_time","inicio_descanso"
"sujeto_0068784","1","1","1","1","719.143882036","direct","3","1","4","¿Cuántos centímetros corresponden
al talle 36 del calzado?","23","24","","0","0","1","competitive","right","1.53486680984","720.678813934","3.46513319016","724.284781933","4.66401696205","728.948842049","1.33598303795","730.333990097","731.362277031","731.434363127","734.437334061","0","734.45144105","736.612092972",""
"sujeto_0068784","1","1","2","2","736.770657063","inverse","3","1","2","¿Cuántas metros mide la Intendencia
Municipal de Montevideo? ","84","78","","0","0","1","competitive","left","3.8151679039","740.585891008","1.1848320961","741.926804066","5.40994286537","747.336812019","0.590057134628","747.96232605","749.840371132","749.912883043","752.915841103","0","752.929924011","755.02264905",""
"sujeto_0068784","1","1","3","3","755.165215015","direct","1","1","3","¿Cuántas La Pasiva
 hay en uruguay?","15","11","","1","1","1","competitive","left","1.24767303467","756.412936926","3.75232696533","760.33631897","3.81539797783","764.151781082","2.18460202217","766.386949062","767.998574972","768.071557045","771.074537039","1","771.089628935","775.367959976",""
"sujeto_0068784","1","1","4","4","775.505963087","inverse","3","1","3","¿De que color es la camiseta de uruguay?","blanca","celeste","right","1","1","1","competitive","right","1.31087398529","776.816899061","3.68912601471","780.660854101","4.50292611122","785.163820982","1.49707388878","786.713365078","787.918039083","787.99774003","791.000656128","1","791.014742136","794.468080044",""
"sujeto_0068784","1","1","5","5","794.602015018","direct","2","1","1","¿Cuánto metros mide
la torre Eiffel?","333","324","","1","1","1","competitive","right","1.20983886719","795.811922073","3.79016113281","799.756693125","4.13112306595","803.887877941","1.86887693405","805.789871931","807.311252117","807.391392946","810.392107964","1","810.409291029","817.445994139",""
"sujeto_0068784","1","1","6","6","817.58120513","inverse","3","1","4","¿Cuantas ciudades existen
 en todo el uruguay?","63","72","","0","0","1","competitive","left","1.38362407684","818.964898109","3.61637592316","822.735146999","4.76468706131","827.499874115","1.23531293869","828.786275148","829.841088057","829.920498133","832.923485994","0","832.937376976","840.558797121",""
"sujeto_0068784","1","1","7","7","840.690184116","direct","1","1","1","¿Cuantos estados tiene África?","52","54","","1","1","0","competitive","left","1.34660100937","842.036847115","3.65339899063","845.846922159","4.49590611458","850.342890024","1.50409388542","851.881803989","853.745808125","853.816074133","856.819025993","1","856.832926989","862.593950033",""
"sujeto_0068784","1","1","8","8","862.735049009","inverse","4","1","4","¿En qué año nació
 Stephen Hawking?","1952","1942","","0","0","1","competitive","right","1.24975395203","863.984861135","3.75024604797","867.888958931","4.91387701035","872.802876949","1.08612298965","873.924782038","875.369092941","875.442811012","878.445760965","0","878.459927082","884.559304953",""
"sujeto_0068784","1","1","9","9","884.697757959","direct","2","1","3","¿Cuánto años tenía Artigas
 cuando se fue a Paraguay?","56","57","","1","1","1","competitive","left","1.81997990608","886.517801046","3.18002009392","889.853886127","4.62091517448","894.474839926","1.37908482552","895.904397011","897.453845978","897.538223982","900.540056944","1","900.556107998","906.600057125",""
"sujeto_0068784","1","1","10","10","906.743381977","inverse","1","1","2","¿Cuantos milímetros 
mide una hoja A2?","420x592","420x594","","0","0","1","competitive","right","1.17650103569","907.919952154","3.82349896431","911.881217003","5.56361794472","917.444875002","0.436382055283","917.93236208","919.500060081","919.582700014","922.585696936","0","922.600888014","929.672062159",""
"sujeto_0068784","1","1","11","11","929.805700064","direct","3","1","3","¿Cuál es la menor temperatura 
registrada en Uruguay?","-5.4","-7.4","","0","0","1","competitive","left","1.02421283722","930.829982042","3.97578716278","934.943328142","4.68651914597","939.629889011","1.31348085403","940.994878054","942.676877975","942.761271954","945.764055967","0","945.77895093","949.512062073",""
"sujeto_0068784","1","1","12","12","949.692207098","inverse","2","1","2","¿Cuantos años hace que 
se fundó facebook?","18","17","","0","0","0","competitive","left","1.23473715782","950.926986933","3.76526284218","954.853285074","4.05063009262","958.903988123","1.94936990738","960.90455699","962.277285099","962.355520964","965.358497143","0","965.37255311","968.147161007",""
"sujeto_0068784","1","1","13","13","968.290786028","direct","1","1","4","¿Cuál animal es más
 pesado en promedio?","Rinoceronte","Hipopotamo","","0","0","0","competitive","","1.18911385536","969.479980946","3.81088614464","973.479542971","6","979.479679108","0","979.495183945","980.574425936","980.64853096","983.651518106","0","983.66475296","987.505742073",""
"sujeto_0068784","1","1","14","14","987.635399103","inverse","1","1","2","¿Qué personaje de dragon ball 
murió más veces?","Chaoz","Krillin","","1","1","0","competitive","left","2.40752911568","990.042971134","2.59247088432","992.804919958","3.78191590309","996.586874962","2.21808409691","998.840470076","1000.29826307","1000.37512612","1003.37807703","1","1003.39216495","1011.16505599",""
"sujeto_0068784","1","1","15","15","1011.29418492","direct","3","1","2","La universidad de oxford. 
existe desde:","1096","1249","","1","1","0","competitive","left","1.10076498985","1012.39501095","3.89923501015","1016.45153499","4.21036505699","1020.66196108","1.78963494301","1022.48649907","1023.53529906","1023.60325813","1026.60563803","1","1026.62053609","1033.31139803",""
"sujeto_0068784","1","1","16","16","1033.45507812","inverse","3","1","1","¿Qué escritor latino ganó antes
 el premio nobel?"," García Marquez","Neruda","","0","0","1","competitive","left","1.17181897163","1034.62695909","3.82818102837","1038.60996199","3.61294007301","1042.22297001","2.38705992699","1044.66208911","1046.40208912","1046.48084593","1049.48377705","0","1049.49782896","1052.95834112",""
"sujeto_0068784","1","1","17","17","1053.10086203","direct","4","1","3","¿Cuántos dientes tiene un
 tiburón blanco?","6000","3000","","0","0","1","competitive","right","2.98712706566","1056.08807302","2.01287293434","1058.26958203","4.91234087944","1063.18197012","1.08765912056","1064.30852413","1065.34753513","1065.42478204","1068.42774796","0","1068.4419241","1073.25159907",""
"sujeto_0068784","1","1","18","18","1073.37762809","inverse","4","1","1","¿Cuánto mide el paralelo Ecuador?","40.000km","70.000km","","0","0","1","competitive","right","1.52228999138","1074.89997005","3.47771000862","1078.53381395","4.46415305138","1082.99800897","1.53584694862","1084.58499908","1086.54005504","1086.61865807","1089.62164593","0","1089.63668013","1093.23924303",""
"sujeto_0068784","1","1","19","19","1093.38755703","direct","4","1","2","¿Cuál fue el primer libro 
de Stephen King?","Carrie","The Stand","","1","1","1","competitive","left","1.41244101524","1094.80006909","3.58755898476","1098.54483104","4.04109787941","1102.585989","1.95890212059","1104.57786393","1106.32193899","1106.39540696","1109.39837909","1","1109.41330004","1113.88774109",""
"sujeto_0068784","1","1","20","20","1114.03497195","inverse","2","1","3","¿Qué civilización practicaba
 la momificación?","Grecia","Egipto","right","0","0","1","competitive","right","1.24601888657","1115.28106213","3.75398111343","1119.18767214","4.44033193588","1123.62806511","1.55966806412","1125.22244811","1127.16007304","1127.24037099","1130.24335194","1","1130.25736904","1134.48616409",""
"sujeto_0068784","1","1","21","21","1134.62773705","direct","4","1","4","¿Cuántos millones de visitas
 recibe google por minuto?","3.0","4.5","","0","0","1","competitive","left","0.978333950043","1135.60612798","4.02166604996","1139.78202605","4.41690587997","1144.19896793","1.58309412003","1145.83346105","1147.34834599","1147.43373203","1150.43673706","0","1150.45087504","1157.57355404",""
"sujeto_0068784","1","1","22","22","1157.72303915","inverse","1","1","3","La máquina de fax. se inventó en:","1843","1960","","0","0","1","competitive","right","1.65797400475","1159.38108516","3.34202599525","1162.87772608","4.99434900284","1167.872118","1.00565099716","1168.91227198","1170.15438914","1170.22878599","1173.23176098","0","1173.24675512","1176.48305702",""
"sujeto_0068784","1","1","23","23","1176.62971497","direct","2","1","4","En la verdadera historia de los
 300 espartanos. habían:","300 soldados","4300 soldados","","1","1","1","competitive","left","1.29437088966","1177.92412996","3.70562911034","1181.78525805","4.7036678791","1186.48898196","1.2963321209","1187.83815098","1189.0993731","1189.17210007","1192.17508006","1","1192.18903613","1195.99080014",""
"sujeto_0068784","1","1","24","24","1196.12430811","inverse","1","1","4","¿Cuántos milímetros crece
 el pelo por día?","0.4","0.04","","0","0","0","competitive","left","0.933721065521","1197.05809212","4.06627893448","1201.28061199","4.03639507294","1205.3170681","1.96360492706","1207.33152509","1209.09223509","1209.16547203","1212.16806912","0","1212.18317294","1218.91609001",""
"sujeto_0068784","1","1","25","25","1219.05478096","direct","4","1","1","¿Cuánto mide la baldosa gris 
clásica de Montevideo?","22x22 cm.","20x20 cm.","","1","1","1","competitive","","1.11028003693","1220.16513395","3.88971996307","1224.20902205","6","1230.20914292","0","1230.22451711","1232.21977901","1232.29384708","1235.29683614","0","1235.3120451","1240.85485411",""
"sujeto_0068784","1","1","26","26","1240.99772811","inverse","2","1","2","¿Cuántas películas de rápidos
 y furiosos hay?","10","11","","1","1","0","competitive","left","1.13835406303","1242.13614511","3.86164593697","1246.13628006","3.96976685524","1250.10610914","2.03023314476","1252.18744397","1253.54546404","1253.62145805","1256.62409997","1","1256.63860607","1258.67331004",""
"sujeto_0068784","1","1","27","27","1258.80753613","direct","3","1","1","¿Cuántos masters 1000
 ganó Del Potro?","1","2","","1","1","1","competitive","right","1.18248319626","1259.99006796","3.81751680374","1263.96258116","3.99944210052","1267.96208215","2.00055789948","1270.01358509","1271.76818204","1271.84760213","1274.85057998","1","1274.86539793","1282.26171899",""
"sujeto_0068784","1","1","28","28","1282.39941216","inverse","2","1","4","¿Cuántos meses dura el 
embarazo de una leona?","3 meses","4 meses","","0","0","1","competitive","right","1.1347079277","1283.5341661","3.8652920723","1287.55729198","5.26976394653","1292.82712698","0.730236053467","1293.60936093","1294.7200501","1294.79347301","1297.79645395","0","1297.81052804","1304.53298807",""
"sujeto_0068784","1","1","29","29","1304.69613504","direct","1","1","1","¿En qué año fue creado
 el sandwich?","1762","1653","","1","1","0","competitive","left","0.979481935501","1305.675668","4.0205180645","1309.85291696","4.36405992508","1314.21701694","1.63594007492","1315.90327406","1317.50181508","1317.57100296","1320.57395697","1","1320.58928609","1324.05989504",""
"sujeto_0068784","1","1","30","30","1324.20740008","inverse","4","1","2","El nombre de la moneda de Vietnam es:","Dinar","Dong","","0","0","1","competitive","left","1.0886900425","1325.29616714","3.9113099575","1329.34610415","4.4239859581","1333.77013707","1.5760140419","1335.38061309","1336.81260514","1336.898","1339.90095115","0","1339.91488099","1346.08086514",""
"sujeto_0068784","1","1","31","31","1346.219414","direct","2","1","1","¿cuantos aleteos puede dar 
un colibrí por segundo?","120","50","","0","0","0","competitive","left","1.39468789101","1347.61417103","3.60531210899","1351.37425399","5.14172196388","1356.51602006","0.858278036118","1357.40791106","1359.14030099","1359.22491002","1362.22789097","0","1362.24277997","1366.45503998",""
"sujeto_0068784","1","1","32","32","1366.59383512","inverse","4","1","3","¿Qué altura promedio tienen
 los hombres uruguayos?","1.73 m","1.72 m","","1","1","1","individual","left","0.89427614212","1367.48816204","4.10572385788","1371.75113511","4.51296901703","1376.26414704","1.48703098297","1377.80177212","1379.0640521","1379.10281515","1382.10406899","1","1382.12026596","1386.59620714",""
"sujeto_0068784","1","2","1","33","1524.16040206","direct","1","1","1","¿En qué año nació 
el actor Bradd Pitt?","1967","1963","","1","1","1","competitive","left","1.55976891518","1525.72024107","3.44023108482","1529.31588197","3.19126582146","1532.50718498","2.80873417854","1535.36651707","1536.46238112","1536.53473306","1539.537709","1","1539.55170512","1545.47607493","1386.61174393"
"sujeto_0068784","1","2","2","34","1545.61970806","inverse","2","1","1","¿Cual es el segundo 
monte más alto?","Kanchenjunga","K2","","1","1","1","competitive","left","1.56746602058","1547.18721604","3.43253397942","1550.7769711","3.77514910698","1554.55216098","2.22485089302","1556.80974698","1558.26215005","1558.34453893","1561.34752202","1","1561.36160493","1564.79150796",""
"sujeto_0068784","1","2","3","35","1564.94706392","direct","3","1","1","¿Cuándo finalizó la construcción
 del Palacio Legislativo?","1925","1917","","0","0","1","competitive","left","1.18518185616","1566.13229203","3.81481814384","1570.103719","4.40143299103","1574.50518894","1.59856700897","1576.15452909","1577.79620004","1577.87186503","1580.87208796","0","1580.88921404","1586.5867691",""
"sujeto_0068784","1","2","4","36","1586.76045203","inverse","3","1","3","¿Cuántos integrantes tenía
 en su inicio  el cuarteto de nos?","3","4","","1","1","1","competitive","right","1.26384782791","1588.02434802","3.73615217209","1591.91418195","5.03802490234","1596.95226693","0.961975097656","1597.96591997","1599.09902406","1599.18317795","1602.18613005","1","1602.20045114","1607.85027099",""
"sujeto_0068784","1","2","5","37","1607.98823905","direct","2","1","3","¿Qué valor tiene el número pi?","3.14","4.18","left","0","0","1","competitive","left","1.10993313789","1609.09823108","3.89006686211","1613.14226794","5.08399796486","1618.22630906","0.916002035141","1619.19384003","1620.64804506","1620.72754002","1623.73052502","1","1623.74478292","1630.66576505",""
"sujeto_0068784","1","2","6","38","1630.81588101","inverse","2","1","2","¿Cuál es la esperanza de vida
 en Uruguay?","75","77","","1","1","0","competitive","right","1.04337787628","1631.85930395","3.95662212372","1635.95264411","4.52358198166","1640.47627211","1.47641801834","1641.98801398","1643.64182997","1643.72225308","1646.72407007","1","1646.73991013","1653.20003915",""
"sujeto_0068784","1","2","7","39","1653.34140205","direct","1","1","2","¿Cuantos pisos tiene la torre 
de las comunicaciones?","26","32","","1","1","0","competitive","left","1.16478681564","1654.5062511","3.83521318436","1658.49633503","5.10692501068","1663.60330105","0.893074989319","1664.531811","1666.36059809","1666.43277693","1669.43575096","1","1669.44987011","1671.59607315",""
"sujeto_0068784","1","2","8","40","1671.73513699","inverse","2","1","4","¿En qué país sudamericano 
no hay McDonalds?","Bolivia","Venezuela","","0","0","1","competitive","right","1.33712792397","1673.07231307","3.66287207603","1676.90829396","3.76394701004","1680.67228007","2.23605298996","1682.95890307","1684.26805902","1684.34372497","1687.34670615","0","1687.36124301","1693.72096014",""
"sujeto_0068784","1","2","9","41","1693.86550808","direct","3","1","1","¿En qué año empieza
 la Edad Media?","476","512","","1","1","1","competitive","right","0.982734203339","1694.84828901","4.01726579666","1699.0200181","5.06116890907","1704.08123994","0.938831090927","1705.05473995","1706.45848513","1706.53866005","1709.54010415","1","1709.55609393","1712.54465008",""
"sujeto_0068784","1","2","10","42","1712.67555308","inverse","3","1","4","¿Hace cuántos años surgió
 el ser humano?","200mil","300mil","","0","0","0","competitive","right","1.04672598839","1713.72234797","3.95327401161","1717.82632899","4.86694097519","1722.69331193","1.13305902481","1723.87994313","1725.76601911","1725.84674811","1728.84813094","0","1728.864326","1732.17480111",""
"sujeto_0068784","1","2","11","43","1732.31734896","direct","3","1","4","¿Cuántas cuadras tiene
 actualmente 18 de julio? ","36","33","","0","0","1","competitive","right","1.10098695755","1733.41838002","3.89901304245","1737.47336507","4.87189698219","1742.34530306","1.12810301781","1743.52434492","1745.22660899","1745.30844903","1748.31142998","0","1748.32564306","1753.05192614",""
"sujeto_0068784","1","2","12","44","1753.19504404","inverse","1","1","4","¿Qué juego de equipo se 
considera mas rápido?","Lacrosse","Badminton","","0","0","0","competitive","left","1.07624387741","1754.2713511","3.92375612259","1758.3333981","5.68683004379","1764.02028108","0.313169956207","1764.38580894","1765.62892008","1765.71857095","1768.72156215","0","1768.73656201","1776.72808695",""
"sujeto_0068784","1","2","13","45","1776.87122011","direct","1","1","3","¿Qué promedio de edad 
vive una jirafa? ","25","20","","0","0","1","competitive","right","1.42510414124","1778.29637504","3.57489585876","1782.01284003","5.16146802902","1787.17437005","0.838531970978","1788.04778814","1789.80930495","1789.88061714","1792.88360095","0","1792.89854908","1798.85424805",""
"sujeto_0068784","1","2","14","46","1799.00010514","inverse","1","1","2","¿Cuántos grandes lagos hay?","7","5","","0","0","1","competitive","left","1.5131919384","1800.51336598","3.4868080616","1804.14139509","4.84693312645","1808.98836708","1.15306687355","1810.19028306","1811.4824481","1811.55729294","1814.56010103","0","1814.57421708","1822.39559197",""
"sujeto_0068784","1","2","15","47","1822.56330395","direct","3","1","2","¿Cuántos discos de estudio
 grabó Johhny Cash? ","54","43","","1","1","0","competitive","right","1.54794788361","1824.11131907","3.45205211639","1827.71952295","5.27379202843","1832.99336004","0.726207971573","1833.75423312","1835.03208899","1835.10404801","1838.10702801","1","1838.12230611","1844.77319098",""
"sujeto_0068784","1","2","16","48","1844.92691803","inverse","4","1","1","¿Cuántos barrios tiene
 Montevideo? ","71","62","","0","0","1","competitive","right","1.49048399925","1846.41744709","3.50951600075","1850.06493402","4.76838183403","1854.83337498","1.23161816597","1856.11617112","1857.12319899","1857.19941306","1860.20239615","0","1860.21662712","1865.67610312",""
"sujeto_0068784","1","2","17","49","1865.8503561","direct","3","1","3","¿Qué edad tiene Homero Simpson?","36","42","","0","0","1","competitive","left","2.15800905228","1868.00843","2.84199094772","1871.00858212","3.65872812271","1874.66737604","2.34127187729","1877.05999994","1878.43604612","1878.51016498","1881.51316309","0","1881.52851105","1885.91723394",""
"sujeto_0068784","1","2","18","50","1886.08066893","inverse","4","1","2","¿Cuántos países con monarquía 
hay en europa actualmente? ","6","10","","1","1","1","competitive","right","2.03170490265","1888.11242604","2.96829509735","1891.2495811","5.4327890873","1896.6824131","0.567210912704","1897.30162001","1898.73993897","1898.81923199","1901.82219911","1","1901.8363471","1907.99211311",""
"sujeto_0068784","1","2","19","51","1908.14170194","direct","2","1","3","¿Cuántos capítulos de
 Friends existen? ","236","228","","1","1","1","competitive","right","2.30066108704","1910.44241405","2.69933891296","1913.29675007","5.82554316521","1919.12233114","0.174456834793","1919.33060312","1920.63617802","1920.71286798","1923.71584892","1","1923.73048115","1926.10612798",""
"sujeto_0068784","1","2","20","52","1926.25029206","inverse","1","1","3","¿Cuántas óperas compuso Mozart? ","27","22","","1","1","1","competitive","right","2.00311613083","1928.25350499","2.99688386917","1931.40668392","5.61463713646","1937.02138615","0.385362863541","1937.44200993","1938.73417115","1938.80805802","1941.81103802","1","1941.82526612","1949.13674498",""
"sujeto_0068784","1","2","21","53","1949.27652097","direct","4","1","3","¿Cuántos mundiales de fútbol 
femenino ha realizado FIFA? ","9","7","","1","1","1","competitive","right","1.73591995239","1951.01251101","3.26408004761","1954.43493509","5.64449715614","1960.07949495","0.355502843857","1960.46937799","1961.71309614","1961.78648996","1964.78947902","1","1964.80349708","1970.90596414",""
"sujeto_0068784","1","2","22","54","1971.03984213","inverse","3","1","2","¿Cuál es la temperatura 
media anual en Montevideo? ","17.5","16.3","","0","0","1","competitive","right","1.79756808281","1972.83748102","3.20243191719","1976.19659996","5.3747048378","1981.57136297","0.625295162201","1982.23106813","1984.16908002","1984.24780393","1987.24810696","0","1987.26543212","1993.83489895",""
"sujeto_0068784","1","2","23","55","1993.98339105","direct","2","1","2","¿En qué año se estrenó el
 videojuego The Sims? ","2000","2002","","0","0","0","individual","left","2.02805089951","1996.01150608","2.97194910049","1999.13831496","4.62014889717","2003.75850415","1.37985110283","2005.19256306","2007.05458713","2007.09309196","2010.0960381","0","2010.1111691","2017.50482297",""
"sujeto_0068784","1","2","24","56","2017.64559293","inverse","2","1","1","¿Cuál es la canción con 
mas covers? ","Yesterday","Stand by me","","0","0","0","competitive","right","2.71483492851","2020.36047602","2.28516507149","2022.80022216","5.14920306206","2027.94949508","0.850796937943","2028.8381741","2030.23673797","2030.32223105","2033.32521796","0","2033.33938408","2037.5102241",""
"sujeto_0068784","1","2","25","57","2037.64116406","direct","1","1","4","¿Cuánto duró la guerra
 de los 100 años?","116","123","","0","0","0","competitive","left","1.90630888939","2039.54753613","3.09369111061","2042.81408596","5.69435191154","2048.50848103","0.305648088455","2048.84835696","2050.32810211","2050.39915705","2053.4021461","0","2053.41624093","2055.736027",""
"sujeto_0068784","1","2","26","58","2055.86764193","inverse","4","1","4","¿Qué color tiene la  bandera de Brasil?","Amarillo","Naranja","left","0","0","1","competitive","left","1.19877696037","2057.06648493","3.80122303963","2061.02308011","4.73536491394","2065.75851107","1.26463508606","2067.07423115","2068.64075804","2068.72463107","2071.72760606","1","2071.74260592","2074.775383",""
"sujeto_0068784","1","2","27","59","2074.91062498","direct","4","1","3","¿Qué carabela de 
Colon no volvió del viaje?","Santa María","La pinta","","0","0","1","competitive","left","1.90990185738","2076.82058215","3.09009814262","2080.08325505","5.21417617798","2085.29746914","0.785823822021","2086.13408303","2087.62511396","2087.70076108","2090.70374703","0","2090.71897411","2092.81841803",""
"sujeto_0068784","1","2","28","60","2092.97147012","inverse","4","1","4","¿Cuántos huesos tiene
 un adulto humano?","217","206","","0","0","1","competitive","left","2.16004896164","2095.13156605","2.83995103836","2098.12576199","5.59871292114","2103.72453594","0.401287078857","2104.17729211","2105.44830799","2105.52738214","2108.52814507","0","2108.54506207","2116.38271904",""
"sujeto_0068784","1","2","29","61","2116.53031111","direct","1","1","1","¿Qué país africano fue 
fundado por esclavos?","Liberia","Chad","","0","0","0","competitive","right","1.86218309402","2118.39254093","3.13781690598","2121.704","5.60648679733","2127.31052613","0.393513202667","2127.73927498","2129.7309351","2129.80556798","2132.80805802","0","2132.824157","2140.81210303",""
"sujeto_0068784","1","2","30","62","2140.95879292","inverse","4","1","2","¿A cuánto asciende la cima
 del monte Everest?","7.990 mts","8.848 mts","","0","0","1","competitive","left","2.48273205757","2143.44158912","2.51726794243","2146.11528301","5.45416402817","2151.56950307","0.545835971832","2152.168957","2153.35375404","2153.43600893","2156.43899393","0","2156.45294595","2163.63605404",""
"sujeto_0068784","1","2","31","63","2163.78754902","direct","4","1","1","¿Cuál es el país mas chico?","Sealand","Luxemburgo","","1","1","1","individual","left","2.12998819351","2165.91759896","2.87001180649","2168.95735502","4.30815601349","2173.26557803","1.69184398651","2174.99544716","2176.85896301","2176.89652896","2179.89948201","1","2179.91359901","2183.03589296",""
"sujeto_0068784","1","2","32","64","2183.16507006","inverse","2","1","4","¿Cuántas pirámides hay en Egipto?","10000","11000","","1","1","1","competitive","right","1.69442081451","2184.85953903","3.30557918549","2188.32193112","4.03760194778","2192.35959315","1.96239805222","2194.37274194","2195.40636301","2195.47408104","2198.47706914","1","2198.49118805","2203.600281",""
"sujeto_0068784","1","3","1","65","2345.23516893","direct","2","1","2","¿Cuál es el quinto país con 
mas extensión?","Canadá","Brasil","","1","1","0","competitive","left","2.05987405777","2347.29511499","2.94012594223","2350.42010307","3.92647600174","2354.34663796","2.07352399826","2356.45331812","2357.78656793","2357.85630012","2360.85928893","1","2360.87333107","2368.59967804","2203.61530709"
"sujeto_0068784","1","3","2","66","2368.72462416","inverse","1","1","2","¿Qué rasgo facial no tiene
 la Mona Lisa?","Cejas","Pómulos","","0","0","1","competitive","right","1.74996113777","2370.47462797","3.25003886223","2373.8839221","4.02669000626","2377.910671","1.97330999374","2379.91865802","2381.66806602","2381.75328803","2384.75627804","0","2384.77026296","2391.0401001",""
"sujeto_0068784","1","3","3","67","2391.17165494","direct","4","1","3","¿Cuál es el país con 
mayor población?","Esados Unidos","China","right","0","0","1","competitive","right","1.97402501106","2393.14575315","3.02597498894","2396.32952213","4.79111194611","2401.12069297","1.20888805389","2402.38039804","2404.026402","2404.09763598","2407.10005999","1","2407.11511302","2410.48246408",""
"sujeto_0068784","1","3","4","68","2410.61739397","inverse","1","1","1","La palabra dinosaurio significa","Lagarto Terrible","Lagarto Dragón","","1","1","0","individual","left","2.2533788681","2412.87081909","2.7466211319","2415.80406594","5.4635219574","2421.26764703","0.536478042603","2421.84110904","2423.01144004","2423.05778813","2426.06007409","1","2426.07512808","2428.93693614",""
"sujeto_0068784","1","3","5","69","2429.11164498","direct","2","1","3","¿Qué es el membrillero?","Arbol","Arbusto","","0","0","0","competitive","right","1.19696688652","2430.30867505","3.80303311348","2434.26512408","4.02853298187","2438.293715","1.97146701813","2440.29941797","2442.25209403","2442.33378816","2445.33677197","0","2445.35169315","2451.81572008",""
"sujeto_0068784","1","3","6","70","2451.98730111","inverse","3","1","3","¿Alrededor de qué planeta orbita 
el satélite Europa?","Jupiter","Saturno","","1","1","1","competitive","right","1.93340706825","2453.92078209","3.06659293175","2457.16028309","5.62631106377","2462.78665805","0.373688936234","2463.19565797","2464.74047112","2464.81275415","2467.81571913","1","2467.82993603","2470.03510594",""
"sujeto_0068784","1","3","7","71","2470.18183613","direct","3","1","1","¿Donde fue el mundial de 
fútbol de 1954?","Suiza","Suecia","","1","1","1","competitive","left","1.84987902641","2472.03175998","3.15012097359","2475.35367703","4.95395898819","2480.30767512","1.04604101181","2481.40410399","2482.65671897","2482.73885393","2485.741822","1","2485.75595307","2489.66774392",""
"sujeto_0068784","1","3","8","72","2489.80745697","inverse","1","1","4","¿Cuál de los 7 enanitos
no tenía barba?","Bashful","Mudito","","1","1","0","competitive","right","1.4352440834","2491.24274993","3.5647559166","2494.96304107","4.59267401695","2499.55577612","1.40732598305","2500.99725413","2502.57603312","2502.64865398","2505.65158606","1","2505.66551709","2510.5945611",""
"sujeto_0068784","1","3","9","73","2510.75078893","direct","3","1","2","¿Cual red social es
mas utilizada mundialmente?","Instagram","Facebook","","1","1","0","competitive","right","1.17393708229","2511.92479396","3.82606291771","2515.89051294","4.7941608429","2520.68471313","1.2058391571","2521.94200516","2523.85939193","2523.94233203","2526.94531298","1","2526.96026611","2529.89476013",""
"sujeto_0068784","1","3","10","74","2530.04528308","inverse","4","1","1","¿Cuándo se inició la copa
 América de fútbol?","1916","1923","","1","1","1","competitive","right","1.65143799782","2531.69676399","3.34856200218","2535.20056295","4.59419894218","2539.7948041","1.40580105782","2541.23479795","2543.13224006","2543.20243907","2546.20541906","1","2546.21955609","2548.87565112",""
"sujeto_0068784","1","3","11","75","2549.02131295","direct","3","1","4","¿Cuántos presidentes de EEUU
han muerto asesinados?","3","4","","0","0","1","competitive","left","1.10133504868","2550.12268615","3.89866495132","2554.17697716","5.45877194405","2559.63581204","0.541228055954","2560.2125411","2561.69649196","2561.77925301","2564.78224301","0","2564.79672813","2568.44079304",""
"sujeto_0068784","1","3","12","76","2568.59756494","inverse","2","1","4","¿Cuántas veces participó EEUU
 en la copa América?","4","5","","0","0","1","competitive","right","1.74807405472","2570.34567809","3.25192594528","2573.75441408","4.32728409767","2578.08175802","1.67271590233","2579.78832603","2581.23243308","2581.30590606","2584.30888915","0","2584.32303095","2590.44021893",""
"sujeto_0068784","1","3","13","77","2590.59147906","direct","4","1","1","¿Cuál de estos países 
no formaba la URSS?","Azeribayán","Afganistán","","0","0","1","individual","right","1.70231699944","2592.29386115","3.29768300056","2595.74865794","5.33702611923","2601.085742","0.662973880768","2601.80012202","2603.11205697","2603.15074396","2606.15365314","0","2606.16755795","2614.14968395",""
"sujeto_0068784","1","3","14","78","2614.28618908","inverse","1","1","1","¿En qué año se inauguró
 el teatro Solís?","1867","1856","","0","0","0","competitive","left","1.85557699203","2616.14181209","3.14442300797","2619.44375515","4.57902908325","2624.02284312","1.42097091675","2625.47878599","2626.53511095","2626.61176515","2629.61469793","0","2629.62991714","2636.27770114",""
"sujeto_0068784","1","3","15","79","2636.41484094","direct","1","1","4","¿A qué velocidad vuela 
el avión más rápido?","3529","3874","","0","0","0","competitive","right","2.03092193604","2638.44580698","2.96907806396","2641.57067394","5.13106608391","2646.70180202","0.868933916092","2647.60689211","2649.36242414","2649.441154","2652.444134","0","2652.45828295","2654.56856799",""
"sujeto_0068784","1","3","16","80","2654.70970011","inverse","3","1","4","¿De qué año es la primer 
película cinematográfica?","1897","1888","","0","0","0","competitive","right","1.63902592659","2656.34877396","3.36097407341","2659.86487913","5.91483807564","2665.77975607","0.0851619243622","2665.91689801","2667.04985714","2667.13331294","2670.13630009","0","2670.15023708","2675.56002212",""
"sujeto_0068784","1","3","17","81","2675.70222902","direct","2","1","3","¿Cuántos países 
tiene nuestro planeta?","191","194","","1","1","1","competitive","right","2.0765478611","2677.77884412","2.9234521389","2680.8587091","4.19711613655","2685.05589414","1.80288386345","2686.89369893","2688.25092793","2688.32753015","2691.32809305","1","2691.34512711","2694.58342505",""
"sujeto_0068784","1","3","18","82","2694.74636698","inverse","2","1","2","¿Cuántos habitantes
 tiene Buenos Aires?","2.9000.000","3650000","","0","0","0","competitive","right","2.0484919548","2696.79493809","2.9515080452","2699.91714406","4.09967899323","2704.01689196","1.90032100677","2705.96999907","2707.36726499","2707.45446897","2710.45738792","0","2710.47149301","2716.30088305",""
"sujeto_0068784","1","3","19","83","2716.47330809","direct","2","1","1","¿Cuántos kilos forman una tonelada?","1000","1500","left","1","1","1","competitive","left","1.81444907188","2718.28780413","3.18555092812","2721.63051295","4.06923699379","2725.69979215","1.93076300621","2727.6807301","2729.56810594","2729.64839005","2732.65137696","1","2732.66641998","2738.62383914",""
"sujeto_0068784","1","3","20","84","2738.81725216","inverse","4","1","4","¿Cuántos estados tiene la 
República del Perú? ","24","23","","0","0","1","competitive","left","1.74655890465","2740.56385207","3.25344109535","2743.974334","4.46044993401","2748.43484306","1.53955006599","2750.00893807","2751.03109193","2751.10998011","2754.11296415","0","2754.1268971","2759.07219315",""
"sujeto_0068784","1","3","21","85","2759.21124411","direct","3","1","3","¿En qué año nació Cristóbal Colón? ","1451","1447","","0","0","1","competitive","right","1.85561704636","2761.06690407","3.14438295364","2764.3858161","4.8050031662","2769.19088006","1.1949968338","2770.436553","2772.28247213","2772.35397506","2775.35695696","0","2775.37111115","2779.59608102",""
"sujeto_0068784","1","3","22","86","2779.73948312","inverse","4","1","4","¿Cuánto mide la 
Montaña Aconcagua? ","6234","6962","","0","0","1","competitive","right","1.1173081398","2780.85686111","3.8826918602","2784.87929702","3.68753099442","2788.56688905","2.31246900558","2790.92971992","2792.21907997","2792.29757905","2795.30009508","0","2795.31421995","2802.49785709",""
"sujeto_0068784","1","3","23","87","2802.64970207","direct","2","1","4","¿Cuánto mide el punto
 más profundo del océano? ","12508","11003","","0","0","1","competitive","left","1.43717002869","2804.08692193","3.56282997131","2807.80784512","5.71498894691","2813.52287412","0.285011053085","2813.85901308","2815.1105361","2815.192981","2818.19601393","0","2818.21003795","2822.4162941",""
"sujeto_0068784","1","3","24","88","2822.57833815","inverse","1","1","3","¿Cuántos álbumes ha publicado 
el cantante Jaime Roos? ","41","34","","0","0","1","competitive","right","1.76449012756","2824.34289312","3.23550987244","2827.75165009","4.49721217155","2832.24891114","1.50278782845","2833.80201912","2835.29184604","2835.36992812","2838.37288713","0","2838.38686204","2844.58301997",""
"sujeto_0068784","1","3","25","89","2844.72192001","direct","4","1","3","¿En qué año nació el 
ex-presidente Jorge Battle? ","1921","1927","","1","1","1","competitive","right","1.52190899849","2846.24389815","3.47809100151","2849.87980604","5.3579518795","2855.23782015","0.642048120499","2855.91460609","2857.64407611","2857.71459103","2860.71757007","1","2860.73184204","2864.21788692",""
"sujeto_0068784","1","3","26","90","2864.36854315","inverse","1","1","3","¿Cuántas presidencias 
constitucionales  hubo en Uruguay? ","41","42","","0","0","1","competitive","right","1.72933006287","2866.09793901","3.27066993713","2869.52260804","5.02221989632","2874.54489493","0.977780103683","2875.57396507","2876.77771306","2876.85749698","2879.86004901","0","2879.87518907","2885.658813",""
"sujeto_0068784","1","3","27","91","2885.8102951","direct","1","1","2","¿Quién escribió mas sinfonías?","Mozart","Haydn","","1","1","0","competitive","left","2.70060110092","2888.51096702","2.29939889908","2890.9826951","3.79317212105","2894.77592802","2.20682787895","2897.03512406","2898.25209308","2898.33587503","2901.33884907","1","2901.35289812","2905.104285",""
"sujeto_0068784","1","3","28","92","2905.27128005","inverse","4","1","2","¿En qué año nació Michael Jackson?","1958","1953","","1","1","1","competitive","left","1.53968501091","2906.81103396","3.46031498909","2910.42680097","5.7910399437","2916.21790695","0.208960056305","2916.46155095","2918.43975115","2918.51104498","2921.51401711","1","2921.52900314","2927.3881011",""
"sujeto_0068784","1","3","29","93","2927.53064704","direct","3","1","2","¿En qué año entró en vigencia 
la ley antitabaco en Uruguay?","2005","2006","","1","1","1","competitive","left","1.62722802162","2929.15794706","3.37277197838","2932.68910098","4.76081299782","2937.44995594","1.23918700218","2938.72335696","2940.31805992","2940.39078498","2943.39206696","1","2943.40826893","2948.73877501",""
"sujeto_0068784","1","3","30","94","2948.87603402","inverse","3","1","1","¿Cuándo se subió el 
primer video a youtube?","2004","2005","","0","0","1","individual","left","2.14690113068","2951.02297902","2.85309886932","2954.03045106","4.99449396133","2959.02498603","1.00550603867","2960.06816101","2961.37381196","2961.41811609","2964.42010593","0","2964.43525505","2972.18809009",""
"sujeto_0068784","1","3","31","95","2972.31959414","direct","2","1","1","¿Cuántos habitantes tiene India?","1200 millones","1300 millones","","0","0","0","competitive","right","2.92132902145","2975.24097395","2.07867097855","2977.49300909","4.60491204262","2982.09799004","1.39508795738","2983.5467031","2985.51626611","2985.59720206","2988.60009599","0","2988.61433196","2994.66180992",""
"sujeto_0068784","1","3","32","96","2994.79931593","inverse","4","1","2","¿A qué edad murió Bob Marley?","36","37","","0","0","1","competitive","right","1.51758909225","2996.31694913","3.48241090775","2999.95714211","4.50678515434","3004.46398306","1.49321484566","3006.0075891","3007.90544915","3007.99222612","3010.99521303","0","3011.00927901","3014.11175013",""
"sujeto_0068784","1","4","1","97","3139.60895514","direct","2","1","1","¿Cuantos años dirigió la selección 
uruguaya Tabarez?","15 años","13 años","","0","0","0","individual","right","2.0200920105","3141.62912297","2.9799079895","3144.77936697","4.50666093826","3149.28609204","1.49333906174","3150.83252692","3152.02365494","3152.06648302","3155.06945896","0","3155.08353615","3162.15206599","3014.12679005"
"sujeto_0068784","1","4","2","98","3162.28488398","inverse","4","1","1","¿Cuantas teclas tiene un teclado 
de computadora generalmente? ","Entre 99 y 108","Entre 109 y 113","","1","1","1","competitive","left","2.44019293785","3164.72512293","2.55980706215","3167.45934701","5.63565182686","3173.09505916","0.364348173141","3173.51122308","3174.51393199","3174.59473109","3177.59774613","1","3177.61172009","3179.98312211",""
"sujeto_0068784","1","4","3","99","3180.13060999","direct","1","1","1","¿Cuál Departamento tiene
 mayor superficie?","Río Negro","Soriano","","0","0","0","individual","left","3.9024169445","3184.03309298","1.0975830555","3185.28554797","5.29348707199","3190.57909608","0.706512928009","3191.32035613","3193.03386497","3193.070822","3196.07206106","0","3196.08822799","3200.41425896",""
"sujeto_0068784","1","4","4","100","3200.55656004","inverse","3","1","2","¿Cuál es el apellido de las 
hermanastras  de  cenicienta?","Tremaine","Truman","","0","0","1","competitive","left","1.59049296379","3202.14712214","3.40950703621","3205.71296406","5.26406097412","3210.97708201","0.735939025879","3211.76449513","3213.63398099","3213.71469998","3216.71770096","0","3216.73194599","3219.42788696",""
"sujeto_0068784","1","4","5","101","3219.56694007","direct","4","1","4","¿Cuál película ganó un
 Oscar a mejor película?","Alto Impacto","Cache","","0","0","1","competitive","left","1.84115099907","3221.40815711","3.15884900093","3224.75554895","5.20052194595","3229.95611405","0.799478054047","3230.80702806","3231.926337","3232.00720596","3235.01019692","0","3235.02514005","3237.28977299",""
"sujeto_0068784","1","4","6","102","3237.42669797","inverse","1","1","3","¿A cuántos centímetros
equivale la medida pié?","25","30","","0","0","1","competitive","right","1.62539291382","3239.05216193","3.37460708618","3242.58177304","4.54025602341","3247.12207007","1.45974397659","3248.63302207","3249.67301297","3249.75081515","3252.75375605","0","3252.76691794","3258.16403794",""
"sujeto_0068784","1","4","7","103","3258.33566308","direct","2","1","2","¿Qué departamento es mas grande?","Cerro Largo","Paysandú","","0","0","0","competitive","right","2.06545615196","3260.40116501","2.93454384804","3263.52391601","5.97208189964","3269.49604106","0.0279181003571","3269.57744598","3271.17720294","3271.26102209","3274.26402307","0","3274.27828097","3278.38825607",""
"sujeto_0068784","1","4","8","104","3278.52996802","inverse","2","1","3","¿Quién pintó la Mona Lisa?","Picasso","Da Vinci","right","0","0","1","competitive","right","1.60612201691","3280.13613701","3.39387798309","3283.66970706","3.97530984879","3287.64505911","2.02469015121","3289.70332813","3291.30804396","3291.38778901","3294.39078593","1","3294.40473294","3296.56703997",""
"sujeto_0068784","1","4","9","105","3296.70674801","direct","4","1","3","¿Cuántos litros hay en un galon?","3.54","3.78","","1","1","1","competitive","left","2.1014020443","3298.80820012","2.8985979557","3301.87774301","5.1332719326","3307.01105309","0.866728067398","3307.91332197","3309.43117213","3309.51426601","3312.51721215","1","3312.53146911","3318.32006001",""
"sujeto_0068784","1","4","10","106","3318.46684313","inverse","4","1","1","¿Cuántas teclas tiene
 un piano moderno?","80","88","","0","0","1","individual","left","2.03930997849","3320.50619698","2.96069002151","3323.62326908","5.11984014511","3328.7431531","0.880159854889","3329.67492414","3330.68339896","3330.72473598","3333.72770095","0","3333.74242997","3340.54020405",""
"sujeto_0068784","1","4","11","107","3340.69409513","direct","4","1","3","¿Cuántos países hay en África?","54","62","","0","0","1","competitive","left","1.64601612091","3342.34017801","3.35398387909","3345.85193801","4.14509391785","3349.99707603","1.85490608215","3351.88520598","3353.57575607","3353.65296507","3356.6559341","0","3356.671","3364.47207093",""
"sujeto_0068784","1","4","12","108","3364.60560894","inverse","1","1","3","¿En qué siglo se crearon
 las primeras pistolas?","XV","XIII","","1","1","1","competitive","left","1.69963788986","3366.30530214","3.30036211014","3369.76322603","5.30589103699","3375.06917715","0.694108963013","3375.81567311","3377.763556","3377.83179498","3380.83474898","1","3380.84972405","3384.08282709",""
"sujeto_0068784","1","4","13","109","3384.21879196","direct","3","1","4","¿En qué año se estrenó 
la serie friends?","1994","1995","","0","0","1","competitive","left","2.01138091087","3386.23023796","2.98861908913","3389.37336302","4.09080886841","3393.46421504","1.90919113159","3395.42239809","3397.29772806","3397.37358713","3400.37658405","0","3400.3906951","3405.39676309",""
"sujeto_0068784","1","4","14","110","3405.54290915","inverse","3","1","4","¿En qué año nació Hitler?","1889","1887","","0","0","1","competitive","left","1.01127195358","3406.55426192","3.98872804642","3410.70081496","5.48436689377","3416.18522596","0.515633106232","3416.75314903","3417.86744595","3417.93658614","3420.93954897","0","3420.95394206","3425.98008108",""
"sujeto_0068784","1","4","15","111","3426.12236905","direct","1","1","4","¿Cuánto pesa un elefante Africano?","6000 kilos","5400 kilos","","0","0","0","competitive","left","1.77180600166","3427.89421797","3.22819399834","3431.27889013","4.58724808693","3435.86620402","1.41275191307","3437.32969594","3438.68561316","3438.76423216","3441.76717496","0","3441.78127694","3448.48835397",""
"sujeto_0068784","1","4","16","112","3448.63248897","inverse","1","1","2","¿Qué porcentaje de 
la población es zurda?","10%","7%","","1","1","0","individual","left","2.67385411263","3451.30644512","2.32614588737","3453.82024193","4.86197590828","3458.68227816","1.13802409172","3459.85835695","3461.10146904","3461.14197707","3464.14407396","1","3464.15909195","3470.13607097",""
"sujeto_0068784","1","4","17","113","3470.27728295","direct","1","1","2","¿En qué año se estrenó
Volver al futuro?","1984","1985","","0","0","1","competitive","left","2.37494587898","3472.65229797","2.62505412102","3475.43489003","5.38528299332","3480.82023406","0.614717006683","3481.48678803","3483.04803705","3483.11954594","3486.12252808","0","3486.13770008","3493.22913694",""
"sujeto_0068784","1","4","18","114","3493.37198305","inverse","3","1","2","¿Cuántos jugadores hay en un 
equipo de baseball?","9","8","","1","1","0","individual","right","1.85822606087","3495.23025703","3.14177393913","3498.54712009","4.82007408142","3503.36723995","1.17992591858","3504.59847999","3506.21205807","3506.24876809","3509.25170493","1","3509.26587701","3514.24309397",""
"sujeto_0068784","1","4","19","115","3514.38388705","direct","2","1","1","¿Cuántos Oscar ganó
 la película titanic?","13","11","","1","1","1","individual","left","2.16531419754","3516.54926896","2.83468580246","3519.55647111","5.11566114426","3524.67218804","0.884338855743","3525.59205413","3526.89407992","3526.9428091","3529.94407606","1","3529.9603231","3534.562989",""
"sujeto_0068784","1","4","20","116","3534.71175408","inverse","4","1","4","¿En qué año comenzó
la segunda guerra mundial?","1939","1976","left","0","0","1","competitive","left","1.51353502274","3536.22533894","3.48646497726","3539.86787105","5.21335792542","3545.08127093","0.786642074585","3545.91937494","3547.71923804","3547.80282712","3550.80579901","1","3550.82086301","3554.8080411",""
"sujeto_0068784","1","4","21","117","3554.93877912","direct","2","1","4","¿Cuántos biomas hay en Uruguay?","5","4","","0","0","1","competitive","left","1.69646596909","3556.63531303","3.30353403091","3560.09457803","4.0406332016","3564.13525009","1.9593667984","3566.14650011","3567.94382215","3568.01365805","3571.01662898","0","3571.03163695","3577.28007007",""
"sujeto_0068784","1","4","22","118","3577.41586494","inverse","2","1","3","¿Cuándo murió Pablo Escobar?","1993","1997","","1","1","1","competitive","","1.46839904785","3578.88433313","3.53160095215","3582.573385","6","3588.57350302","0","3588.58818197","3590.37103796","3590.44223094","3593.44516301","0","3593.45933414","3599.15900111",""
"sujeto_0068784","1","4","23","119","3599.31389713","direct","1","1","4","¿Qué serie ha ganado mas premios?","Friends","Murphy Brown","","1","1","0","competitive","left","1.46936297417","3600.78330708","3.53063702583","3604.46834898","4.07490587234","3608.54331493","1.92509412766","3610.50178695","3611.85417414","3611.93671799","3614.939677","1","3614.95392299","3620.51553798",""
"sujeto_0068784","1","4","24","120","3620.67207909","inverse","4","1","2","¿Cuántas fichas tiene el dominó?","26","28","","1","1","1","competitive","right","1.31708717346","3621.9892261","3.68291282654","3625.82904601","4.3032438755","3630.13235211","1.6967561245","3631.87972307","3632.93503714","3633.01429701","3636.01723599","1","3636.031147","3641.27213502",""
"sujeto_0068784","1","4","25","121","3641.39884114","direct","2","1","4","¿Cuántos son los dientes de leche?","20","25","","0","0","1","individual","left","0.91544508934","3642.31434798","4.08455491066","3646.55279207","4.7144780159","3651.267313","1.2855219841","3652.58970404","3654.30010605","3654.33960295","3657.34258008","0","3657.35770702","3659.50341296",""
"sujeto_0068784","1","4","26","122","3659.8432951","inverse","3","1","3","¿Cuántos gramos son una onza?","22","28","","0","0","1","competitive","right","1.02203798294","3660.86537814","3.97796201706","3664.98144102","5.00983500481","3669.99131703","0.990164995193","3671.01683903","3673.01167107","3673.08378005","3676.08673906","0","3676.10114694","3682.391397",""
"sujeto_0068784","1","4","27","123","3682.5366931","direct","3","1","1","¿Cuándo salió el primer album
 de los Beatles?","1963","1962","","1","1","1","individual","right","1.70565605164","3684.2424171","3.29434394836","3687.67798996","5.0262799263","3692.70433807","0.9737200737","3693.71161103","3694.87518096","3694.91259694","3697.91557002","1","3697.92966199","3701.70170212",""
"sujeto_0068784","1","4","28","124","3701.84845901","inverse","3","1","3","¿Quién fundó la empresa apple?","Carlos Slim","Steve Jobs","","1","1","1","competitive","right","1.09180188179","3702.94033313","3.90819811821","3706.98738909","4.91689920425","3711.90435505","1.08310079575","3713.03860712","3714.15326715","3714.22294807","3717.22410607","1","3717.24011898","3723.53798103",""
"sujeto_0068784","1","4","29","125","3723.69493008","direct","4","1","2","¿Cuántos municipios hay
 en Montevideo?","8","7","","1","1","1","competitive","right","1.75742006302","3725.45241308","3.24257993698","3728.84818006","4.00708699226","3732.85533309","1.99291300774","3734.89748096","3736.81224012","3736.89839911","3739.90137506","1","3739.91555405","3741.9967041",""
"sujeto_0068784","1","4","30","126","3742.1506331","inverse","1","1","1","¿Cuántos kilómetros hay
 de Montevideo a Artigas?","632","599","","0","0","0","individual","left","1.46173405647","3743.61241198","3.53826594353","3747.30820298","4.4731400013","3751.78138614","1.5268599987","3753.34261203","3754.82576203","3754.87717605","3757.88013005","0","3757.89332604","3763.94412613",""
"sujeto_0068784","1","4","31","127","3764.09480906","direct","2","1","2","¿En qué año nació 
Leonardo Da Vinci?","1452","1511","","1","1","0","competitive","right","1.85954189301","3765.95440292","3.14045810699","3769.26884508","4.02047514915","3773.28938293","1.97952485085","3775.32000303","3777.17212009","3777.254812","3780.25611401","1","3780.27202892","3783.41844416",""
"sujeto_0068784","1","4","32","128","3783.55753994","inverse","3","1","1","¿A qué continente
 pertenece el país Gabón?","Africa","Oceanía","","0","0","1","individual","left","1.60483503342","3785.16244006","3.39516496658","3788.71285105","4.54348683357","3793.25640607","1.45651316643","3794.7619791","3796.57366109","3796.612849","3799.613837","0","3799.63006806","3804.86411309",""
