"code","nro_aplicante","nro_bloque","nro_trial_bloque","nro_trial_global","show_game_type","choice_order","rival","pay_individual","pay_competitive","question","answer_left_text","answer_right_text","correct_answer","outcome_individual","outcome_competitive","outcome_rival","game_type","answer","social_time","rt_game_type","feedback_delay","show_question","answer_time","rt_answer_global","feedback_delay_2","show_jitter","jitter_time","show_outcome","outcome_time","outcome_participant_real","show_final_jitter","second_jitter_time","inicio_descanso"
"sujeto_774f4a36","1","1","1","1","574.818078041","direct","3","1","4","¿Cuántos centímetros corresponden
al talle 36 del calzado?","23","24","","0","0","1","competitive","right","1.95097589493","576.769115925","3.04902410507","579.997950077","4.7121322155","584.710128069","1.2878677845","586.03352499","587.061836958","587.133575916","590.136544943","0","590.15094614","592.313477993",""
"sujeto_774f4a36","1","1","2","2","592.486037016","inverse","3","1","2","¿Cuántas metros mide la Intendencia
Municipal de Montevideo? ","84","78","","0","0","1","competitive","left","1.80032682419","594.286428928","3.19967317581","597.656582117","4.13281106949","601.789451122","1.86718893051","603.708751917","605.585309029","605.65982008","608.661273956","0","608.677417994","610.770180941",""
"sujeto_774f4a36","1","1","3","3","610.911759138","direct","1","1","3","¿Cuántas La Pasiva
 hay en uruguay?","15","11","","1","1","1","competitive","right","3.22581601143","614.137638092","1.77418398857","616.067187071","3.29949808121","619.366744995","2.70050191879","622.10175395","623.713444948","623.78539896","626.788402081","1","626.802617073","631.077224016",""
"sujeto_774f4a36","1","1","4","4","631.204715014","inverse","3","1","3","¿De que color es la camiseta de uruguay?","blanca","celeste","right","1","1","1","competitive","right","3.12518501282","634.329963923","1.87481498718","636.360490084","3.20550704002","639.566056967","2.79449295998","642.412003994","643.61680913","643.697344065","646.700258017","1","646.714216948","650.168082952",""
"sujeto_774f4a36","1","1","5","5","650.299289942","direct","2","1","1","¿Cuánto metros mide
la torre Eiffel?","333","324","","1","1","1","competitive","right","1.81990003586","652.119234085","3.18009996414","655.470255136","4.26891112328","659.73921895","1.73108887672","661.523209095","663.044559956","663.124242067","666.125239134","1","666.141479969","673.177295923",""
"sujeto_774f4a36","1","1","6","6","673.30893302","inverse","3","1","4","¿Cuantas ciudades existen
 en todo el uruguay?","63","72","","0","0","1","competitive","right","1.59450292587","674.903474092","3.40549707413","678.483526945","4.15302109718","682.636584997","1.84697890282","684.53472209","685.589523077","685.66801095","688.670994043","0","688.685334921","696.31192112",""
"sujeto_774f4a36","1","1","7","7","696.470752954","direct","1","1","1","¿Cuantos estados tiene África?","52","54","","1","1","0","competitive","left","4.7951669693","701.265963078","0.204833030701","701.628005981","4.98094701767","706.609014988","1.01905298233","707.664346933","709.528362036","709.598554134","712.601526022","1","712.615561962","718.373220921",""
"sujeto_774f4a36","1","1","8","8","718.517203093","inverse","4","1","4","¿En qué año nació
 Stephen Hawking?","1952","1942","","0","0","1","competitive","left","2.24098205566","720.758249044","2.75901794434","723.674801111","4.8265171051","728.501363039","1.1734828949","729.709309101","731.153176069","731.227086067","734.230092049","0","734.243993044","740.34127903",""
"sujeto_774f4a36","1","1","9","9","740.481912136","direct","2","1","3","¿Cuánto años tenía Artigas
 cuando se fue a Paraguay?","56","57","","1","1","1","competitive","left","2.08459210396","742.566566944","2.91540789604","745.65070796","4.24486708641","749.895620108","1.75513291359","751.687299013","753.236818075","753.321741104","756.324693918","1","756.338680029","762.385185957",""
"sujeto_774f4a36","1","1","10","10","762.524049044","inverse","1","1","2","¿Cuantos milímetros 
mide una hoja A2?","420x592","420x594","","0","0","1","competitive","right","2.69876217842","765.222872019","2.30123782158","767.712244034","5.93368196487","773.645969152","0.0663180351257","773.76641202","775.334820032","775.416768074","778.419755936","0","778.434127092","785.507784128",""
"sujeto_774f4a36","1","1","11","11","785.652065039","direct","3","1","3","¿Cuál es la menor temperatura 
registrada en Uruguay?","-5.4","-7.4","","0","0","1","individual","left","1.77801179886","787.430123091","3.22198820114","790.826344013","4.69982981682","795.526217937","1.30017018318","796.877615929","798.559665918","798.595334053","801.598264933","0","801.611485004","805.344789982",""
"sujeto_774f4a36","1","1","12","12","805.478486061","inverse","2","1","2","¿Cuantos años hace que 
se fundó facebook?","18","17","","0","0","0","competitive","right","1.94592213631","807.424479961","3.05407786369","810.636431932","4.73297691345","815.369449139","1.26702308655","816.688107014","818.060851097","818.139646053","821.141307116","0","821.156340122","823.930984974",""
"sujeto_774f4a36","1","1","13","13","824.074893951","direct","1","1","4","¿Cuál animal es más
 pesado en promedio?","Rinoceronte","Hipopotamo","","0","0","0","competitive","","2.00871896744","826.08368206","2.99128103256","829.229892969","6","835.230021","0","835.245828152","836.325037956","836.448539972","839.451534986","0","839.465963125","843.306983948",""
"sujeto_774f4a36","1","1","14","14","843.450897932","inverse","1","1","2","¿Qué personaje de dragon ball 
murió más veces?","Chaoz","Krillin","","1","1","0","competitive","right","1.70994210243","845.160902977","3.29005789757","848.607239008","3.98766303062","852.594959974","2.01233696938","854.658432007","856.116204977","856.192278147","859.195269108","1","859.20946002","866.98239994",""
"sujeto_774f4a36","1","1","15","15","867.127994061","direct","3","1","2","La universidad de oxford. 
existe desde:","1096","1249","","1","1","0","competitive","right","1.48814296722","868.616207123","3.51185703278","872.285702944","4.06256890297","876.348313093","1.93743109703","878.320181131","879.369009972","879.454842091","882.457826138","1","882.471004963","889.161833048",""
"sujeto_774f4a36","1","1","16","16","889.290207148","inverse","3","1","1","¿Qué escritor latino ganó antes
 el premio nobel?"," García Marquez","Neruda","","0","0","1","individual","left","2.87724304199","892.167494059","2.12275695801","894.446593046","3.96688985825","898.413524151","2.03311014175","900.49910593","902.239086151","902.283025026","905.285974979","0","905.300873995","908.761268139",""
"sujeto_774f4a36","1","1","17","17","908.903226137","direct","4","1","3","¿Cuántos dientes tiene un
 tiburón blanco?","6000","3000","","0","0","1","competitive","left","1.90149211884","910.804762125","3.09850788116","914.091328144","4.96147012711","919.052859068","1.03852987289","920.12582612","921.164812088","921.243049145","924.246034145","0","924.260210991","929.069874048",""
"sujeto_774f4a36","1","1","18","18","929.24486804","inverse","4","1","1","¿Cuánto mide el paralelo Ecuador?","40.000km","70.000km","","0","0","1","individual","right","2.25306510925","931.497976065","2.74693489075","934.400428057","4.38163518906","938.782104015","1.61836481094","940.437446117","942.393568039","942.437367916","945.440346956","0","945.455496073","949.058043003",""
"sujeto_774f4a36","1","1","19","19","949.20640111","direct","4","1","2","¿Cuál fue el primer libro 
de Stephen King?","Carrie","The Stand","","1","1","1","competitive","left","1.67378902435","950.880255938","3.32621097565","954.362067938","3.77215099335","958.134259939","2.22784900665","960.413448095","962.157191038","962.230438948","965.233204126","1","965.248148918","969.722548962",""
"sujeto_774f4a36","1","1","20","20","969.866774082","inverse","2","1","3","¿Qué civilización practicaba
 la momificación?","Grecia","Egipto","right","0","0","1","competitive","right","1.77168107033","971.638499022","3.22831892967","975.038608074","4.31989002228","979.358538151","1.68010997772","981.092005968","983.031342983","983.109089136","986.109280109","1","986.126524925","990.35326004",""
"sujeto_774f4a36","1","1","21","21","990.495368958","direct","4","1","4","¿Cuántos millones de visitas
 recibe google por minuto?","3.0","4.5","","0","0","1","competitive","right","1.44933485985","991.944747925","3.55066514015","995.649119139","4.64564299583","1000.29482198","1.35435700417","1001.70023608","1003.21508598","1003.30136895","1006.30436301","0","1006.31861901","1013.44130492",""
"sujeto_774f4a36","1","1","22","22","1013.57010102","inverse","1","1","3","La máquina de fax. se inventó en:","1843","1960","","0","0","1","competitive","right","3.11990380287","1016.69006705","1.88009619713","1018.71259499","4.21239900589","1022.92505312","1.78760099411","1024.74777913","1025.98989415","1026.06540608","1029.06833196","0","1029.082515","1032.31882",""
"sujeto_774f4a36","1","1","23","23","1032.46790504","direct","2","1","4","En la verdadera historia de los
 300 espartanos. habían:","300 soldados","4300 soldados","","1","1","1","competitive","","2.04831719398","1034.516289","2.95168280602","1037.6232481","6","1043.6233871","0","1043.64002299","1044.90119696","1044.975739","1047.97725892","0","1047.99224997","1051.7940371",""
"sujeto_774f4a36","1","1","24","24","1051.92715693","inverse","1","1","4","¿Cuántos milímetros crece
 el pelo por día?","0.4","0.04","","0","0","0","competitive","left","1.69922590256","1053.62644792","3.30077409744","1057.08278704","4.4697368145","1061.55256414","1.5302631855","1063.13189507","1064.89262414","1064.96698713","1067.96997213","0","1067.98415709","1074.71924806",""
"sujeto_774f4a36","1","1","25","25","1074.85204101","direct","4","1","1","¿Cuánto mide la baldosa gris 
clásica de Montevideo?","22x22 cm.","20x20 cm.","","1","1","1","individual","left","1.95873093605","1076.8108511","3.04126906395","1080.02886796","5.24284386635","1085.27177215","0.757156133652","1086.06445003","1088.05968595","1088.09752107","1091.10049295","1","1091.11480498","1096.65764308",""
"sujeto_774f4a36","1","1","26","26","1096.79979014","inverse","2","1","2","¿Cuántas películas de rápidos
 y furiosos hay?","10","11","","1","1","0","competitive","right","2.42014789581","1099.22000194","2.57985210419","1101.96794105","3.72402977943","1105.69203115","2.27597022057","1108.02446795","1109.38248706","1109.45894194","1112.46185994","1","1112.47618008","1114.5092361",""
"sujeto_774f4a36","1","1","27","27","1114.64453793","direct","3","1","1","¿Cuántos masters 1000
 ganó Del Potro?","1","2","","1","1","1","individual","right","1.58260297775","1116.22720408","3.41739702225","1119.79996204","3.7642519474","1123.56427193","2.2357480526","1125.85018206","1127.60477304","1127.65090513","1130.653234","1","1130.66927814","1138.06524515",""
"sujeto_774f4a36","1","1","28","28","1138.20368314","inverse","2","1","4","¿Cuántos meses dura el 
embarazo de una leona?","3 meses","4 meses","","0","0","1","competitive","right","1.44576311111","1139.64949512","3.55423688889","1143.36212611","4.16833496094","1147.53051901","1.83166503906","1149.41275311","1150.52383494","1150.59721398","1153.60019207","0","1153.61444998","1160.33693814",""
"sujeto_774f4a36","1","1","29","29","1160.46727705","direct","1","1","1","¿En qué año fue creado
 el sandwich?","1762","1653","","1","1","0","individual","right","1.68043279648","1162.14775395","3.31956720352","1165.62207413","3.73969912529","1169.361835","2.26030087471","1171.672822","1173.27136612","1173.30780101","1176.31074595","1","1176.3248291","1179.79546809",""
"sujeto_774f4a36","1","1","30","30","1179.96000695","inverse","4","1","2","El nombre de la moneda de Vietnam es:","Dinar","Dong","","0","0","1","competitive","left","2.89894294739","1182.85903692","2.10105705261","1185.1494801","3.08543801308","1188.23496103","2.91456198692","1191.201195","1192.63317108","1192.71949697","1195.72248006","0","1195.73677397","1201.90518713",""
"sujeto_774f4a36","1","1","31","31","1202.05526209","direct","2","1","1","¿cuantos aleteos puede dar 
un colibrí por segundo?","120","50","","0","0","0","individual","left","1.46885299683","1203.52416205","3.53114700317","1207.22832894","4.62190008163","1211.85027313","1.37809991837","1213.28033304","1215.01273608","1215.06474113","1218.06771994","0","1218.08219314","1222.29446411",""
"sujeto_774f4a36","1","1","32","32","1222.44535398","inverse","4","1","3","¿Qué altura promedio tienen
 los hombres uruguayos?","1.73 m","1.72 m","","1","1","1","competitive","left","1.60804104805","1224.05344296","3.39195895195","1227.60420299","3.38422679901","1230.98847294","2.61577320099","1233.65324712","1234.91568303","1234.98827815","1237.98928308","1","1238.00556707","1242.48149395",""
"sujeto_774f4a36","1","2","1","33","1378.09644198","direct","1","1","1","¿En qué año nació 
el actor Bradd Pitt?","1967","1963","","1","1","1","individual","left","1.80958604813","1379.906075","3.19041395187","1383.25480509","3.43232417107","1386.68716908","2.56767582893","1389.30522704","1390.40106106","1390.43959999","1393.44256401","1","1393.45689106","1399.38448","1242.49607396"
"sujeto_774f4a36","1","2","2","34","1399.52480698","inverse","2","1","1","¿Cual es el segundo 
monte más alto?","Kanchenjunga","K2","","1","1","1","individual","left","2.14750885963","1401.67237902","2.85249114037","1404.68083596","4.47848892212","1409.15936494","1.52151107788","1410.71677804","1412.169173","1412.218894","1415.22123504","1","1415.23541498","1418.66529012",""
"sujeto_774f4a36","1","2","3","35","1418.80419397","direct","3","1","1","¿Cuándo finalizó la construcción
 del Palacio Legislativo?","1925","1917","","0","0","1","individual","","2.51225185394","1421.31650901","2.48774814606","1423.97659612","6","1429.97672892","0","1429.98991609","1431.63161898","1431.67599702","1434.677284","0","1434.69363999","1440.39119601",""
"sujeto_774f4a36","1","2","4","36","1440.52818608","inverse","3","1","3","¿Cuántos integrantes tenía
 en su inicio  el cuarteto de nos?","3","4","","1","1","1","competitive","left","1.97153687477","1442.4998281","3.02846312523","1445.68732405","3.74438881874","1449.43175697","2.25561118126","1451.72183204","1452.85493302","1452.9397161","1455.94267797","1","1455.95688915","1461.60667896",""
"sujeto_774f4a36","1","2","5","37","1461.74257803","direct","2","1","3","¿Qué valor tiene el número pi?","3.14","4.18","left","0","0","1","competitive","left","1.36831402779","1463.11100292","3.63168597221","1466.89790606","3.01709222794","1469.91503906","2.98290777206","1472.94885612","1474.40306592","1474.48311615","1477.486094","1","1477.50035214","1484.42130899",""
"sujeto_774f4a36","1","2","6","38","1484.55183506","inverse","2","1","2","¿Cuál es la esperanza de vida
 en Uruguay?","75","77","","1","1","0","competitive","left","1.61126112938","1486.16316605","3.38873887062","1489.71053004","3.77165794373","1493.48224998","2.22834205627","1495.76088095","1497.41470194","1497.49569297","1500.49868798","1","1500.51269698","1506.97572803",""
"sujeto_774f4a36","1","2","7","39","1507.11535406","direct","1","1","2","¿Cuantos pisos tiene la torre 
de las comunicaciones?","26","32","","1","1","0","competitive","left","1.62101411819","1508.73641205","3.37898588181","1512.255445","3.7769138813","1516.03240013","2.2230861187","1518.28983593","1520.11719799","1520.19079995","1523.19326115","1","1523.20844507","1525.354671",""
"sujeto_774f4a36","1","2","8","40","1525.49412513","inverse","2","1","4","¿En qué país sudamericano 
no hay McDonalds?","Bolivia","Venezuela","","0","0","1","competitive","right","1.84143209457","1527.33562899","3.15856790543","1530.66577697","4.03083181381","1534.69664907","1.96916818619","1536.71664405","1538.026016","1538.10076714","1541.10125995","0","1541.11839795","1547.47726393",""
"sujeto_774f4a36","1","2","9","41","1547.65307713","direct","3","1","1","¿En qué año empieza
 la Edad Media?","476","512","","1","1","1","individual","right","1.94171094894","1549.59483099","3.05828905106","1552.82320309","4.28567099571","1557.10896111","1.71432900429","1558.87578702","1560.27958608","1560.32681608","1563.32924509","1","1563.34418702","1566.33276415",""
"sujeto_774f4a36","1","2","10","42","1566.49558806","inverse","3","1","4","¿Hace cuántos años surgió
 el ser humano?","200mil","300mil","","0","0","0","competitive","right","1.24043512344","1567.73607302","3.75956487656","1571.65292096","4.68208003044","1576.335042","1.31791996956","1577.70475197","1579.58923197","1579.67199397","1582.67322397","0","1582.69038701","1586.00089192",""
"sujeto_774f4a36","1","2","11","43","1586.14160514","direct","3","1","4","¿Cuántas cuadras tiene
 actualmente 18 de julio? ","36","33","","0","0","1","competitive","right","1.37760615349","1587.51925611","3.62239384651","1591.28086305","4.24429178238","1595.52519512","1.75570821762","1597.31471109","1599.01697898","1599.09851599","1602.10121799","0","1602.11635804","1606.84124303",""
"sujeto_774f4a36","1","2","12","44","1606.96803713","inverse","1","1","4","¿Qué juego de equipo se 
considera mas rápido?","Lacrosse","Badminton","","0","0","0","competitive","left","1.07731699944","1608.04541707","3.92268300056","1612.12490892","3.68854212761","1615.81350994","2.31145787239","1618.17587399","1619.4189961","1619.49366713","1622.49664998","0","1622.51050997","1630.50566196",""
"sujeto_774f4a36","1","2","13","45","1630.64511299","direct","1","1","3","¿Qué promedio de edad 
vive una jirafa? ","25","20","","0","0","1","competitive","right","1.34556078911","1631.99074292","3.65443921089","1635.80346608","3.78123307228","1639.58476615","2.21876692772","1641.83856893","1643.60002398","1643.68902993","1646.69200802","0","1646.70638299","1652.66211295",""
"sujeto_774f4a36","1","2","14","46","1652.79162812","inverse","1","1","2","¿Cuántos grandes lagos hay?","7","5","","0","0","1","competitive","right","1.20021891594","1653.99188995","3.79978108406","1657.96502399","3.76582694054","1661.73091006","2.23417305946","1664.01640511","1665.30856204","1665.38457394","1668.38756394","0","1668.40167212","1676.22305799",""
"sujeto_774f4a36","1","2","15","47","1676.36957812","direct","3","1","2","¿Cuántos discos de estudio
 grabó Johhny Cash? ","54","43","","1","1","0","competitive","right","1.99846816063","1678.36809111","3.00153183937","1681.52546406","4.13259792328","1685.65810013","1.86740207672","1687.5775311","1688.85615706","1688.94622111","1691.949193","1","1691.96343613","1698.61435604",""
"sujeto_774f4a36","1","2","16","48","1698.74865508","inverse","4","1","1","¿Cuántos barrios tiene
 Montevideo? ","71","62","","0","0","1","individual","right","1.59965610504","1700.34838915","3.40034389496","1703.90498304","3.80243086815","1707.70747495","2.19756913185","1709.95503592","1710.96212506","1711.00670004","1714.00967693","0","1714.02388501","1719.48591208",""
"sujeto_774f4a36","1","2","17","49","1719.64172411","direct","3","1","3","¿Qué edad tiene Homero Simpson?","36","42","","0","0","1","competitive","right","1.49376893044","1721.13553596","3.50623106956","1724.79990005","2.85869383812","1727.6586411","3.14130616188","1730.85095811","1732.22700405","1732.30218196","1735.30517411","0","1735.31959105","1739.70837498",""
"sujeto_774f4a36","1","2","18","50","1739.85462213","inverse","4","1","2","¿Cuántos países con monarquía 
hay en europa actualmente? ","6","10","","1","1","1","competitive","left","1.89506101608","1741.74973011","3.10493898392","1745.02845812","4.2082631588","1749.23676109","1.7917368412","1751.06185913","1752.50012994","1752.58033204","1755.58124995","1","1755.59729505","1761.75407314",""
"sujeto_774f4a36","1","2","19","51","1761.901263","direct","2","1","3","¿Cuántos capítulos de
 Friends existen? ","236","228","","1","1","1","competitive","left","1.49360799789","1763.39493394","3.50639200211","1767.05637598","4.55455088615","1771.61096501","1.44544911385","1773.10678315","1774.412328","1774.49048495","1777.49347806","1","1777.50737095","1779.88298702",""
"sujeto_774f4a36","1","2","20","52","1780.04292011","inverse","1","1","3","¿Cuántas óperas compuso Mozart? ","27","22","","1","1","1","competitive","left","1.15217018127","1781.19515395","3.84782981873","1785.19814014","3.55299305916","1788.751194","2.44700694084","1791.24964309","1792.54181004","1792.61706305","1795.62005305","1","1795.63439202","1802.94587994",""
"sujeto_774f4a36","1","2","21","53","1803.08627009","direct","4","1","3","¿Cuántos mundiales de fútbol 
femenino ha realizado FIFA? ","9","7","","1","1","1","competitive","right","1.1120800972","1804.19841599","3.8879199028","1808.24388003","3.76649689674","1812.01044512","2.23350310326","1814.29510713","1815.53881812","1815.61206412","1818.61505413","1","1818.62940097","1824.73186803",""
"sujeto_774f4a36","1","2","22","54","1824.89914799","inverse","3","1","2","¿Cuál es la temperatura 
media anual en Montevideo? ","17.5","16.3","","0","0","1","competitive","left","3.65342187881","1828.55261493","1.34657812119","1830.07198811","3.17557311058","1833.24761796","2.82442688942","1836.12366414","1838.06227207","1838.14097905","1841.14392209","0","1841.15893006","1847.72848892",""
"sujeto_774f4a36","1","2","23","55","1847.860852","direct","2","1","2","¿En qué año se estrenó el
 videojuego The Sims? ","2000","2002","","0","0","0","competitive","right","1.10538077354","1848.96633911","3.89461922646","1853.01598096","3.38186097145","1856.39790297","2.61813902855","1859.06766605","1860.9296701","1861.00279713","1864.00575113","0","1864.02072597","1871.41437697",""
"sujeto_774f4a36","1","2","24","56","1871.55544996","inverse","2","1","1","¿Cuál es la canción con 
mas covers? ","Yesterday","Stand by me","","0","0","0","individual","right","1.38145899773","1872.93694592","3.61854100227","1876.71157408","4.2864689827","1880.99808693","1.7135310173","1882.76096106","1884.15950394","1884.19453001","1887.19750094","0","1887.21173596","1891.38257003",""
"sujeto_774f4a36","1","2","25","57","1891.53088093","direct","1","1","4","¿Cuánto duró la guerra
 de los 100 años?","116","123","","0","0","0","competitive","left","1.13931488991","1892.67024302","3.86068511009","1896.67315102","3.60309290886","1900.27630711","2.39690709114","1902.72450113","1904.20532393","1904.27634811","1907.27724195","0","1907.29250908","1909.61227107",""
"sujeto_774f4a36","1","2","26","58","1909.74465799","inverse","4","1","4","¿Qué color tiene la  bandera de Brasil?","Amarillo","Naranja","left","0","0","1","competitive","left","1.23070788383","1910.97540808","3.76929211617","1914.91652799","3.6968460083","1918.61343193","2.3031539917","1920.96756101","1922.53405905","1922.61846614","1925.62145114","1","1925.63653493","1928.66930604",""
"sujeto_774f4a36","1","2","27","59","1928.80430007","direct","4","1","3","¿Qué carabela de 
Colon no volvió del viaje?","Santa María","La pinta","","0","0","1","competitive","right","1.31128406525","1930.11564898","3.68871593475","1933.95789409","4.21563100815","1938.17358994","1.78436899185","1940.00955701","1941.50059414","1941.57664394","1944.57957792","0","1944.59373212","1946.69321799",""
"sujeto_774f4a36","1","2","28","60","1946.82895803","inverse","4","1","4","¿Cuántos huesos tiene
 un adulto humano?","217","206","","0","0","1","competitive","right","0.973756790161","1947.80277801","4.02624320984","1951.9857831","3.54287815094","1955.52872109","2.45712184906","1958.02021503","1959.29125595","1959.37135696","1962.37435508","0","1962.38878703","1970.22649407",""
"sujeto_774f4a36","1","2","29","61","1970.35722208","direct","1","1","1","¿Qué país africano fue 
fundado por esclavos?","Liberia","Chad","","0","0","0","individual","left","1.19165205956","1971.54894114","3.80834794044","1975.49825311","3.81781005859","1979.31612992","2.18218994141","1981.549299","1983.54092813","1983.58373094","1986.58669996","0","1986.60078812","1994.58923793",""
"sujeto_774f4a36","1","2","30","62","1994.71934414","inverse","4","1","2","¿A cuánto asciende la cima
 del monte Everest?","7.990 mts","8.848 mts","","0","0","1","competitive","right","1.52984905243","1996.24923706","3.47015094757","1999.87790608","4.74236106873","2004.620327","1.25763893127","2005.91220808","2007.09695792","2007.17938209","2010.18236399","0","2010.1965301","2017.37723708",""
"sujeto_774f4a36","1","2","31","63","2017.51448894","direct","4","1","1","¿Cuál es el país mas chico?","Sealand","Luxemburgo","","1","1","1","individual","right","1.66191697121","2019.17645407","3.33808302879","2022.67260098","3.34182286263","2026.01446295","2.65817713737","2028.70624614","2030.56928396","2030.60800099","2033.61097002","1","2033.62508798","2036.747365",""
"sujeto_774f4a36","1","2","32","64","2036.89407706","inverse","2","1","4","¿Cuántas pirámides hay en Egipto?","10000","11000","","1","1","1","competitive","right","1.33953905106","2038.23367095","3.66046094894","2042.04964495","2.90506911278","2044.95475912","3.09493088722","2048.09997201","2049.13324594","2049.2020371","2052.20501494","1","2052.21912003","2057.32814813",""
"sujeto_774f4a36","1","3","1","65","2171.926543","direct","2","1","2","¿Cuál es el quinto país con 
mas extensión?","Canadá","Brasil","","1","1","0","competitive","right","1.92035198212","2173.84696102","3.07964801788","2177.07115602","3.49973583221","2180.57096004","2.50026416779","2183.12064505","2184.45388412","2184.53895211","2187.54190707","1","2187.556041","2195.28242612","2057.34288192"
"sujeto_774f4a36","1","3","2","66","2195.42489409","inverse","1","1","2","¿Qué rasgo facial no tiene
 la Mona Lisa?","Cejas","Pómulos","","0","0","1","competitive","left","1.37348103523","2196.79847407","3.62651896477","2200.59935594","5.23583102226","2205.83522701","0.764168977737","2206.65096402","2208.40139008","2208.4853971","2211.48837304","0","2211.50263","2217.77397013",""
"sujeto_774f4a36","1","3","3","67","2217.91993093","direct","4","1","3","¿Cuál es el país con 
mayor población?","Esados Unidos","China","right","0","0","1","competitive","right","1.024477005","2218.94451404","3.975522995","2223.07792807","3.57248401642","2226.65045094","2.42751598358","2229.12918401","2230.7752111","2230.86359215","2233.86659312","1","2233.88057113","2237.24791503",""
"sujeto_774f4a36","1","3","4","68","2237.38251805","inverse","1","1","1","La palabra dinosaurio significa","Lagarto Terrible","Lagarto Dragón","","1","1","0","individual","right","1.50802397728","2238.89058709","3.49197602272","2242.5362761","4.5482070446","2247.08452201","1.4517929554","2248.58839703","2249.758708","2249.80498409","2252.805269","1","2252.82268214","2255.68446493",""
"sujeto_774f4a36","1","3","5","69","2255.82411909","direct","2","1","3","¿Qué es el membrillero?","Arbol","Arbusto","","0","0","0","competitive","left","1.30750608444","2257.13168907","3.69249391556","2260.98110294","3.01759505272","2263.99875808","2.98240494728","2267.03180599","2268.98588705","2269.06684613","2272.06978607","0","2272.08406711","2278.54805708",""
"sujeto_774f4a36","1","3","6","70","2278.68560195","inverse","3","1","3","¿Alrededor de qué planeta orbita 
el satélite Europa?","Jupiter","Saturno","","1","1","1","competitive","left","1.52725791931","2280.21290398","3.47274208069","2283.86028409","5.48557209969","2289.34591293","0.514427900314","2289.91230607","2291.45712304","2291.54507494","2294.54805112","1","2294.56321692","2296.76838708",""
"sujeto_774f4a36","1","3","7","71","2296.91500807","direct","3","1","1","¿Donde fue el mundial de 
fútbol de 1954?","Suiza","Suecia","","1","1","1","individual","right","1.35901618004","2298.27409315","3.64098381996","2302.06907892","4.69107317924","2306.76019406","1.30892682076","2308.09898305","2309.35161114","2309.39896607","2312.40195298","1","2312.41723204","2316.32898903",""
"sujeto_774f4a36","1","3","8","72","2316.46877909","inverse","1","1","4","¿Cuál de los 7 enanitos
no tenía barba?","Bashful","Mudito","","1","1","0","competitive","right","1.70940685272","2318.17825007","3.29059314728","2321.61371398","4.23757004738","2325.85132504","1.76242995262","2327.66366005","2329.24378014","2329.31529903","2332.31825399","1","2332.33248901","2337.26159096",""
"sujeto_774f4a36","1","3","9","73","2337.41704607","direct","3","1","2","¿Cual red social es
mas utilizada mundialmente?","Instagram","Facebook","","1","1","0","competitive","right","1.62545204163","2339.04256296","3.37454795837","2342.55684114","5.0186560154","2347.57556295","0.981343984604","2348.60893011","2350.52631497","2350.60944295","2353.61240792","1","2353.62644792","2356.560956",""
"sujeto_774f4a36","1","3","10","74","2356.71119308","inverse","4","1","1","¿Cuándo se inició la copa
 América de fútbol?","1916","1923","","1","1","1","individual","right","1.23244810104","2357.9437151","3.76755189896","2361.88143492","4.31223797798","2366.19374204","1.68776202202","2367.91749907","2369.814955","2369.851753","2372.8532691","1","2372.86850905","2375.52461314",""
"sujeto_774f4a36","1","3","11","75","2375.65428901","direct","3","1","4","¿Cuántos presidentes de EEUU
han muerto asesinados?","3","4","","0","0","1","competitive","left","1.06451392174","2376.71888995","3.93548607826","2380.82744002","3.71631884575","2384.54382205","2.28368115425","2386.8778441","2388.36123896","2388.44588399","2391.44886303","0","2391.46309304","2395.10524011",""
"sujeto_774f4a36","1","3","12","76","2395.23185897","inverse","2","1","4","¿Cuántas veces participó EEUU
 en la copa América?","4","5","","0","0","1","competitive","left","1.29615497589","2396.52808213","3.70384502411","2400.38739109","3.84867310524","2404.23613095","2.15132689476","2406.43836713","2407.88247895","2407.95687604","2410.95984507","0","2410.97402","2417.09120512",""
"sujeto_774f4a36","1","3","13","77","2417.24202299","direct","4","1","1","¿Cuál de estos países 
no formaba la URSS?","Azeribayán","Afganistán","","0","0","1","individual","left","1.22256398201","2418.46470499","3.77743601799","2422.43146014","5.0607380867","2427.49225497","0.9392619133","2428.46755409","2429.78061509","2429.81740594","2432.82037807","0","2432.83458996","2440.81673503",""
"sujeto_774f4a36","1","3","14","78","2440.95260596","inverse","1","1","1","¿En qué año se inauguró
 el teatro Solís?","1867","1856","","0","0","0","individual","right","1.17876386642","2442.13144112","3.82123613358","2446.10944009","4.33900213242","2450.44850898","1.66099786758","2452.16227698","2453.21858001","2453.26288199","2456.26586103","0","2456.27994204","2462.92776203",""
"sujeto_774f4a36","1","3","15","79","2463.09856701","direct","1","1","4","¿A qué velocidad vuela 
el avión más rápido?","3529","3874","","0","0","0","competitive","left","1.56400084496","2464.66261601","3.43599915504","2468.25479293","3.59774899483","2471.85260105","2.40225100517","2474.30587912","2476.06141114","2476.14046001","2479.14342403","0","2479.15764999","2481.26792407",""
"sujeto_774f4a36","1","3","16","80","2481.40960908","inverse","3","1","4","¿De qué año es la primer 
película cinematográfica?","1897","1888","","0","0","0","competitive","right","1.51993894577","2482.92961693","3.48006105423","2486.56522608","4.90528917313","2491.470577","1.09471082687","2492.61730599","2493.75031495","2493.83442211","2496.83737803","0","2496.85149407","2502.26127505",""
"sujeto_774f4a36","1","3","17","81","2502.40327811","direct","2","1","3","¿Cuántos países 
tiene nuestro planeta?","191","194","","1","1","1","competitive","right","1.12923502922","2503.53255701","3.87076497078","2507.55954099","3.70085501671","2511.26045895","2.29914498329","2513.61026406","2514.96748805","2515.04507208","2518.04523802","1","2518.06221294","2521.30051899",""
"sujeto_774f4a36","1","3","18","82","2521.44755507","inverse","2","1","2","¿Cuántos habitantes
 tiene Buenos Aires?","2.9000.000","3650000","","0","0","0","competitive","left","2.06676316261","2523.51438808","2.93323683739","2526.61847901","3.91389584541","2530.53244209","2.08610415459","2532.66783714","2534.06508493","2534.13638401","2537.13935208","0","2537.15364909","2542.983042",""
"sujeto_774f4a36","1","3","19","83","2543.15613508","direct","2","1","1","¿Cuántos kilos forman una tonelada?","1000","1500","left","1","1","1","individual","left","1.57109689713","2544.72727513","3.42890310287","2548.31385398","3.0243639946","2551.33828902","2.9756360054","2554.36470795","2556.252033","2556.29938412","2559.30235195","1","2559.31658006","2565.27325392",""
"sujeto_774f4a36","1","3","20","84","2565.41808605","inverse","4","1","4","¿Cuántos estados tiene la 
República del Perú? ","24","23","","0","0","1","competitive","right","1.00905013084","2566.4271841","3.99094986916","2570.57448602","3.68760681152","2574.2621541","2.31239318848","2576.62642312","2577.64861798","2577.72713399","2580.73011804","0","2580.74406505","2585.68938899",""
"sujeto_774f4a36","1","3","21","85","2585.82889915","direct","3","1","3","¿En qué año nació Cristóbal Colón? ","1451","1447","","0","0","1","competitive","right","1.01312994957","2586.84209204","3.98687005043","2590.98377514","3.82112598419","2594.80494308","2.17887401581","2597.03658509","2598.88126493","2598.95427012","2601.9572351","0","2601.97178102","2606.19975805",""
"sujeto_774f4a36","1","3","22","86","2606.33921409","inverse","4","1","4","¿Cuánto mide la 
Montaña Aconcagua? ","6234","6962","","0","0","1","competitive","right","0.88371515274","2607.22297001","4.11628484726","2611.52772593","4.28414702415","2615.81191802","1.71585297585","2617.57950211","2618.86884308","2618.9460721","2621.94855404","0","2621.96387315","2629.14751792",""
"sujeto_774f4a36","1","3","23","87","2629.28229213","direct","2","1","4","¿Cuánto mide el punto
 más profundo del océano? ","12508","11003","","0","0","1","competitive","left","0.996598958969","2630.27894092","4.00340104103","2634.440799","3.60004997253","2638.04091311","2.39995002747","2640.49205112","2641.74356508","2641.82644105","2644.82940793","0","2644.84368205","2649.04926205",""
"sujeto_774f4a36","1","3","24","88","2649.195719","inverse","1","1","3","¿Cuántos álbumes ha publicado 
el cantante Jaime Roos? ","41","34","","0","0","1","competitive","right","0.849681854248","2650.04553103","4.15031814575","2654.36849213","3.63424611092","2658.00278306","2.36575388908","2660.41845512","2661.90830803","2661.98651314","2664.98859906","0","2665.00375509","2671.199929",""
"sujeto_774f4a36","1","3","25","89","2671.37276912","direct","4","1","3","¿En qué año nació el 
ex-presidente Jorge Battle? ","1921","1927","","1","1","1","competitive","left","1.08096218109","2672.45380211","3.91903781891","2676.52850008","4.02620220184","2680.55476213","1.97379779816","2682.56356406","2684.29424214","2684.36488295","2687.36786008","1","2687.38189101","2690.86526704",""
"sujeto_774f4a36","1","3","26","90","2691.00099015","inverse","1","1","3","¿Cuántas presidencias 
constitucionales  hubo en Uruguay? ","41","42","","0","0","1","competitive","left","0.957673072815","2691.95873308","4.04232692719","2696.15398908","5.04370117188","2701.19775009","0.956298828125","2702.18982601","2703.39351296","2703.47280693","2706.47326899","0","2706.49053407","2712.273247",""
"sujeto_774f4a36","1","3","27","91","2712.40894008","direct","1","1","2","¿Quién escribió mas sinfonías?","Mozart","Haydn","","1","1","0","individual","left","1.3377571106","2713.74676394","3.6622428894","2717.56766701","3.23496103287","2720.80269504","2.76503896713","2723.61805606","2724.83550501","2724.88550615","2727.88847804","1","2727.90278196","2731.65419698",""
"sujeto_774f4a36","1","3","28","92","2731.80507493","inverse","4","1","2","¿En qué año nació Michael Jackson?","1958","1953","","1","1","1","competitive","right","2.44553494453","2734.2506721","2.55446505547","2736.97596312","4.02465295792","2741.00067592","1.97534704208","2743.02834392","2745.00524211","2745.07985401","2748.08130002","1","2748.09734297","2753.957304",""
"sujeto_774f4a36","1","3","29","93","2754.09835196","direct","3","1","2","¿En qué año entró en vigencia 
la ley antitabaco en Uruguay?","2005","2006","","1","1","1","competitive","right","1.50822687149","2755.60664296","3.49177312851","2759.25513506","3.93142104149","2763.18661594","2.06857895851","2765.30544901","2766.90020609","2766.97309494","2769.97608614","1","2769.99012899","2775.32413197",""
"sujeto_774f4a36","1","3","30","94","2775.45864511","inverse","3","1","1","¿Cuándo se subió el 
primer video a youtube?","2004","2005","","0","0","1","individual","left","1.71791410446","2777.17662215","3.28208589554","2780.61676192","3.35883402824","2783.97565794","2.64116597176","2786.65033102","2787.95599294","2788.00130701","2791.00428796","0","2791.01859212","2798.7732861",""
"sujeto_774f4a36","1","3","31","95","2798.90308595","direct","2","1","1","¿Cuántos habitantes tiene India?","1200 millones","1300 millones","","0","0","0","individual","right","1.13547801971","2800.03866506","3.86452198029","2804.09537697","3.8951690197","2807.99060607","2.1048309803","2810.14572906","2812.11532307","2812.16378713","2815.16676402","0","2815.18106794","2821.22856998",""
"sujeto_774f4a36","1","3","32","96","2821.39883494","inverse","4","1","2","¿A qué edad murió Bob Marley?","36","37","","0","0","1","competitive","left","2.87410306931","2824.27300096","2.12589693069","2826.55629611","3.34426617622","2829.90062213","2.65573382378","2832.60749102","2834.50532913","2834.59278798","2837.59576702","0","2837.61001396","2840.71244001",""
"sujeto_774f4a36","1","4","1","97","2961.19000602","direct","2","1","1","¿Cuantos años dirigió la selección 
uruguaya Tabarez?","15 años","13 años","","0","0","0","individual","right","1.4296040535","2962.61965513","3.5703959465","2966.34516501","4.83938884735","2971.18461609","1.16061115265","2972.39639592","2973.58753109","2973.63042402","2976.63339806","0","2976.64734411","2983.71939301","2840.72762609"
"sujeto_774f4a36","1","4","2","98","2983.8655591","inverse","4","1","1","¿Cuantas teclas tiene un teclado 
de computadora generalmente? ","Entre 99 y 108","Entre 109 y 113","","1","1","1","individual","left","1.29614305496","2985.16177106","3.70385694504","2989.02249908","5.38512015343","2994.40766096","0.614879846573","2995.07506013","2996.07723498","2996.12543201","2999.12842607","1","2999.142524","3001.51397204",""
"sujeto_774f4a36","1","4","3","99","3001.69371295","direct","1","1","1","¿Cuál Departamento tiene
 mayor superficie?","Río Negro","Soriano","","0","0","0","individual","left","1.19805192947","3002.89181113","3.80194807053","3006.86606312","4.36658811569","3011.23270607","1.63341188431","3012.91680408","3014.62921405","3014.66776204","3017.67067099","0","3017.6849041","3022.00926495",""
"sujeto_774f4a36","1","4","4","100","3022.15476012","inverse","3","1","2","¿Cuál es el apellido de las 
hermanastras  de  cenicienta?","Tremaine","Truman","","0","0","1","competitive","left","1.1600291729","3023.31485605","3.8399708271","3027.31010604","0.57563996315","3027.88579011","5.42436003685","3033.35890102","3035.22840405","3035.31177402","3038.31327009","0","3038.32952213","3041.02551413",""
"sujeto_774f4a36","1","4","5","101","3041.18067312","direct","4","1","4","¿Cuál película ganó un
 Oscar a mejor película?","Alto Impacto","Cache","","0","0","1","competitive","left","1.15317511559","3042.33392096","3.84682488441","3046.35286498","4.45696091652","3050.80989194","1.54303908348","3052.38748813","3053.50687408","3053.587919","3056.5909071","0","3056.60489011","3058.86926293",""
"sujeto_774f4a36","1","4","6","102","3059.00705409","inverse","1","1","3","¿A cuántos centímetros
equivale la medida pié?","25","30","","0","0","1","competitive","left","1.21186518669","3060.21899199","3.78813481331","3064.1620841","3.38375210762","3067.54587507","2.61624789238","3070.21302199","3071.252985","3071.33148813","3074.33449197","0","3074.34771609","3079.748487",""
"sujeto_774f4a36","1","4","7","103","3079.91624808","direct","2","1","2","¿Qué departamento es mas grande?","Cerro Largo","Paysandú","","0","0","0","competitive","left","1.15763020515","3081.07392502","3.84236979485","3085.0730381","4.38680505753","3089.45990801","1.61319494247","3091.12413096","3092.72388005","3092.80894399","3095.81193614","0","3095.82621694","3099.93619013",""
"sujeto_774f4a36","1","4","8","104","3100.07704902","inverse","2","1","3","¿Quién pintó la Mona Lisa?","Picasso","Da Vinci","right","0","0","1","competitive","right","1.01486182213","3101.09197307","3.98513817787","3105.26652908","2.67248702049","3107.93908715","3.32751297951","3111.31705809","3112.92290711","3113.0025661","3116.00556207","1","3116.01955104","3118.18185496",""
"sujeto_774f4a36","1","4","9","105","3118.32128501","direct","4","1","3","¿Cuántos litros hay en un galon?","3.54","3.78","","1","1","1","competitive","left","1.7577419281","3120.07909203","3.2422580719","3123.49305105","3.56990885735","3127.06299996","2.43009114265","3129.54398012","3131.06185699","3131.14544106","3134.14842892","1","3134.162709","3139.95325708",""
"sujeto_774f4a36","1","4","10","106","3140.096807","inverse","4","1","1","¿Cuántas teclas tiene
 un piano moderno?","80","88","","0","0","1","individual","left","1.19626498222","3141.29316592","3.80373501778","3145.25452399","4.33448290825","3149.58905196","1.66551709175","3151.30497098","3152.31342101","3152.35601711","3155.35896707","0","3155.37280393","3162.17056394",""
"sujeto_774f4a36","1","4","11","107","3162.30814409","direct","4","1","3","¿Cuántos países hay en África?","54","62","","0","0","1","competitive","left","1.48596405983","3163.79417992","3.51403594017","3167.4830761","3.29708719254","3170.78022504","2.70291280746","3173.51629901","3175.20683312","3175.28393292","3178.28691697","0","3178.30165696","3186.106426",""
"sujeto_774f4a36","1","4","12","108","3186.23662305","inverse","1","1","3","¿En qué siglo se crearon
 las primeras pistolas?","XV","XIII","","1","1","1","competitive","left","1.15958786011","3187.396281","3.84041213989","3191.39463997","4.1195640564","3195.51426601","1.8804359436","3197.44548202","3199.393399","3199.48043203","3202.48126197","1","3202.49753714","3205.73059392",""
"sujeto_774f4a36","1","4","13","109","3205.86553597","direct","3","1","4","¿En qué año se estrenó 
la serie friends?","1994","1995","","0","0","1","competitive","left","0.941752910614","3206.80735111","4.05824708939","3211.02231097","4.54497599602","3215.56735301","1.45502400398","3217.05628514","3218.93163204","3219.00676513","3222.0097611","0","3222.02505612","3227.03113198",""
"sujeto_774f4a36","1","4","14","110","3227.17638111","inverse","3","1","4","¿En qué año nació Hitler?","1889","1887","","0","0","1","competitive","right","0.988091945648","3228.16451907","4.01190805435","3232.31553602","2.45284485817","3234.76844311","3.54715514183","3238.36612415","3239.48048711","3239.55157113","3242.55455804","0","3242.56788397","3247.59487796",""
"sujeto_774f4a36","1","4","15","111","3247.73717093","direct","1","1","4","¿Cuánto pesa un elefante Africano?","6000 kilos","5400 kilos","","0","0","0","competitive","right","0.97323012352","3248.71044493","4.02676987648","3252.92661715","3.67879509926","3256.60545611","2.32120490074","3258.97762108","3260.33354712","3260.41200304","3263.41497302","0","3263.42628193","3270.13327599",""
"sujeto_774f4a36","1","4","16","112","3270.27822208","inverse","1","1","2","¿Qué porcentaje de 
la población es zurda?","10%","7%","","1","1","0","competitive","right","1.05731296539","3271.33560205","3.94268703461","3275.45455313","3.72189211845","3279.17650914","2.27810788155","3281.505615","3282.74872708","3282.8237071","3285.82438302","1","3285.84136915","3291.82111096",""
"sujeto_774f4a36","1","4","17","113","3291.95961213","direct","1","1","2","¿En qué año se estrenó
Volver al futuro?","1984","1985","","0","0","1","competitive","right","1.01602315903","3292.97568512","3.98397684097","3297.13007903","3.73749494553","3300.86763406","2.26250505447","3303.18285513","3304.74468708","3304.81721592","3307.82018113","0","3307.83420992","3314.92566609",""
"sujeto_774f4a36","1","4","18","114","3315.06958413","inverse","3","1","2","¿Cuántos jugadores hay en un 
equipo de baseball?","9","8","","1","1","0","competitive","left","1.15808010101","3316.22770715","3.84191989899","3320.24373603","3.98291301727","3324.22669005","2.01708698273","3326.29162812","3327.90591192","3327.97656012","3330.97952795","1","3330.99380302","3335.96926212",""
"sujeto_774f4a36","1","4","19","115","3336.11170411","direct","2","1","1","¿Cuántos Oscar ganó
 la película titanic?","13","11","","1","1","1","individual","right","1.30805110931","3337.41981697","3.69194889069","3341.27193999","4.10089993477","3345.37290311","1.89910006523","3347.32295513","3348.62499404","3348.67426801","3351.67724609","1","3351.69158196","3356.2942481",""
"sujeto_774f4a36","1","4","20","116","3356.44286203","inverse","4","1","4","¿En qué año comenzó
la segunda guerra mundial?","1939","1976","left","0","0","1","competitive","right","1.03480386734","3357.47785401","3.96519613266","3361.61668301","4.21017503738","3365.82691693","1.78982496262","3367.66743803","3369.46729708","3369.55184293","3372.55480313","0","3372.56878614","3376.555933",""
"sujeto_774f4a36","1","4","21","117","3376.68763614","direct","2","1","4","¿Cuántos biomas hay en Uruguay?","5","4","","0","0","1","competitive","left","0.974334001541","3377.66204596","4.02566599846","3381.83878398","3.88218688965","3385.72103715","2.11781311035","3387.87435412","3389.67172098","3389.74263406","3392.74561596","0","3392.75993896","3399.00936604",""
"sujeto_774f4a36","1","4","22","118","3399.14413905","inverse","2","1","3","¿Cuándo murió Pablo Escobar?","1993","1997","","1","1","1","competitive","right","1.08095097542","3400.22518992","3.91904902458","3404.30523014","4.55479598045","3408.8600831","1.44520401955","3410.35618997","3412.13902712","3412.2237041","3415.2266891","1","3415.24095702","3420.94462204",""
"sujeto_774f4a36","1","4","23","119","3421.09296608","direct","1","1","4","¿Qué serie ha ganado mas premios?","Friends","Murphy Brown","","1","1","0","competitive","right","0.884176015854","3421.97721815","4.11582398415","3426.26586509","3.81131505966","3430.07722497","2.18868494034","3432.30049396","3433.65290308","3433.73520494","3436.73817205","1","3436.75242496","3442.31402802",""
"sujeto_774f4a36","1","4","24","120","3442.45377803","inverse","4","1","2","¿Cuántas fichas tiene el dominó?","26","28","","1","1","1","competitive","left","1.62442398071","3444.0782721","3.37557601929","3447.61146402","3.41979217529","3451.03129601","2.58020782471","3453.66168308","3454.71700406","3454.79661202","3457.79959297","1","3457.81381297","3463.0569241",""
"sujeto_774f4a36","1","4","25","121","3463.19797397","direct","2","1","4","¿Cuántos son los dientes de leche?","20","25","","0","0","1","competitive","right","0.98536491394","3464.18338394","4.01463508606","3468.35211492","4.87522506714","3473.22740698","1.12477493286","3474.38824415","3476.09754014","3476.17172694","3479.17467713","0","3479.18972993","3481.33543706",""
"sujeto_774f4a36","1","4","26","122","3481.4746871","inverse","3","1","3","¿Cuántos gramos son una onza?","22","28","","0","0","1","competitive","right","1.364757061","3482.83951807","3.635242939","3486.63150811","3.85293507576","3490.484483","2.14706492424","3492.68206811","3494.67690015","3494.74949002","3497.75245905","0","3497.76773715","3504.05798793",""
"sujeto_774f4a36","1","4","27","123","3504.18700194","direct","3","1","1","¿Cuándo salió el primer album
 de los Beatles?","1963","1962","","1","1","1","individual","right","1.15557599068","3505.34264612","3.84442400932","3509.35916615","4.92938113213","3514.28859401","1.07061886787","3515.39460993","3516.55824614","3516.59423494","3519.59721303","1","3519.61243606","3523.38445115",""
"sujeto_774f4a36","1","4","28","124","3523.53038597","inverse","3","1","3","¿Quién fundó la empresa apple?","Carlos Slim","Steve Jobs","","1","1","1","competitive","left","1.06122803688","3524.59167695","3.93877196312","3528.71986413","5.02570295334","3533.74563098","0.974297046661","3534.75450301","3535.86918712","3535.95447707","3538.95746613","1","3538.97251296","3545.27037001",""
"sujeto_774f4a36","1","4","29","125","3545.42429209","direct","4","1","2","¿Cuántos municipios hay
 en Montevideo?","8","7","","1","1","1","competitive","left","0.874428987503","3546.29879904","4.1255710125","3550.57842398","3.79333591461","3554.37179899","2.20666408539","3556.6138041","3558.52858114","3558.61556506","3561.61856103","1","3561.63358307","3563.714715",""
"sujeto_774f4a36","1","4","30","126","3563.85027814","inverse","1","1","1","¿Cuántos kilómetros hay
 de Montevideo a Artigas?","632","599","","0","0","0","individual","left","1.4446041584","3565.29495907","3.5553958416","3569.02385211","3.87201499939","3572.89590907","2.12798500061","3575.07437611","3576.55752611","3576.6095171","3579.6125021","0","3579.62685895","3585.67893314",""
"sujeto_774f4a36","1","4","31","127","3585.82794714","direct","2","1","2","¿En qué año nació 
Leonardo Da Vinci?","1452","1511","","1","1","0","competitive","left","0.975980043411","3586.80397415","4.02401995659","3590.98580194","4.66717195511","3595.65301394","1.33282804489","3597.03736806","3598.89099097","3598.97101903","3601.97327209","1","3601.98837304","3605.13479614",""
"sujeto_774f4a36","1","4","32","128","3605.27334499","inverse","3","1","1","¿A qué continente
 pertenece el país Gabón?","Africa","Oceanía","","0","0","1","individual","right","1.09966897964","3606.37305903","3.90033102036","3610.42737699","5.34874200821","3615.77618003","0.651257991791","3616.48057008","3618.29225206","3618.33082294","3621.33323812","0","3621.3493011","3626.58719802",""
