"code","nro_aplicante","nro_bloque","nro_trial_bloque","nro_trial_global","show_game_type","choice_order","rival","pay_individual","pay_competitive","question","answer_left_text","answer_right_text","correct_answer","outcome_individual","outcome_competitive","outcome_rival","game_type","answer","social_time","rt_game_type","feedback_delay","show_question","answer_time","rt_answer_global","feedback_delay_2","show_jitter","jitter_time","show_outcome","outcome_time","outcome_participant_real","show_final_jitter","second_jitter_time","inicio_descanso"
"sujeto_665d6eab","1","1","1","1","13.5160298347","direct","3","1","4","¿Cuántos centímetros corresponden
al talle 36 del calzado?","23","24","","0","0","1","competitive","right","2.18755102158","15.703622818","2.81244897842","18.6879339218","4.11167287827","22.7996468544","1.88832712173","24.7217268944","25.7500038147","25.8230659962","28.8260178566","0","28.8404178619","31.0029098988",""
"sujeto_665d6eab","1","1","2","2","31.1447248459","inverse","3","1","2","¿Cuántas metros mide la Intendencia
Municipal de Montevideo? ","84","78","","0","0","1","competitive","right","2.2730038166","33.4178099632","2.7269961834","36.2983629704","2.88341903687","39.1818408966","3.11658096313","42.3485338688","44.2265758514","44.2995738983","47.3025548458","0","47.3180999756","49.4108378887",""
"sujeto_665d6eab","1","1","3","3","49.5357339382","direct","1","1","3","¿Cuántas La Pasiva
 hay en uruguay?","15","11","","1","1","1","competitive","left","2.58221101761","52.1180188656","2.41778898239","54.7050189972","3.85691404343","58.56199193","2.14308595657","60.758510828","62.3701708317","62.443723917","65.4467117786","1","65.4601428509","69.7385129929",""
"sujeto_665d6eab","1","1","4","4","69.8971838951","inverse","3","1","3","¿De que color es la camiseta de uruguay?","blanca","celeste","right","1","1","1","competitive","left","2.78298091888","72.6802129745","2.21701908112","75.0518839359","4.30135917664","79.3532819748","1.69864082336","81.1024198532","82.3071379662","82.3865129948","85.3894479275","0","85.4046969414","88.8585789204",""
"sujeto_665d6eab","1","1","5","5","88.9889338017","direct","2","1","1","¿Cuánto metros mide
la torre Eiffel?","333","324","","1","1","1","competitive","left","2.27843594551","91.2674148083","2.72156405449","94.1452748775","3.81115794182","97.9564929008","2.18884205818","100.178614855","101.699993849","101.780591011","104.783535004","1","104.798183918","111.834841967",""
"sujeto_665d6eab","1","1","6","6","111.96626091","inverse","3","1","4","¿Cuantas ciudades existen
 en todo el uruguay?","63","72","","0","0","1","competitive","left","2.20739507675","114.173766851","2.79260492325","117.140631914","3.77101302147","120.911682844","2.22898697853","123.191133976","124.245957851","124.325568914","127.328557014","0","127.343194008","134.969758987",""
"sujeto_665d6eab","1","1","7","7","135.114540815","direct","1","1","1","¿Cuantos estados tiene África?","52","54","","1","1","0","individual","right","2.12353491783","137.238173008","2.87646508217","140.302649975","3.44225001335","143.744966984","2.55774998665","146.352952003","148.216921806","148.255011797","151.257959843","1","151.272473812","157.033499956",""
"sujeto_665d6eab","1","1","8","8","157.176853895","inverse","4","1","4","¿En qué año nació
 Stephen Hawking?","1952","1942","","0","0","1","competitive","left","2.56532001495","159.74224782","2.43467998505","162.344081879","3.89809584618","166.242236853","2.10190415382","168.381577969","169.825895786","169.899041891","172.902051926","0","172.917240858","179.016561985",""
"sujeto_665d6eab","1","1","9","9","179.151801825","direct","2","1","3","¿Cuánto años tenía Artigas
 cuando se fue a Paraguay?","56","57","","1","1","1","competitive","left","1.84059095383","180.992455006","3.15940904617","184.325873852","5.02467703819","189.350610971","0.975322961807","190.357758999","191.907270908","191.991981983","194.994988918","1","195.009562969","201.056869984",""
"sujeto_665d6eab","1","1","10","10","201.194480896","inverse","1","1","2","¿Cuantos milímetros 
mide una hoja A2?","420x592","420x594","","0","0","1","competitive","left","2.77422595024","203.968770981","2.22577404976","206.368068933","4.30474209785","210.672851801","1.69525790215","212.422182798","213.990605831","214.072691917","217.075658798","0","217.090227842","224.163808823",""
"sujeto_665d6eab","1","1","11","11","224.295494795","direct","3","1","3","¿Cuál es la menor temperatura 
registrada en Uruguay?","-5.4","-7.4","","0","0","1","competitive","left","2.53050899506","226.826068878","2.46949100494","229.466111898","4.38390493393","233.850084782","1.61609506607","235.517446995","237.199499846","237.284544945","240.287531853","0","240.302078009","244.03536582",""
"sujeto_665d6eab","1","1","12","12","244.171475887","inverse","2","1","2","¿Cuantos años hace que 
se fundó facebook?","18","17","","0","0","0","competitive","left","1.57978701591","245.751305819","3.42021298409","249.323283911","5.23902511597","254.56236887","0.760974884033","255.376067877","256.748829842","256.826507807","259.829421997","0","259.844599009","262.619216919",""
"sujeto_665d6eab","1","1","13","13","262.763656855","direct","1","1","4","¿Cuál animal es más
 pesado en promedio?","Rinoceronte","Hipopotamo","","0","0","0","competitive","right","2.30580997467","265.069539785","2.69419002533","267.969656944","3.15788412094","271.127578974","2.84211587906","274.020470858","275.099735975","275.171563864","278.174529791","0","278.188910961","282.029906988",""
"sujeto_665d6eab","1","1","14","14","282.156967878","inverse","1","1","2","¿Qué personaje de dragon ball 
murió más veces?","Chaoz","Krillin","","1","1","0","competitive","right","2.2207570076","284.377799988","2.7792429924","287.328650951","4.26507902145","291.593788862","1.73492097855","293.365199804","294.823018789","294.898921967","297.901916981","1","297.916653872","305.689586878",""
"sujeto_665d6eab","1","1","15","15","305.817180872","direct","3","1","2","La universidad de oxford. 
existe desde:","1096","1249","","1","1","0","individual","right","3.04583597183","308.863083839","1.95416402817","310.975619793","5.24039196968","316.216075897","0.759608030319","317.027627945","318.076448917","318.128336906","321.131294012","1","321.144549847","327.835404873",""
"sujeto_665d6eab","1","1","16","16","327.963228941","inverse","3","1","1","¿Qué escritor latino ganó antes
 el premio nobel?"," García Marquez","Neruda","","0","0","1","individual","left","2.34803509712","330.31131196","2.65196490288","333.120631933","4.36276388168","337.483440876","1.63723611832","339.172487974","340.912413836","340.955844879","343.958830833","0","343.974078894","347.434572935",""
"sujeto_665d6eab","1","1","17","17","347.576714993","direct","4","1","3","¿Cuántos dientes tiene un
 tiburón blanco?","6000","3000","","0","0","1","competitive","right","2.18380308151","349.760588884","2.81619691849","352.745530844","3.28901290894","356.034599781","2.71098709106","358.79873395","359.837746859","359.916505814","362.919480801","0","362.933826923","367.742519855",""
"sujeto_665d6eab","1","1","18","18","367.902870893","inverse","4","1","1","¿Cuánto mide el paralelo Ecuador?","40.000km","70.000km","","0","0","1","individual","left","1.55389904976","369.456833839","3.44610095024","373.058851957","4.34901118279","377.407931805","1.65098881721","379.109166861","381.065302849","381.109983921","384.112948895","0","384.128503799","387.731065989",""
"sujeto_665d6eab","1","1","19","19","387.881594896","direct","4","1","2","¿Cuál fue el primer libro 
de Stephen King?","Carrie","The Stand","","1","1","1","individual","left","2.48945593834","390.371119976","2.51054406166","393.085229874","3.45282483101","396.538112879","2.54717516899","399.137024879","400.881078959","400.921450853","403.924429893","1","403.938738823","408.413129807",""
"sujeto_665d6eab","1","1","20","20","408.540413857","inverse","2","1","3","¿Qué civilización practicaba
 la momificación?","Grecia","Egipto","right","0","0","1","competitive","right","3.63596987724","412.176446915","1.36403012276","413.696965933","2.86445188522","416.561463833","3.13554811478","419.747402906","421.686704874","421.765895844","424.768872976","1","424.783097982","429.011909008",""
"sujeto_665d6eab","1","1","21","21","429.155048847","direct","4","1","4","¿Cuántos millones de visitas
 recibe google por minuto?","3.0","4.5","","0","0","1","competitive","right","1.49557900429","430.650672913","3.50442099571","434.307291985","3.75540399551","438.062753916","2.24459600449","440.358443975","441.873332977","441.958897829","444.961846828","0","444.977577925","452.100267887",""
"sujeto_665d6eab","1","1","22","22","452.231655836","inverse","1","1","3","La máquina de fax. se inventó en:","1843","1960","","0","0","1","competitive","right","1.63220095634","453.863917828","3.36779904366","457.386757851","3.89417386055","461.280969858","2.10582613945","463.420058012","464.661273003","464.737984896","467.740920782","0","467.755487919","470.991823912",""
"sujeto_665d6eab","1","1","23","23","471.126874924","direct","2","1","4","En la verdadera historia de los
 300 espartanos. habían:","300 soldados","4300 soldados","","1","1","1","competitive","left","2.17034006119","473.297283888","2.82965993881","476.296086788","4.29115486145","480.587280989","1.70884513855","482.347798824","483.60905385","483.681872845","486.684864998","1","486.699292898","490.501087904",""
"sujeto_665d6eab","1","1","24","24","490.634120941","inverse","1","1","4","¿Cuántos milímetros crece
 el pelo por día?","0.4","0.04","","0","0","0","competitive","right","1.90054893494","492.534747839","3.09945106506","495.790036917","4.16447114944","499.954547882","1.83552885056","501.839125872","503.599862814","503.673185825","506.676178932","0","506.690621853","513.425715923",""
"sujeto_665d6eab","1","1","25","25","513.580160856","direct","4","1","1","¿Cuánto mide la baldosa gris 
clásica de Montevideo?","22x22 cm.","20x20 cm.","","1","1","1","individual","right","2.12366890907","515.703880787","2.87633109093","518.735653877","4.77611684799","523.511826992","1.22388315201","524.770442963","526.765263796","526.804036856","529.807004929","1","529.822521925","535.365328789",""
"sujeto_665d6eab","1","1","26","26","535.509977818","inverse","2","1","2","¿Cuántas películas de rápidos
 y furiosos hay?","10","11","","1","1","0","competitive","left","1.61401295662","537.124058962","3.38598704338","540.66373992","3.06029081345","543.72406888","2.93970918655","546.697445869","548.055478811","548.132655859","551.135633945","1","551.150237799","553.184973955",""
"sujeto_665d6eab","1","1","27","27","553.337026834","direct","3","1","1","¿Cuántos masters 1000
 ganó Del Potro?","1","2","","1","1","1","individual","right","1.55424189568","554.891339779","3.44575810432","558.473371983","4.347012043","562.820443869","1.652987957","564.507385969","566.261262894","566.307989836","569.310956955","1","569.326219797","576.722537994",""
"sujeto_665d6eab","1","1","28","28","576.861360788","inverse","2","1","4","¿Cuántos meses dura el 
embarazo de una leona?","3 meses","4 meses","","0","0","1","competitive","left","1.67014598846","578.531564951","3.32985401154","582.0025208","3.94406795502","585.946645975","2.05593204498","588.052303791","589.163388968","589.236185789","592.23917079","0","592.254308939","598.976742983",""
"sujeto_665d6eab","1","1","29","29","599.104950905","direct","1","1","1","¿En qué año fue creado
 el sandwich?","1762","1653","","1","1","0","individual","right","2.23491692543","601.339931965","2.76508307457","604.280789852","4.85820198059","609.139030933","1.14179801941","610.331600904","611.930183887","611.982091904","614.985044956","1","615.000749826","618.471391916",""
"sujeto_665d6eab","1","1","30","30","618.619026899","inverse","4","1","2","El nombre de la moneda de Vietnam es:","Dinar","Dong","","0","0","1","competitive","left","3.06721401215","621.686304808","1.93278598785","623.790582895","3.58571195602","627.376338959","2.41428804398","629.841587782","631.273531914","631.360138893","634.362223864","0","634.376832962","640.545274973",""
"sujeto_665d6eab","1","1","31","31","640.678162813","direct","2","1","1","¿cuantos aleteos puede dar 
un colibrí por segundo?","120","50","","0","0","0","individual","left","2.83134198189","643.509548903","2.16865801811","645.832569838","4.03204989433","649.864686966","1.96795010567","651.8708179","653.603231907","653.655237913","656.658218861","0","656.672390938","660.884607792",""
"sujeto_665d6eab","1","1","32","32","661.023863792","inverse","4","1","3","¿Qué altura promedio tienen
 los hombres uruguayos?","1.73 m","1.72 m","","1","1","1","competitive","left","1.18893194199","662.212867975","3.81106805801","666.19379878","4.10104203224","670.294901848","1.89895796776","672.245815992","673.508232832","673.596430779","676.597317934","1","676.614765882","681.090726852",""
"sujeto_665d6eab","1","2","1","33","831.131878853","direct","1","1","1","¿En qué año nació 
el actor Bradd Pitt?","1967","1963","","1","1","1","individual","left","2.1093480587","833.241271973","2.8906519413","836.288447857","3.63384389877","839.922348976","2.36615610123","842.337029934","843.432896852","843.470582962","846.473559856","1","846.48880291","852.416369915","681.102591991"
"sujeto_665d6eab","1","2","2","34","852.539718866","inverse","2","1","1","¿Cual es el segundo 
monte más alto?","Kanchenjunga","K2","","1","1","1","individual","left","1.6657948494","854.205578804","3.3342051506","857.698552847","4.43711400032","862.135730982","1.56288599968","863.748786926","865.200226784","865.250522852","868.253523827","1","868.267056942","871.696903944",""
"sujeto_665d6eab","1","2","3","35","871.835559845","direct","3","1","1","¿Cuándo finalizó la construcción
 del Palacio Legislativo?","1925","1917","","0","0","1","individual","left","2.22186088562","874.05752182","2.77813911438","877.006620884","3.49123382568","880.497895956","2.50876617432","883.059374809","884.700261831","884.743860006","887.746823788","0","887.761379957","893.458930969",""
"sujeto_665d6eab","1","2","4","36","893.597461939","inverse","3","1","3","¿Cuántos integrantes tenía
 en su inicio  el cuarteto de nos?","3","4","","1","1","1","competitive","left","1.79859805107","895.396132946","3.20140194893","898.769472837","4.6937379837","903.46325779","1.3062620163","904.804214001","905.937317848","906.021429777","909.02442193","1","909.038556814","914.688349962",""
"sujeto_665d6eab","1","2","5","37","914.823997974","direct","2","1","3","¿Qué valor tiene el número pi?","3.14","4.18","left","0","0","1","competitive","left","2.17545008659","916.999490976","2.82454991341","919.981208801","2.62626004219","922.60750699","3.37373995781","926.031089783","927.485346794","927.566766977","930.569702864","1","930.583351851","937.504277945",""
"sujeto_665d6eab","1","2","6","38","937.637693882","inverse","2","1","2","¿Cuál es la esperanza de vida
 en Uruguay?","75","77","","1","1","0","competitive","left","1.39867591858","939.036435843","3.60132408142","942.791862011","4.36635899544","947.158262014","1.63364100456","948.843433857","950.497262001","950.577105999","953.580099821","1","953.594666958","960.057698965",""
"sujeto_665d6eab","1","2","7","39","960.196787834","direct","1","1","2","¿Cuantos pisos tiene la torre 
de las comunicaciones?","26","32","","1","1","0","competitive","right","1.83523392677","962.032083988","3.16476607323","965.370700836","4.64821481705","970.018974781","1.35178518295","971.42168498","973.250327826","973.321823835","976.324783802","1","976.340348959","978.486568928",""
"sujeto_665d6eab","1","2","8","40","978.626883984","inverse","2","1","4","¿En qué país sudamericano 
no hay McDonalds?","Bolivia","Venezuela","","0","0","1","competitive","right","1.77094602585","980.397904873","3.22905397415","983.779649973","3.91798615456","987.697675943","2.08201384544","989.830611944","991.139988899","991.214025974","994.217013836","0","994.232204914","1000.59192681",""
"sujeto_665d6eab","1","2","9","41","1000.73631978","direct","3","1","1","¿En qué año empieza
 la Edad Media?","476","512","","1","1","1","individual","right","2.39114499092","1003.12752986","2.60885500908","1005.94033384","3.60202598572","1009.542418","2.39797401428","1011.99130487","1013.39507389","1013.44254279","1016.44551778","1","1016.45994401","1019.448493",""
"sujeto_665d6eab","1","2","10","42","1019.59526086","inverse","3","1","4","¿Hace cuántos años surgió
 el ser humano?","200mil","300mil","","0","0","0","competitive","left","1.45290398598","1021.04821086","3.54709601402","1024.76739788","4.90673995018","1029.67422795","1.09326004982","1030.80067587","1032.68673301","1032.76830983","1035.77131391","0","1035.78597784","1039.09625793",""
"sujeto_665d6eab","1","2","11","43","1039.23758197","direct","3","1","4","¿Cuántas cuadras tiene
 actualmente 18 de julio? ","36","33","","0","0","1","competitive","right","2.05541205406","1041.29303694","2.94458794594","1044.40841079","5.14849996567","1049.55695486","0.851500034332","1050.44519687","1052.14730501","1052.22890401","1055.23188686","0","1055.24600196","1059.972296",""
"sujeto_665d6eab","1","2","12","44","1060.11648798","inverse","1","1","4","¿Qué juego de equipo se 
considera mas rápido?","Lacrosse","Badminton","","0","0","0","competitive","left","1.50532913208","1061.62187982","3.49467086792","1065.25438595","4.99137115479","1070.24582887","1.00862884521","1071.28810787","1072.53121781","1072.60594487","1075.60893393","0","1075.62318587","1083.61110997",""
"sujeto_665d6eab","1","2","13","45","1083.75791788","direct","1","1","3","¿Qué promedio de edad 
vive una jirafa? ","25","20","","0","0","1","competitive","left","2.02368998528","1085.78167796","2.97631001472","1088.91532493","4.40222001076","1093.31760883","1.59777998924","1094.96681499","1096.72830486","1096.80125999","1099.80420685","0","1099.81833887","1105.77406693",""
"sujeto_665d6eab","1","2","14","46","1105.91957593","inverse","1","1","2","¿Cuántos grandes lagos hay?","7","5","","0","0","1","competitive","left","3.36180996895","1109.28143001","1.63819003105","1111.0765059","4.73578596115","1115.81233597","1.26421403885","1117.12846088","1118.42059994","1118.49576092","1121.49875593","0","1121.51312494","1129.33452797",""
"sujeto_665d6eab","1","2","15","47","1129.48109078","direct","3","1","2","¿Cuántos discos de estudio
 grabó Johhny Cash? ","54","43","","1","1","0","individual","right","2.41014909744","1131.89128399","2.58985090256","1134.65545988","3.92260599136","1138.57813001","2.07739400864","1140.70653296","1141.98520684","1142.04120588","1145.04417801","1","1145.05855584","1151.70940495",""
"sujeto_665d6eab","1","2","16","48","1151.86096787","inverse","4","1","1","¿Cuántos barrios tiene
 Montevideo? ","71","62","","0","0","1","individual","right","1.6380610466","1153.49909186","3.3619389534","1157.03346086","3.61552882195","1160.64903378","2.38447117805","1163.08440089","1164.09145999","1164.13521194","1167.13819194","0","1167.15240693","1172.61442089",""
"sujeto_665d6eab","1","2","17","49","1172.75706601","direct","3","1","3","¿Qué edad tiene Homero Simpson?","36","42","","0","0","1","competitive","right","2.67082500458","1175.42795682","2.32917499542","1177.92564678","3.83423304558","1181.75992179","2.16576695442","1183.96205997","1185.33810282","1185.41257","1188.41560078","0","1188.43069386","1192.819453",""
"sujeto_665d6eab","1","2","18","50","1192.96670389","inverse","4","1","2","¿Cuántos países con monarquía 
hay en europa actualmente? ","6","10","","1","1","1","individual","right","2.3561258316","1195.32290196","2.6438741684","1198.13724089","5.59746479988","1203.73476982","0.402535200119","1204.19004989","1205.62835693","1205.67337394","1208.67628479","1","1208.69090891","1214.84773278",""
"sujeto_665d6eab","1","2","19","51","1214.9749589","direct","2","1","3","¿Cuántos capítulos de
 Friends existen? ","236","228","","1","1","1","competitive","right","1.39577078819","1216.37080193","3.60422921181","1220.13266492","5.12500786781","1225.25771689","0.874992132187","1226.16627789","1227.47184801","1227.55065489","1230.55362701","1","1230.56809998","1232.94374394",""
"sujeto_665d6eab","1","2","20","52","1233.06985784","inverse","1","1","3","¿Cuántas óperas compuso Mozart? ","27","22","","1","1","1","competitive","right","1.53278708458","1234.60270882","3.46721291542","1238.22465682","3.5728828907","1241.79759979","2.4271171093","1244.27532291","1245.56742287","1245.6429019","1248.64586496","1","1248.66120982","1255.97265697",""
"sujeto_665d6eab","1","2","21","53","1256.11225581","direct","4","1","3","¿Cuántos mundiales de fútbol 
femenino ha realizado FIFA? ","9","7","","1","1","1","competitive","right","2.12127304077","1258.23360085","2.87872695923","1261.27053189","5.32794380188","1266.59853697","0.67205619812","1267.30493593","1268.54860091","1268.62202501","1271.62500381","1","1271.63911986","1277.74158597",""
"sujeto_665d6eab","1","2","22","54","1277.87778497","inverse","3","1","2","¿Cuál es la temperatura 
media anual en Montevideo? ","17.5","16.3","","0","0","1","individual","right","3.95966911316","1281.8374989","1.04033088684","1283.03132796","5.61609005928","1288.64747787","0.38390994072","1289.08289981","1291.02147293","1291.06713581","1294.06936288","0","1294.08500981","1300.65453696",""
"sujeto_665d6eab","1","2","23","55","1300.90591192","direct","2","1","2","¿En qué año se estrenó el
 videojuego The Sims? ","2000","2002","","0","0","0","competitive","left","1.64756822586","1302.55354381","3.35243177414","1306.05728793","4.59915018082","1310.65649796","1.40084981918","1312.10940099","1313.97142601","1314.06065989","1317.06363893","0","1317.078161","1324.47181582",""
"sujeto_665d6eab","1","2","24","56","1324.61683297","inverse","2","1","1","¿Cuál es la canción con 
mas covers? ","Yesterday","Stand by me","","0","0","0","individual","right","2.26361513138","1326.88051891","2.73638486862","1329.77024388","4.26015901566","1334.0304718","1.73984098434","1335.80671597","1337.20524597","1337.25732088","1340.26026392","0","1340.27466679","1344.44550896",""
"sujeto_665d6eab","1","2","25","57","1344.5757978","direct","1","1","4","¿Cuánto duró la guerra
 de los 100 años?","116","123","","0","0","0","competitive","left","1.68160390854","1346.25746584","3.31839609146","1349.73233294","3.86295413971","1353.59534383","2.13704586029","1355.76634288","1357.24717879","1357.31764483","1360.32062697","0","1360.33472681","1362.65451384",""
"sujeto_665d6eab","1","2","26","58","1362.80450797","inverse","4","1","4","¿Qué color tiene la  bandera de Brasil?","Amarillo","Naranja","left","0","0","1","competitive","left","1.64489912987","1364.449471","3.35510087013","1367.97511101","2.21926999092","1370.19444895","3.78073000908","1374.02530599","1375.59184384","1375.67664099","1378.67728686","1","1378.69389796","1381.72669101",""
"sujeto_665d6eab","1","2","27","59","1381.88028979","direct","4","1","3","¿Qué carabela de 
Colon no volvió del viaje?","Santa María","La pinta","","0","0","1","competitive","right","1.40911197662","1383.28944492","3.59088802338","1387.03485799","4.95346593857","1391.98838401","1.04653406143","1393.08563399","1394.57624388","1394.65318298","1397.65356898","0","1397.67118478","1399.77062488",""
"sujeto_665d6eab","1","2","28","60","1399.90565896","inverse","4","1","4","¿Cuántos huesos tiene
 un adulto humano?","217","206","","0","0","1","competitive","left","1.40475416183","1401.31048679","3.59524583817","1405.07728887","3.02410101891","1408.10144997","2.97589898109","1411.12773585","1412.3987689","1412.47829986","1415.48126078","0","1415.49646282","1423.33420992",""
"sujeto_665d6eab","1","2","29","61","1423.48435688","direct","1","1","1","¿Qué país africano fue 
fundado por esclavos?","Liberia","Chad","","0","0","0","individual","left","1.85404396057","1425.33844399","3.14595603943","1428.65651679","3.94493103027","1432.601511","2.05506896973","1434.69024801","1436.68190598","1436.72483087","1439.72780991","0","1439.74238086","1447.73325682",""
"sujeto_665d6eab","1","2","30","62","1447.87660789","inverse","4","1","2","¿A cuánto asciende la cima
 del monte Everest?","7.990 mts","8.848 mts","","0","0","1","individual","right","2.6748509407","1450.55150294","2.3251490593","1453.04966879","3.05773591995","1456.10746288","2.94226408005","1459.10242295","1460.2872479","1460.33747101","1463.34038496","0","1463.35496783","1470.53901482",""
"sujeto_665d6eab","1","2","31","63","1470.69366789","direct","4","1","1","¿Cuál es el país mas chico?","Sealand","Luxemburgo","","1","1","1","individual","right","2.42583990097","1473.11958289","2.57416009903","1475.86397386","4.98253297806","1480.84657288","1.01746702194","1481.91554689","1483.779073","1483.83279991","1486.83577394","1","1486.85040379","1489.97270083",""
"sujeto_665d6eab","1","2","32","64","1490.12050486","inverse","2","1","4","¿Cuántas pirámides hay en Egipto?","10000","11000","","1","1","1","competitive","right","1.62604284286","1491.74660897","3.37395715714","1495.27396798","4.35958194733","1499.63360786","1.64041805267","1501.30827498","1502.34187078","1502.42578483","1505.42877293","1","1505.44304895","1510.55131793",""
"sujeto_665d6eab","1","3","1","65","1617.76771283","direct","2","1","2","¿Cuál es el quinto país con 
mas extensión?","Canadá","Brasil","","1","1","0","competitive","left","2.11425590515","1619.88201284","2.88574409485","1622.93875098","3.72924208641","1626.668051","2.27075791359","1628.97445798","1630.30778098","1630.39199996","1633.39489794","1","1633.40921688","1641.13558578","1510.56258798"
"sujeto_665d6eab","1","3","2","66","1641.27749491","inverse","1","1","2","¿Qué rasgo facial no tiene
 la Mona Lisa?","Cejas","Pómulos","","0","0","1","competitive","right","4.32852697372","1645.60608578","0.671473026276","1646.43626499","5.2499499321","1651.68628001","0.750050067902","1652.48666978","1654.2369988","1654.32031584","1657.32325792","0","1657.33888793","1663.61018682",""
"sujeto_665d6eab","1","3","3","67","1663.75937891","direct","4","1","3","¿Cuál es el país con 
mayor población?","Esados Unidos","China","right","0","0","1","competitive","right","1.43673491478","1665.19620681","3.56326508522","1668.93105292","3.4591960907","1672.39031386","2.5408039093","1674.96435285","1676.610322","1676.69953299","1679.70247579","1","1679.71693683","1683.08421397",""
"sujeto_665d6eab","1","3","4","68","1683.21774387","inverse","1","1","1","La palabra dinosaurio significa","Lagarto Terrible","Lagarto Dragón","","1","1","0","individual","right","2.03058385849","1685.24837279","2.96941614151","1688.3740499","4.93128085136","1693.30539298","1.06871914864","1694.42574286","1695.59610701","1695.6423769","1698.64529181","1","1698.66051793","1701.52230287",""
"sujeto_665d6eab","1","3","5","69","1701.66199684","direct","2","1","3","¿Qué es el membrillero?","Arbol","Arbusto","","0","0","0","competitive","right","3.10537290573","1704.76743197","1.89462709427","1706.8164649","4.82595181465","1711.64248085","1.17404818535","1712.85104084","1714.80520988","1714.88522482","1717.88823795","0","1717.90366983","1724.367697",""
"sujeto_665d6eab","1","3","6","70","1724.5047338","inverse","3","1","3","¿Alrededor de qué planeta orbita 
el satélite Europa?","Jupiter","Saturno","","1","1","1","competitive","","2.6728310585","1727.1776669","2.3271689415","1729.6619978","6","1735.66213393","0","1735.68032193","1737.22506785","1737.31397295","1740.31695986","0","1740.33151579","1742.53669596",""
"sujeto_665d6eab","1","3","7","71","1742.68485498","direct","3","1","1","¿Donde fue el mundial de 
fútbol de 1954?","Suiza","Suecia","","1","1","1","individual","right","2.20981311798","1744.89473391","2.79018688202","1747.85457301","4.20008897781","1752.05470085","1.79991102219","1753.90559387","1755.1582129","1755.20675278","1758.20973396","1","1758.22387695","1762.13562989",""
"sujeto_665d6eab","1","3","8","72","1762.27610898","inverse","1","1","4","¿Cuál de los 7 enanitos
no tenía barba?","Bashful","Mudito","","1","1","0","competitive","left","1.94070696831","1764.21691799","3.05929303169","1767.43156791","4.15018796921","1771.58181787","1.84981203079","1773.48139691","1775.06157899","1775.13213396","1778.13513279","1","1778.14973593","1783.07880878",""
"sujeto_665d6eab","1","3","9","73","1783.21746182","direct","3","1","2","¿Cual red social es
mas utilizada mundialmente?","Instagram","Facebook","","1","1","0","competitive","left","1.84550595284","1785.06301785","3.15449404716","1788.39291191","4.17601585388","1792.56896782","1.82398414612","1794.42697001","1796.34422278","1796.42832398","1799.43130183","1","1799.44586587","1802.3802948",""
"sujeto_665d6eab","1","3","10","74","1802.54846597","inverse","4","1","1","¿Cuándo se inició la copa
 América de fútbol?","1916","1923","","1","1","1","individual","right","2.84855103493","1805.39706492","2.15144896507","1807.718575","4.27446007729","1811.99309397","1.72553992271","1813.77102995","1815.66849685","1815.72121501","1818.72413182","1","1818.73945379","1821.39558601",""
"sujeto_665d6eab","1","3","11","75","1821.54052281","direct","3","1","4","¿Cuántos presidentes de EEUU
han muerto asesinados?","3","4","","0","0","1","competitive","left","1.38460683823","1822.92520094","3.61539316177","1826.6925559","3.57152795792","1830.26414084","2.42847204208","1832.74437094","1834.2282908","1834.31306696","1837.31605697","0","1837.330791","1840.97489691",""
"sujeto_665d6eab","1","3","12","76","1841.11710596","inverse","2","1","4","¿Cuántas veces participó EEUU
 en la copa América?","4","5","","0","0","1","competitive","right","1.60612201691","1842.72329593","3.39387798309","1846.25590992","4.78942799568","1851.04538083","1.21057200432","1852.30682683","1853.75094795","1853.82423091","1856.82720184","0","1856.84177589","1862.95896482",""
"sujeto_665d6eab","1","3","13","77","1863.09384489","direct","4","1","1","¿Cuál de estos países 
no formaba la URSS?","Azeribayán","Afganistán","","0","0","1","competitive","left","2.38462781906","1865.47853899","2.61537218094","1868.26618099","4.24634504318","1872.51259279","1.75365495682","1874.3026588","1875.61570501","1875.70296097","1878.70595193","0","1878.72071695","1886.70283079",""
"sujeto_665d6eab","1","3","14","78","1886.84194493","inverse","1","1","1","¿En qué año se inauguró
 el teatro Solís?","1867","1856","","0","0","0","competitive","left","2.81268501282","1889.6547029","2.18731498718","1892.01251578","4.09514594078","1896.10772896","1.90485405922","1898.04736185","1899.10366583","1899.18233085","1902.18531489","0","1902.19962978","1908.84744596",""
"sujeto_665d6eab","1","3","15","79","1908.98572183","direct","1","1","4","¿A qué velocidad vuela 
el avión más rápido?","3529","3874","","0","0","0","competitive","left","1.34501695633","1910.33077192","3.65498304367","1914.14002681","3.40383505821","1917.54392195","2.59616494179","1920.19189787","1921.94741678","1922.02660084","1925.02962184","0","1925.04385686","1927.1540978",""
"sujeto_665d6eab","1","3","16","80","1927.29617381","inverse","3","1","4","¿De qué año es la primer 
película cinematográfica?","1897","1888","","0","0","0","competitive","right","2.7277879715","1930.024014","2.2722120285","1932.46522689","4.23577189445","1936.70106792","1.76422810555","1938.51932096","1939.65232801","1939.73706985","1942.74006081","0","1942.75364089","1948.16342592",""
"sujeto_665d6eab","1","3","17","81","1948.30595684","direct","2","1","3","¿Cuántos países 
tiene nuestro planeta?","191","194","","1","1","1","competitive","right","1.39817380905","1949.70422697","3.60182619095","1953.46162701","5.66756606102","1959.12926292","0.33243393898","1959.51380086","1960.87102985","1960.94665384","1963.9496429","1","1963.96394587","1967.20225596",""
"sujeto_665d6eab","1","3","18","82","1967.33265686","inverse","2","1","2","¿Cuántos habitantes
 tiene Buenos Aires?","2.9000.000","3650000","","0","0","0","competitive","left","4.80865287781","1972.14135385","0.191347122192","1972.48719382","4.64011001587","1977.12734485","1.35988998413","1978.54047298","1979.93774199","1980.02385688","1983.0268209","0","1983.0420568","1988.87141395",""
"sujeto_665d6eab","1","3","19","83","1989.00968385","direct","2","1","1","¿Cuántos kilos forman una tonelada?","1000","1500","left","1","1","1","individual","left","1.37271595001","1990.38246179","3.62728404999","1994.16301894","4.33839297295","1998.50146985","1.66160702705","2000.21594191","2002.10330796","2002.1498189","2005.15279293","1","2005.16713285","2011.12455392",""
"sujeto_665d6eab","1","3","20","84","2011.26958394","inverse","4","1","4","¿Cuántos estados tiene la 
República del Perú? ","24","23","","0","0","1","competitive","left","1.46401119232","2012.73366094","3.53598880768","2016.42858696","3.76402306557","2020.19264793","2.23597693443","2022.47937298","2023.5012908","2023.579772","2026.58275485","0","2026.59729886","2031.54260087",""
"sujeto_665d6eab","1","3","21","85","2031.68605685","direct","3","1","3","¿En qué año nació Cristóbal Colón? ","1451","1447","","0","0","1","competitive","right","1.41567993164","2033.10180688","3.58432006836","2036.83884692","5.27597498894","2042.11488295","0.724025011063","2042.87380195","2044.7192719","2044.80798578","2047.81096578","0","2047.82526994","2052.0532558",""
"sujeto_665d6eab","1","3","22","86","2052.19375896","inverse","4","1","4","¿Cuánto mide la 
Montaña Aconcagua? ","6234","6962","","0","0","1","competitive","right","1.73219680786","2053.92602396","3.26780319214","2057.34983087","4.02813887596","2061.37802982","1.97186112404","2063.3833878","2064.67276788","2064.75082183","2067.75383496","0","2067.76806688","2074.95170999",""
"sujeto_665d6eab","1","3","23","87","2075.08632898","direct","2","1","4","¿Cuánto mide el punto
 más profundo del océano? ","12508","11003","","0","0","1","competitive","left","1.45284605026","2076.53922987","3.54715394974","2080.22826982","5.5669169426","2085.79523587","0.433083057404","2086.28006291","2087.53154492","2087.61412191","2090.61710787","0","2090.63079","2094.83707786",""
"sujeto_665d6eab","1","3","24","88","2094.98415899","inverse","1","1","3","¿Cuántos álbumes ha publicado 
el cantante Jaime Roos? ","41","34","","0","0","1","competitive","right","3.41223692894","2098.39645982","1.58776307106","2100.15486288","4.07158207893","2104.22648287","1.92841792107","2106.20686984","2107.6967299","2107.77363682","2110.77662182","0","2110.79220486","2116.9883678",""
"sujeto_665d6eab","1","3","25","89","2117.14309883","direct","4","1","3","¿En qué año nació el 
ex-presidente Jorge Battle? ","1921","1927","","1","1","1","competitive","left","1.35940408707","2118.50256681","3.64059591293","2122.30034089","5.65623211861","2127.95660901","0.343767881393","2128.33498383","2130.06563592","2130.15255594","2133.15549088","1","2133.16974378","2136.65575194",""
"sujeto_665d6eab","1","3","26","90","2136.80418801","inverse","1","1","3","¿Cuántas presidencias 
constitucionales  hubo en Uruguay? ","41","42","","0","0","1","competitive","left","1.30350708961","2138.107759","3.69649291039","2141.95850396","5.21626019478","2147.17480493","0.783739805222","2148.01152396","2149.21525598","2149.29555583","2152.29666781","0","2152.31279087","2158.09643793",""
"sujeto_665d6eab","1","3","27","91","2158.23136091","direct","1","1","2","¿Quién escribió mas sinfonías?","Mozart","Haydn","","1","1","0","competitive","left","1.64760684967","2159.879035","3.35239315033","2163.3882978","3.99272608757","2167.38106394","2.00727391243","2169.4231329","2170.64064384","2170.7237668","2173.72676897","1","2173.74128985","2177.49271584",""
"sujeto_665d6eab","1","3","28","92","2177.65976286","inverse","4","1","2","¿En qué año nació Michael Jackson?","1958","1953","","1","1","1","individual","right","2.6703619957","2180.3302629","2.3296380043","2182.831707","3.92643594742","2186.75821686","2.07356405258","2188.88382101","2190.8620348","2190.90047979","2193.90345597","1","2193.91894889","2199.78126383",""
"sujeto_665d6eab","1","3","29","93","2199.93666792","direct","3","1","2","¿En qué año entró en vigencia 
la ley antitabaco en Uruguay?","2005","2006","","1","1","1","competitive","left","1.824614048","2201.76132894","3.175385952","2205.10988379","4.98950910568","2210.09944296","1.01049089432","2211.16110897","2212.755898","2212.828619","2215.83160996","1","2215.84579992","2221.17979789",""
"sujeto_665d6eab","1","3","30","94","2221.31464601","inverse","3","1","1","¿Cuándo se subió el 
primer video a youtube?","2004","2005","","0","0","1","individual","right","2.76983690262","2224.08455586","2.23016309738","2226.50196481","4.54761004448","2231.049613","1.45238995552","2232.53946185","2233.84512901","2233.89068389","2236.89361191","0","2236.90780687","2244.66344881",""
"sujeto_665d6eab","1","3","31","95","2244.80907679","direct","2","1","1","¿Cuántos habitantes tiene India?","1200 millones","1300 millones","","0","0","0","individual","right","2.61568808556","2247.42480898","2.38431191444","2249.9666388","4.27016401291","2254.23686695","1.72983598709","2256.01598382","2257.98564196","2258.0341599","2261.03713489","0","2261.05176878","2267.09926796",""
"sujeto_665d6eab","1","3","32","96","2267.25346279","inverse","4","1","2","¿A qué edad murió Bob Marley?","36","37","","0","0","1","competitive","right","2.15149688721","2269.40502286","2.84850311279","2272.44478297","3.59022712708","2276.03505182","2.40977287292","2278.49626493","2280.39413285","2280.48127699","2283.48427582","0","2283.49872589","2286.60120082",""
"sujeto_665d6eab","1","4","1","97","2435.32950997","direct","2","1","1","¿Cuantos años dirigió la selección 
uruguaya Tabarez?","15 años","13 años","","0","0","0","individual","left","2.19115900993","2437.52074099","2.80884099007","2440.497998","4.27174401283","2444.76980281","1.72825598717","2446.5519278","2447.74303293","2447.78543496","2450.7884109","0","2450.80298281","2457.87501884","2286.61300397"
"sujeto_665d6eab","1","4","2","98","2458.02069783","inverse","4","1","1","¿Cuantas teclas tiene un teclado 
de computadora generalmente? ","Entre 99 y 108","Entre 109 y 113","","1","1","1","individual","right","1.63721108437","2459.65795398","3.36278891563","2463.19655585","4.93939185143","2468.13601184","1.06060814857","2469.24679279","2470.249542","2470.297189","2473.30019093","1","2473.31499195","2475.68643689",""
"sujeto_665d6eab","1","4","3","99","2475.8337009","direct","1","1","1","¿Cuál Departamento tiene
 mayor superficie?","Río Negro","Soriano","","0","0","0","individual","left","1.83543300629","2477.66920996","3.16456699371","2481.00527787","4.86185312271","2485.86721992","1.13814687729","2487.05576992","2488.76920986","2488.80581284","2491.8088069","0","2491.82314491","2496.14920497",""
"sujeto_665d6eab","1","4","4","100","2496.29184294","inverse","3","1","2","¿Cuál es el apellido de las 
hermanastras  de  cenicienta?","Tremaine","Truman","","0","0","1","competitive","left","2.72046899796","2499.01237297","2.27953100204","2501.46195579","4.55642795563","2506.01844287","1.44357204437","2507.51749778","2509.3870399","2509.46773791","2512.47068381","0","2512.48631382","2515.18228292",""
"sujeto_665d6eab","1","4","5","101","2515.32063198","direct","4","1","4","¿Cuál película ganó un
 Oscar a mejor película?","Alto Impacto","Cache","","0","0","1","competitive","left","1.32689809799","2516.64757895","3.67310190201","2520.47501898","4.38254213333","2524.85760093","1.61745786667","2526.52652001","2527.64591384","2527.72782898","2530.73080993","0","2530.74533987","2533.00997591",""
"sujeto_665d6eab","1","4","6","102","2533.14661789","inverse","1","1","3","¿A cuántos centímetros
equivale la medida pié?","25","30","","0","0","1","competitive","right","1.73107600212","2534.87775993","3.26892399788","2538.30249095","5.17830920219","2543.48086095","0.821690797806","2544.33553791","2545.37557387","2545.45254087","2548.45556879","0","2548.46979499","2553.87070298",""
"sujeto_665d6eab","1","4","7","103","2554.0214498","direct","2","1","2","¿Qué departamento es mas grande?","Cerro Largo","Paysandú","","0","0","0","competitive","right","1.57144188881","2555.59293699","3.42855811119","2559.17937088","4.61861920357","2563.79804993","1.38138079643","2565.23048878","2566.83019996","2566.91504693","2569.9179678","0","2569.93255091","2574.0425508",""
"sujeto_665d6eab","1","4","8","104","2574.18372178","inverse","2","1","3","¿Quién pintó la Mona Lisa?","Picasso","Da Vinci","right","0","0","1","competitive","right","1.4424071312","2575.6262238","3.5575928688","2579.33956194","2.49768209457","2581.83730483","3.50231790543","2585.38982582","2586.99570084","2587.07451797","2590.07750678","1","2590.09338593","2592.25571299",""
"sujeto_665d6eab","1","4","9","105","2592.39440179","direct","4","1","3","¿Cuántos litros hay en un galon?","3.54","3.78","","1","1","1","competitive","left","1.34090590477","2593.73535085","3.65909409523","2597.53303289","3.98737716675","2601.52044892","2.01262283325","2603.58360291","2605.10144186","2605.18469095","2608.18762088","1","2608.20196486","2613.99435401",""
"sujeto_665d6eab","1","4","10","106","2614.13689494","inverse","4","1","1","¿Cuántas teclas tiene
 un piano moderno?","80","88","","0","0","1","individual","right","2.70867300034","2616.84562588","2.29132699966","2619.30807281","4.60651493073","2623.91464782","1.39348506927","2625.36149693","2626.36995196","2626.41221285","2629.41520882","0","2629.42974782","2636.22754979",""
"sujeto_665d6eab","1","4","11","107","2636.36449981","direct","4","1","3","¿Cuántos países hay en África?","54","62","","0","0","1","competitive","left","2.45327210426","2638.81781697","2.54672789574","2641.538728","3.6161699295","2645.1549418","2.3838300705","2647.57375979","2649.26424885","2649.34209299","2652.34507585","0","2652.35962987","2660.16437197",""
"sujeto_665d6eab","1","4","12","108","2660.29380178","inverse","1","1","3","¿En qué siglo se crearon
 las primeras pistolas?","XV","XIII","","1","1","1","competitive","right","2.13525104523","2662.42911792","2.86474895477","2665.46722794","4.42390203476","2669.89120984","1.57609796524","2671.51942587","2673.46733999","2673.55355","2676.55651593","1","2676.57140994","2679.80450678",""
"sujeto_665d6eab","1","4","13","109","2679.95875788","direct","3","1","4","¿En qué año se estrenó 
la serie friends?","1994","1995","","0","0","1","competitive","right","0.960516214371","2680.9193399","4.03948378563","2685.11239195","5.74789810181","2690.86034799","0.252101898193","2691.16372895","2693.03910184","2693.11440396","2696.11729693","0","2696.13151097","2701.13757682",""
"sujeto_665d6eab","1","4","14","110","2701.28368878","inverse","3","1","4","¿En qué año nació Hitler?","1889","1887","","0","0","1","competitive","left","2.14277505875","2703.42653084","2.85722494125","2706.43995285","3.69961285591","2710.13963699","2.30038714409","2712.49030185","2713.60464978","2713.67431998","2716.67733383","0","2716.69188595","2721.71883988",""
"sujeto_665d6eab","1","4","15","111","2721.8595438","direct","1","1","4","¿Cuánto pesa un elefante Africano?","6000 kilos","5400 kilos","","0","0","0","competitive","right","1.29018712044","2723.14979696","3.70981287956","2727.01719379","3.27549290657","2730.29272294","2.72450709343","2733.06804395","2734.42396688","2734.50282979","2737.50578594","0","2737.52032685","2744.22738791",""
"sujeto_665d6eab","1","4","16","112","2744.37097883","inverse","1","1","2","¿Qué porcentaje de 
la población es zurda?","10%","7%","","1","1","0","competitive","left","1.13997793198","2745.51101995","3.86002206802","2749.51213193","3.33882117271","2752.85099483","2.66117882729","2755.56306982","2756.80617881","2756.88160801","2759.88458681","1","2759.89831781","2765.87803078",""
"sujeto_665d6eab","1","4","17","113","2766.01653481","direct","1","1","2","¿En qué año se estrenó
Volver al futuro?","1984","1985","","0","0","1","competitive","left","1.16774296761","2767.18434787","3.83225703239","2771.17399597","3.56426811218","2774.73832393","2.43573188782","2777.22429395","2778.78614497","2778.85962796","2781.86261392","0","2781.87695289","2788.96840096",""
"sujeto_665d6eab","1","4","18","114","2789.11133099","inverse","3","1","2","¿Cuántos jugadores hay en un 
equipo de baseball?","9","8","","1","1","0","individual","right","2.17714810371","2791.28852296","2.82285189629","2794.2667439","3.98777389526","2798.25455785","2.01222610474","2800.320081","2801.93438482","2801.97003198","2804.97258186","1","2804.98809385","2809.96534491",""
"sujeto_665d6eab","1","4","19","115","2810.10639381","direct","2","1","1","¿Cuántos Oscar ganó
 la película titanic?","13","11","","1","1","1","individual","right","1.81534004211","2811.92177486","3.18465995789","2815.28086281","4.32888197899","2819.60981083","1.67111802101","2821.315449","2822.61753488","2822.6658628","2825.66882396","1","2825.68396997","2830.28664994",""
"sujeto_665d6eab","1","4","20","116","2830.43494701","inverse","4","1","4","¿En qué año comenzó
la segunda guerra mundial?","1939","1976","left","0","0","1","competitive","right","1.52298593521","2831.95797896","3.47701406479","2835.59170985","4.21129202843","2839.80306292","1.78870797157","2841.62565279","2843.42555094","2843.50950694","2846.5124948","0","2846.52754188","2850.51468492",""
"sujeto_665d6eab","1","4","21","117","2850.66251087","direct","2","1","4","¿Cuántos biomas hay en Uruguay?","5","4","","0","0","1","competitive","right","2.01853990555","2852.68111086","2.98146009445","2855.81812382","4.32014489174","2860.13832998","1.67985510826","2861.86974978","2863.66709781","2863.73741794","2866.74037099","0","2866.75483298","2873.0042119",""
"sujeto_665d6eab","1","4","22","118","2873.13992786","inverse","2","1","3","¿Cuándo murió Pablo Escobar?","1993","1997","","1","1","1","competitive","left","1.17247891426","2874.31245184","3.82752108574","2878.29628992","4.00915312767","2882.30550885","1.99084687233","2884.33113289","2886.11400199","2886.19881678","2889.20180297","1","2889.21703386","2894.92069197",""
"sujeto_665d6eab","1","4","23","119","2895.06837583","direct","1","1","4","¿Qué serie ha ganado mas premios?","Friends","Murphy Brown","","1","1","0","competitive","left","1.66425395012","2896.73267388","3.33574604988","2900.225214","4.19350409508","2904.41877794","1.80649590492","2906.25992894","2907.61235881","2907.69347","2910.69639897","1","2910.7108829","2916.27251792",""
"sujeto_665d6eab","1","4","24","120","2916.41262984","inverse","4","1","2","¿Cuántas fichas tiene el dominó?","26","28","","1","1","1","individual","left","2.73426604271","2919.14694595","2.26573395729","2921.58578587","5.74717497826","2927.33302188","0.252825021744","2927.62221098","2928.67753887","2928.72157693","2931.72455287","1","2931.73968792","2936.98282981",""
"sujeto_665d6eab","1","4","25","121","2937.1080668","direct","2","1","4","¿Cuántos son los dientes de leche?","20","25","","0","0","1","competitive","left","3.49407196045","2940.60223484","1.50592803955","2942.2635839","4.30657792091","2946.57023692","1.69342207909","2948.31514478","2950.0255599","2950.0994308","2953.10239983","0","2953.11698794","2955.26270485",""
"sujeto_665d6eab","1","4","26","122","2955.40152192","inverse","3","1","3","¿Cuántos gramos son una onza?","22","28","","0","0","1","competitive","left","3.04887080193","2958.45045495","1.95112919807","2960.55335879","3.50803589821","2964.06145597","2.49196410179","2966.6067338","2968.60159087","2968.67511296","2971.67810392","0","2971.69262195","2977.98287678",""
"sujeto_665d6eab","1","4","27","123","2978.12698293","direct","3","1","1","¿Cuándo salió el primer album
 de los Beatles?","1963","1962","","1","1","1","individual","left","2.1024491787","2980.22947192","2.8975508213","2983.30207801","4.45731902122","2987.75945187","1.54268097878","2989.35313582","2990.51677585","2990.55409384","2993.557055","1","2993.57161593","2997.34365988",""
"sujeto_665d6eab","1","4","28","124","2997.49001884","inverse","3","1","3","¿Quién fundó la empresa apple?","Carlos Slim","Steve Jobs","","1","1","1","competitive","right","1.44439101219","2998.93447399","3.55560898781","3002.64535785","3.82399487495","3006.46939778","2.17600512505","3008.69655681","3009.81120801","3009.89752984","3012.90050793","1","3012.91397691","3019.21184087",""
"sujeto_665d6eab","1","4","29","125","3019.36600685","direct","4","1","2","¿Cuántos municipios hay
 en Montevideo?","8","7","","1","1","1","individual","left","2.93629598618","3022.30237579","2.06370401382","3024.53818583","3.08010387421","3027.61833286","2.91989612579","3030.57361794","3032.48835778","3032.54234385","3035.54526091","1","3035.55954981","3037.64069986",""
"sujeto_665d6eab","1","4","30","126","3037.81077981","inverse","1","1","1","¿Cuántos kilómetros hay
 de Montevideo a Artigas?","632","599","","0","0","0","individual","right","2.01049590111","3039.8213408","2.98950409889","3042.98042178","5.04771304131","3048.02820778","0.952286958694","3049.03265381","3050.5153048","3050.56600189","3053.56898284","0","3053.58346391","3059.63558292",""
"sujeto_665d6eab","1","4","31","127","3059.78511095","direct","2","1","2","¿En qué año nació 
Leonardo Da Vinci?","1452","1511","","1","1","0","competitive","right","1.41801118851","3061.203192","3.58198881149","3064.94322991","4.06386804581","3069.00714183","1.93613195419","3070.99467301","3072.84828281","3072.92894793","3075.93124795","1","3075.94693685","3079.09329391",""
"sujeto_665d6eab","1","4","32","128","3079.24837089","inverse","3","1","1","¿A qué continente
 pertenece el país Gabón?","Africa","Oceanía","","0","0","1","individual","left","1.80771684647","3081.05612993","3.19228315353","3084.42047787","3.9625878334","3088.38312578","2.0374121666","3090.47092295","3092.28260398","3092.32153988","3095.32451487","0","3095.33989382","3100.57781982",""
