"code","nro_aplicante","nro_bloque","nro_trial_bloque","nro_trial_global","show_game_type","choice_order","rival","pay_individual","pay_competitive","question","answer_left_text","answer_right_text","correct_answer","outcome_individual","outcome_competitive","outcome_rival","game_type","answer","social_time","rt_game_type","feedback_delay","show_question","answer_time","rt_answer_global","feedback_delay_2","show_jitter","jitter_time","show_outcome","outcome_time","outcome_participant_real","show_final_jitter","second_jitter_time","inicio_descanso"
"sujeto_a90bad1a","1","1","1","1","643.290589094","direct","3","1","4","¿Cuántos centímetros corresponden
al talle 36 del calzado?","23","24","","0","0","1","competitive","left","2.20710110664","645.497756004","2.79289889336","648.460329056","4.14836597443","652.608737946","1.85163402557","654.498105049","655.526422024","655.599446058","658.600022078","0","658.616249084","660.778734922",""
"sujeto_a90bad1a","1","1","2","2","660.916954994","inverse","3","1","2","¿Cuántas metros mide la Intendencia
Municipal de Montevideo? ","84","78","","0","0","1","competitive","right","1.55375504494","662.470752954","3.44624495506","666.055737019","3.07397603989","669.129776955","2.92602396011","672.106365919","673.984427929","674.05844903","677.061455011","0","677.0755229","679.168282986",""
"sujeto_a90bad1a","1","1","3","3","679.294830084","direct","1","1","3","¿Cuántas La Pasiva
 hay en uruguay?","15","11","","1","1","1","competitive","left","1.85493516922","681.149830103","3.14506483078","684.465791941","2.71992897987","687.185765982","3.28007102013","690.515259981","692.126931906","692.20026207","695.203229904","1","695.218108892","699.4960289",""
"sujeto_a90bad1a","1","1","4","4","699.63676095","inverse","3","1","3","¿De que color es la camiseta de uruguay?","blanca","celeste","right","1","1","1","competitive","right","1.96500587463","701.601891041","3.03499412537","704.809316874","2.34641289711","707.155791044","3.65358710289","710.842423916","712.047169924","712.127640009","715.130574942","1","715.144551039","718.596021891",""
"sujeto_a90bad1a","1","1","5","5","718.731220961","direct","2","1","1","¿Cuánto metros mide
la torre Eiffel?","333","324","","1","1","1","competitive","right","1.2675049305","719.998769999","3.7324950695","723.869196892","2.85856509209","726.727824926","3.14143490791","729.902761936","731.424016953","731.503813982","734.506788015","1","734.522080898","741.558777094",""
"sujeto_a90bad1a","1","1","6","6","741.693231106","inverse","3","1","4","¿Cuantas ciudades existen
 en todo el uruguay?","63","72","","0","0","1","competitive","left","2.40846610069","744.101763964","2.59153389931","746.846816063","3.30787205696","750.154750109","2.69212794304","752.898489952","753.953332901","754.033237934","757.036113977","0","757.050271988","764.676861048",""
"sujeto_a90bad1a","1","1","7","7","764.805350065","direct","1","1","1","¿Cuantos estados tiene África?","52","54","","1","1","0","competitive","right","1.40535593033","766.210777998","3.59464406967","769.942564964","2.88612890244","772.828763008","3.11387109756","775.993211985","777.857254982","777.92813611","780.931107998","1","780.945086956","786.706110001",""
"sujeto_a90bad1a","1","1","8","8","786.847831011","inverse","4","1","4","¿En qué año nació
 Stephen Hawking?","1952","1942","","0","0","1","individual","left","1.30291008949","788.150783062","3.69708991051","792.021190882","3.12149810791","795.142750025","2.87850189209","798.071116924","799.515403032","799.555806875","802.558772087","0","802.572696924","808.672060966",""
"sujeto_a90bad1a","1","1","9","9","808.809681892","direct","2","1","3","¿Cuánto años tenía Artigas
 cuando se fue a Paraguay?","56","57","","1","1","1","competitive","left","1.19208693504","810.001815081","3.80791306496","813.948323011","2.75834298134","816.7067101","3.24165701866","819.999065876","821.548557043","821.633730888","824.636715889","1","824.650865078","830.698148012",""
"sujeto_a90bad1a","1","1","10","10","830.819389105","inverse","1","1","2","¿Cuantos milímetros 
mide una hoja A2?","420x592","420x594","","0","0","1","competitive","left","3.4203081131","834.239764929","1.5796918869","835.959709883","4.05297899246","840.012732983","1.94702100754","842.011513948","843.579916","843.662558079","846.6655159","0","846.679708004","853.753334999",""
"sujeto_a90bad1a","1","1","11","11","853.900695086","direct","3","1","3","¿Cuál es la menor temperatura 
registrada en Uruguay?","-5.4","-7.4","","0","0","1","individual","left","3.31904602051","857.219804049","1.68095397949","859.055321932","2.86535382271","861.920721054","3.13464617729","865.105381966","866.787424088","866.823731899","869.826698065","0","869.840878963","873.574167013",""
"sujeto_a90bad1a","1","1","12","12","873.743069887","inverse","2","1","2","¿Cuantos años hace que 
se fundó facebook?","18","17","","0","0","0","competitive","right","2.60663986206","876.349752903","2.39336013794","878.898808002","1.99189186096","880.890743017","4.00810813904","884.948544025","886.321180105","886.40166688","889.404615879","0","889.418571949","892.193216085",""
"sujeto_a90bad1a","1","1","13","13","892.321496964","direct","1","1","4","¿Cuál animal es más
 pesado en promedio?","Rinoceronte","Hipopotamo","","0","0","0","competitive","right","1.68324494362","894.004806042","3.31675505638","897.525420904","2.87833595276","900.403796911","3.12166404724","903.574779987","904.654018879","904.726417065","907.729419947","0","907.743565083","911.584048033",""
"sujeto_a90bad1a","1","1","14","14","911.714416027","inverse","1","1","2","¿Qué personaje de dragon ball 
murió más veces?","Chaoz","Krillin","","1","1","0","competitive","right","1.52132105827","913.235779047","3.47867894173","916.852525949","2.69020295143","919.54279995","3.30979704857","922.902534962","924.36003089","924.437294006","927.4402771","1","927.454629898","935.227540016",""
"sujeto_a90bad1a","1","1","15","15","935.355525017","direct","3","1","2","La universidad de oxford. 
existe desde:","1096","1249","","1","1","0","individual","right","2.82820701599","938.183777094","2.17179298401","940.511868","4.51187682152","945.02380991","1.48812317848","946.548145056","947.596894979","947.632534027","950.635503054","1","950.649410009","957.340034008",""
"sujeto_a90bad1a","1","1","16","16","957.484566927","inverse","3","1","1","¿Qué escritor latino ganó antes
 el premio nobel?"," García Marquez","Neruda","","0","0","1","individual","left","2.11720204353","959.601835966","2.88279795647","962.641591072","2.80717802048","965.448838949","3.19282197952","968.690974951","970.43095088","970.474726915","973.477685928","0","973.492822886","976.952045918",""
"sujeto_a90bad1a","1","1","17","17","977.07902503","direct","4","1","3","¿Cuántos dientes tiene un
 tiburón blanco?","6000","3000","","0","0","1","individual","right","2.02123308182","979.100338936","2.97876691818","982.234845877","2.24583697319","984.480751038","3.75416302681","988.286068916","989.325005054","989.370982885","992.373960972","0","992.388742924","997.198421001",""
"sujeto_a90bad1a","1","1","18","18","997.327291965","inverse","4","1","1","¿Cuánto mide el paralelo Ecuador?","40.000km","70.000km","","0","0","1","individual","right","1.48641300201","998.813776016","3.51358699799","1002.46276808","3.48193311691","1005.94476795","2.51806688309","1008.51336098","1010.46948409","1010.514117","1013.51708007","0","1013.532305","1017.13207889",""
"sujeto_a90bad1a","1","1","19","19","1017.26722908","direct","4","1","2","¿Cuál fue el primer libro 
de Stephen King?","Carrie","The Stand","","1","1","1","individual","right","1.86149001122","1019.12878609","3.13850998878","1022.43961692","3.52912688255","1025.96881509","2.47087311745","1028.48985195","1030.23397207","1030.27487087","1033.2760241","1","1033.29201508","1037.76645494",""
"sujeto_a90bad1a","1","1","20","20","1037.89501095","inverse","2","1","3","¿Qué civilización practicaba
 la momificación?","Grecia","Egipto","right","0","0","1","competitive","right","1.2182328701","1039.11333394","3.7817671299","1043.04736996","2.16538095474","1045.21282196","3.83461904526","1049.09809804","1051.03740311","1051.11721301","1054.12019205","1","1054.13459802","1058.36336589",""
"sujeto_a90bad1a","1","1","21","21","1058.50552392","direct","4","1","4","¿Cuántos millones de visitas
 recibe google por minuto?","3.0","4.5","","0","0","1","individual","right","2.28023290634","1060.78580499","2.71976709366","1063.65724587","4.15450191498","1067.81180811","1.84549808502","1069.711344","1071.226228","1071.26299405","1074.26596594","0","1074.27988195","1081.40001988",""
"sujeto_a90bad1a","1","1","22","22","1081.54838991","inverse","1","1","3","La máquina de fax. se inventó en:","1843","1960","","0","0","1","competitive","right","1.83434987068","1083.38280606","3.16565012932","1086.722507","2.3542330265","1089.07680106","3.6457669735","1092.77231693","1094.01443005","1094.09087491","1097.09205008","0","1097.10812688","1100.34404898",""
"sujeto_a90bad1a","1","1","23","23","1100.47664595","direct","2","1","4","En la verdadera historia de los
 300 espartanos. habían:","300 soldados","4300 soldados","","1","1","1","competitive","right","1.06910395622","1101.54579806","3.93089604378","1105.63216496","4.55456995964","1110.18677902","1.44543004036","1111.68348193","1112.94469309","1113.01676393","1116.01973701","1","1116.03467298","1119.83644009",""
"sujeto_a90bad1a","1","1","24","24","1119.96953201","inverse","1","1","4","¿Cuántos milímetros crece
 el pelo por día?","0.4","0.04","","0","0","0","competitive","right","1.28723883629","1121.25683808","3.71276116371","1125.12234807","3.0663831234","1128.18877506","2.9336168766","1131.17384005","1132.93455195","1133.00886798","1136.01185894","0","1136.02698493","1142.76207709",""
"sujeto_a90bad1a","1","1","25","25","1142.89811707","direct","4","1","1","¿Cuánto mide la baldosa gris 
clásica de Montevideo?","22x22 cm.","20x20 cm.","","1","1","1","individual","left","1.90768909454","1144.80587006","3.09231090546","1148.1031251","3.75460004807","1151.85776401","2.24539995193","1154.15545988","1156.15067792","1156.1894691","1159.19246006","1","1159.20660305","1164.74940801",""
"sujeto_a90bad1a","1","1","26","26","1164.87518907","inverse","2","1","2","¿Cuántas películas de rápidos
 y furiosos hay?","10","11","","1","1","0","competitive","left","2.77857804298","1167.65381289","2.22142195702","1170.04759002","1.99015188217","1172.03780508","4.00984811783","1176.09860492","1177.45657992","1177.5339241","1180.53690791","1","1180.55093908","1182.58562708",""
"sujeto_a90bad1a","1","1","27","27","1182.71946406","direct","3","1","1","¿Cuántos masters 1000
 ganó Del Potro?","1","2","","1","1","1","individual","right","1.84028100967","1184.55981898","3.15971899033","1187.87488008","3.65187001228","1191.52681494","2.34812998772","1193.92399096","1195.67856908","1195.72529888","1198.7282691","1","1198.74333811","1206.13967204",""
"sujeto_a90bad1a","1","1","28","28","1206.26084995","inverse","2","1","4","¿Cuántos meses dura el 
embarazo de una leona?","3 meses","4 meses","","0","0","1","competitive","right","1.62293505669","1207.88385296","3.37706494331","1211.40339708","2.35436201096","1213.75779891","3.64563798904","1217.4530251","1218.56405997","1218.63896108","1221.64194298","0","1221.65588403","1228.37840199",""
"sujeto_a90bad1a","1","1","29","29","1228.51065588","direct","1","1","1","¿En qué año fue creado
 el sandwich?","1762","1653","","1","1","0","competitive","right","2.94309997559","1231.4538331","2.05690002441","1233.66450095","2.90919995308","1236.57374597","3.09080004692","1239.71596003","1241.31447887","1241.38365507","1244.38659501","1","1244.40086198","1247.87150598",""
"sujeto_a90bad1a","1","1","30","30","1248.03748393","inverse","4","1","2","El nombre de la moneda de Vietnam es:","Dinar","Dong","","0","0","1","individual","right","1.95630598068","1249.99386311","3.04369401932","1253.19189095","3.20386195183","1256.39581394","2.79613804817","1259.24251103","1260.67447996","1260.71020699","1263.71318889","0","1263.72717404","1269.89558697",""
"sujeto_a90bad1a","1","1","31","31","1270.02890611","direct","2","1","1","¿cuantos aleteos puede dar 
un colibrí por segundo?","120","50","","0","0","0","individual","left","2.47583198547","1272.50478101","2.52416801453","1275.19965911","2.65511989594","1277.85483789","3.34488010406","1281.25283289","1282.98522806","1283.02204299","1286.02501702","0","1286.0384109","1290.25066805",""
"sujeto_a90bad1a","1","1","32","32","1290.40748096","inverse","4","1","3","¿Qué altura promedio tienen
 los hombres uruguayos?","1.73 m","1.72 m","","1","1","1","competitive","left","2.44729995728","1292.85482407","2.55270004272","1295.56132007","3.31848502159","1298.87986708","2.68151497841","1301.61213994","1302.87456703","1302.94694901","1305.94994092","1","1305.96412992","1310.44007206",""
"sujeto_a90bad1a","1","2","1","33","1463.5444839","direct","1","1","1","¿En qué año nació 
el actor Bradd Pitt?","1967","1963","","1","1","1","competitive","left","1.95430588722","1465.49888611","3.04569411278","1468.719347","2.57841801643","1471.29783392","3.42158198357","1474.76841593","1475.86427307","1475.93628001","1478.93927908","1","1478.9533639","1484.88095188","1310.45142198"
"sujeto_a90bad1a","1","2","2","34","1485.00859308","inverse","2","1","1","¿Cual es el segundo 
monte más alto?","Kanchenjunga","K2","","1","1","1","individual","left","1.89616799355","1486.90482807","3.10383200645","1490.19714689","2.51658201218","1492.71379495","3.48341798782","1496.2464869","1497.69889808","1497.74890399","1500.75187898","1","1500.76598406","1504.19587708",""
"sujeto_a90bad1a","1","2","3","35","1504.33526492","direct","3","1","1","¿Cuándo finalizó la construcción
 del Palacio Legislativo?","1925","1917","","0","0","1","competitive","left","1.18253993988","1505.51784801","3.81746006012","1509.48990989","3.30689001083","1512.79686093","2.69310998917","1515.54082704","1517.18254495","1517.25875306","1520.26174307","0","1520.27577305","1525.97333598",""
"sujeto_a90bad1a","1","2","4","36","1526.11341095","inverse","3","1","3","¿Cuántos integrantes tenía
 en su inicio  el cuarteto de nos?","3","4","","1","1","1","competitive","right","2.42635703087","1528.53981209","2.57364296913","1531.26463795","2.62609601021","1533.89079595","3.37390398979","1537.31887007","1538.45195103","1538.53651309","1541.53947592","1","1541.55341005","1547.20321989",""
"sujeto_a90bad1a","1","2","5","37","1547.3418231","direct","2","1","3","¿Qué valor tiene el número pi?","3.14","4.18","left","0","0","1","competitive","left","2.04593992233","1549.38780689","2.95406007767","1552.50952792","2.73523402214","1555.244802","3.26476597786","1558.561625","1560.01584291","1560.09709787","1563.1000371","1","1563.11421895","1570.03519702",""
"sujeto_a90bad1a","1","2","6","38","1570.16533899","inverse","2","1","2","¿Cuál es la esperanza de vida
 en Uruguay?","75","77","","1","1","0","competitive","left","1.95149183273","1572.11688089","3.04850816727","1575.32367897","2.45806193352","1577.78178191","3.54193806648","1581.37350702","1583.02731991","1583.10964894","1586.11258388","1","1586.126616","1592.58958292",""
"sujeto_a90bad1a","1","2","7","39","1592.71093202","direct","1","1","2","¿Cuantos pisos tiene la torre 
de las comunicaciones?","26","32","","1","1","0","competitive","left","1.538864851","1594.2498641","3.461135149","1597.85219502","2.54858803749","1600.40084291","3.45141196251","1603.90166593","1605.73048306","1605.804039","1608.80703092","1","1608.82120705","1610.96741295",""
"sujeto_a90bad1a","1","2","8","40","1611.10737395","inverse","2","1","4","¿En qué país sudamericano 
no hay McDonalds?","Bolivia","Venezuela","","0","0","1","competitive","left","1.39342904091","1612.50087094","3.60657095909","1616.26146102","1.68429517746","1617.9458251","4.31570482254","1622.31114697","1623.62051988","1623.69630098","1626.69927692","0","1626.7133069","1633.07301998",""
"sujeto_a90bad1a","1","2","9","41","1633.21772194","direct","3","1","1","¿En qué año empieza
 la Edad Media?","476","512","","1","1","1","individual","right","2.33708786964","1635.5548749","2.66291213036","1638.375947","3.85780000687","1642.23378801","2.14219999313","1644.42318797","1645.82690096","1645.87427211","1648.87721801","1","1648.89145494","1651.87996888",""
"sujeto_a90bad1a","1","2","10","42","1652.01070309","inverse","3","1","4","¿Hace cuántos años surgió
 el ser humano?","200mil","300mil","","0","0","0","competitive","left","1.63506698608","1653.64581394","3.36493301392","1657.16615891","2.66858386993","1659.8348031","3.33141613007","1663.21575689","1665.10175109","1665.18436408","1668.18735099","0","1668.20154691","1671.51202202",""
"sujeto_a90bad1a","1","2","11","43","1671.65509295","direct","3","1","4","¿Cuántas cuadras tiene
 actualmente 18 de julio? ","36","33","","0","0","1","competitive","left","1.56972098351","1673.22485709","3.43027901649","1676.80899405","2.92475509644","1679.73378992","3.07524490356","1682.85961199","1684.56183004","1684.64514089","1687.64810395","0","1687.66204691","1692.388026",""
"sujeto_a90bad1a","1","2","12","44","1692.52906609","inverse","1","1","4","¿Qué juego de equipo se 
considera mas rápido?","Lacrosse","Badminton","","0","0","0","competitive","left","1.36674904823","1693.89587903","3.63325095177","1697.68334699","3.58043789864","1701.26382709","2.41956210136","1703.73578191","1704.97888803","1705.05400491","1708.05698299","0","1708.07103205","1716.06404591",""
"sujeto_a90bad1a","1","2","13","45","1716.1890769","direct","1","1","3","¿Qué promedio de edad 
vive una jirafa? ","25","20","","0","0","1","competitive","left","1.27974796295","1717.46887207","3.72025203705","1721.328439","2.68531084061","1724.01381707","3.31468915939","1727.37978411","1729.14131093","1729.21492696","1732.21792006","0","1732.23320389","1738.18893504",""
"sujeto_a90bad1a","1","2","14","46","1738.32094908","inverse","1","1","2","¿Cuántos grandes lagos hay?","7","5","","0","0","1","competitive","left","1.79882907867","1740.11982107","3.20117092133","1743.47767711","1.76007509232","1745.23781896","4.23992490768","1749.52670097","1750.8188591","1750.89529204","1753.89827991","0","1753.9126029","1761.7339859",""
"sujeto_a90bad1a","1","2","15","47","1761.86430407","direct","3","1","2","¿Cuántos discos de estudio
 grabó Johhny Cash? ","54","43","","1","1","0","individual","right","2.58046603203","1764.44484401","2.41953396797","1767.03867888","2.68016004562","1769.71890903","3.31983995438","1773.07292295","1774.351511","1774.39138699","1777.3943491","1","1777.40868902","1784.05957294",""
"sujeto_a90bad1a","1","2","16","48","1784.21350408","inverse","4","1","1","¿Cuántos barrios tiene
 Montevideo? ","71","62","","0","0","1","individual","right","1.14427995682","1785.3578341","3.85572004318","1789.36720991","2.45254087448","1791.81981802","3.54745912552","1795.41723108","1796.42428088","1796.46912289","1799.47208691","0","1799.48609591","1804.94805694",""
"sujeto_a90bad1a","1","2","17","49","1805.08849788","direct","3","1","3","¿Qué edad tiene Homero Simpson?","36","42","","0","0","1","competitive","left","1.62828993797","1806.71683693","3.37171006203","1810.24493289","2.08082699776","1812.32582688","3.91917300224","1816.27718306","1817.65204906","1817.72879195","1820.73177004","0","1820.74577594","1825.13452506",""
"sujeto_a90bad1a","1","2","18","50","1825.28322697","inverse","4","1","2","¿Cuántos países con monarquía 
hay en europa actualmente? ","6","10","","1","1","1","individual","left","1.04160380363","1826.32490206","3.95839619637","1830.43791509","2.78688097","1833.22483706","3.21311903","1836.48879409","1837.92709398","1837.973773","1840.97673392","1","1840.99092507","1847.14772892",""
"sujeto_a90bad1a","1","2","19","51","1847.27559304","direct","2","1","3","¿Cuántos capítulos de
 Friends existen? ","236","228","","1","1","1","competitive","right","1.46822619438","1848.74389291","3.53177380562","1852.43352103","3.17431521416","1855.60787988","2.82568478584","1858.48427105","1859.789855","1859.86886692","1862.87185407","1","1862.885149","1865.26079297",""
"sujeto_a90bad1a","1","2","20","52","1865.38706398","inverse","1","1","3","¿Cuántas óperas compuso Mozart? ","27","22","","1","1","1","competitive","left","1.27574586868","1866.66288304","3.72425413132","1870.5420351","3.67278599739","1874.21486092","2.32721400261","1876.59334803","1877.88550806","1877.96055603","1880.96354008","1","1880.9774611","1888.28802991",""
"sujeto_a90bad1a","1","2","21","53","1888.43261099","direct","4","1","3","¿Cuántos mundiales de fútbol 
femenino ha realizado FIFA? ","9","7","","1","1","1","competitive","right","2.20123004913","1890.63389206","2.79876995087","1893.60153294","2.98424291611","1896.58581591","3.01575708389","1899.63825202","1900.88192701","1900.95638394","1903.95935893","1","1903.97357893","1910.0760479",""
"sujeto_a90bad1a","1","2","22","54","1910.2083199","inverse","3","1","2","¿Cuál es la temperatura 
media anual en Montevideo? ","17.5","16.3","","0","0","1","individual","left","1.73150897026","1911.93987298","3.26849102974","1915.36592293","2.58889389038","1917.95487809","3.41110610962","1921.41521502","1923.35382295","1923.40075803","1926.40371704","0","1926.41782093","1932.98734999",""
"sujeto_a90bad1a","1","2","23","55","1933.12063599","direct","2","1","2","¿En qué año se estrenó el
 videojuego The Sims? ","2000","2002","","0","0","0","individual","right","2.2031648159","1935.32386994","2.7968351841","1938.27776003","2.67201709747","1940.94984198","3.32798290253","1944.327672","1946.18967891","1946.22959495","1949.23202705","0","1949.24716997","1956.64082694",""
"sujeto_a90bad1a","1","2","24","56","1956.76459908","inverse","2","1","1","¿Cuál es la canción con 
mas covers? ","Yesterday","Stand by me","","0","0","0","individual","left","1.28716897964","1958.05181599","3.71283102036","1961.92316794","1.87364602089","1963.79685903","4.12635397911","1967.9724679","1969.370996","1969.40776396","1972.410707","0","1972.42468095","1976.59203601",""
"sujeto_a90bad1a","1","2","25","57","1976.72673702","direct","1","1","4","¿Cuánto duró la guerra
 de los 100 años?","116","123","","0","0","0","competitive","left","1.90616202354","1978.63297009","3.09383797646","1981.91652107","1.70122909546","1983.61779499","4.29877090454","1987.96595502","1989.44676805","1989.51767111","1992.52063394","0","1992.53562498","1994.85541201",""
"sujeto_a90bad1a","1","2","26","58","1994.98671603","inverse","4","1","4","¿Qué color tiene la  bandera de Brasil?","Amarillo","Naranja","left","0","0","1","competitive","left","1.22310805321","1996.20987105","3.77689194679","2000.1417141","1.96410608292","2002.10588098","4.03589391708","2006.19209003","2007.75859189","2007.84423304","2010.8472209","1","2010.86147308","2013.89426398",""
"sujeto_a90bad1a","1","2","27","59","2014.04600191","direct","4","1","3","¿Qué carabela de 
Colon no volvió del viaje?","Santa María","La pinta","","0","0","1","individual","left","2.03879594803","2016.08484292","2.96120405197","2019.20422292","3.56453990936","2022.76882911","2.43546009064","2025.25252795","2026.7436049","2026.78811002","2029.79107189","0","2029.8050909","2031.90458488",""
"sujeto_a90bad1a","1","2","28","60","2032.0565269","inverse","4","1","4","¿Cuántos huesos tiene
 un adulto humano?","217","206","","0","0","1","competitive","right","1.46425485611","2033.52082396","3.53574514389","2037.21182108","2.54597496986","2039.757864","3.45402503014","2043.26083708","2044.53187299","2044.61247802","2047.61543107","0","2047.62948108","2055.46717501",""
"sujeto_a90bad1a","1","2","29","61","2055.59806705","direct","1","1","1","¿Qué país africano fue 
fundado por esclavos?","Liberia","Chad","","0","0","0","individual","right","1.74077320099","2057.33890605","3.25922679901","2060.75682998","3.42998886108","2064.1868639","2.57001113892","2066.79037499","2068.78202009","2068.82480907","2071.82774496","0","2071.84287906","2079.83370209",""
"sujeto_a90bad1a","1","2","30","62","2079.96087193","inverse","4","1","2","¿A cuánto asciende la cima
 del monte Everest?","7.990 mts","8.848 mts","","0","0","1","individual","left","1.695925951","2081.65686989","3.304074049","2085.1195159","1.86028289795","2086.97984004","4.13971710205","2091.16945004","2092.35427403","2092.40494299","2095.40793395","0","2095.4221139","2102.60616088",""
"sujeto_a90bad1a","1","2","31","63","2102.75795603","direct","4","1","1","¿Cuál es el país mas chico?","Sealand","Luxemburgo","","1","1","1","individual","right","1.59987616539","2104.35787892","3.40012383461","2107.91438103","3.30646705627","2111.22089195","2.69353294373","2113.94826698","2115.81180811","2115.84943795","2118.85240698","1","2118.86673188","2121.98901701",""
"sujeto_a90bad1a","1","2","32","64","2122.11911488","inverse","2","1","4","¿Cuántas pirámides hay en Egipto?","10000","11000","","1","1","1","competitive","right","1.54270601273","2123.66187","3.45729398727","2127.27483106","3.59898114204","2130.87385702","2.40101885796","2133.32534099","2134.35888505","2134.44313288","2137.44611597","1","2137.46007395","2142.56914091",""
"sujeto_a90bad1a","1","3","1","65","2268.16114902","direct","2","1","2","¿Cuál es el quinto país con 
mas extensión?","Canadá","Brasil","","1","1","0","competitive","right","2.53165197372","2270.69284296","2.46834802628","2273.34830189","3.57752799988","2276.92589688","2.42247200012","2279.38424897","2280.71754098","2280.80149293","2283.80449605","1","2283.81952","2291.54583001","2142.58071089"
"sujeto_a90bad1a","1","3","2","66","2291.68781304","inverse","1","1","2","¿Qué rasgo facial no tiene
 la Mona Lisa?","Cejas","Pómulos","","0","0","1","competitive","left","1.36003112793","2293.04792809","3.63996887207","2296.84439397","3.01842093468","2299.86285591","2.98157906532","2302.89507604","2304.64548993","2304.73009896","2307.733073","0","2307.74797392","2314.01930594",""
"sujeto_a90bad1a","1","3","3","67","2314.18522096","direct","4","1","3","¿Cuál es el país con 
mayor población?","Esados Unidos","China","right","0","0","1","individual","right","1.1946117878","2315.37987494","3.8053882122","2319.33666706","2.6531829834","2321.98991394","3.3468170166","2325.38885498","2327.03487396","2327.07424688","2330.07719207","1","2330.09123397","2333.45605087",""
"sujeto_a90bad1a","1","3","4","68","2333.62774491","inverse","1","1","1","La palabra dinosaurio significa","Lagarto Terrible","Lagarto Dragón","","1","1","0","individual","left","1.1791229248","2334.80694509","3.8208770752","2338.78240991","5.10539293289","2343.88784695","0.894607067108","2344.83495903","2346.00529289","2346.05119705","2349.05418205","1","2349.06906009","2351.93088508",""
"sujeto_a90bad1a","1","3","5","69","2352.06958604","direct","2","1","3","¿Qué es el membrillero?","Arbol","Arbusto","","0","0","0","competitive","left","1.33123207092","2353.40086198","3.66876792908","2357.22584891","2.87496805191","2360.100878","3.12503194809","2363.27567697","2365.22977805","2365.3114531","2368.312006","0","2368.32907295","2374.79311609",""
"sujeto_a90bad1a","1","3","6","70","2374.930264","inverse","3","1","3","¿Alrededor de qué planeta orbita 
el satélite Europa?","Jupiter","Saturno","","1","1","1","competitive","left","1.2285528183","2376.15888309","3.7714471817","2380.08728194","3.76353096962","2383.85085201","2.23646903038","2386.13885903","2387.68360901","2387.75660801","2390.75956488","1","2390.77353692","2392.97868609",""
"sujeto_a90bad1a","1","3","7","71","2393.14165497","direct","3","1","1","¿Donde fue el mundial de 
fútbol de 1954?","Suiza","Suecia","","1","1","1","individual","left","2.3741748333","2395.51587892","2.6258251667","2398.31430697","3.4795229435","2401.79387093","2.5204770565","2404.348351","2405.60097289","2405.64955997","2408.65254998","1","2408.66668987","2412.57847404",""
"sujeto_a90bad1a","1","3","8","72","2412.72013903","inverse","1","1","4","¿Cuál de los 7 enanitos
no tenía barba?","Bashful","Mudito","","1","1","0","competitive","right","1.2626721859","2413.98287702","3.7373278141","2417.85756087","3.22026014328","2421.07786393","2.77973985672","2423.90798092","2425.48804307","2425.55943108","2428.56240988","1","2428.57659388","2433.50564694",""
"sujeto_a90bad1a","1","3","9","73","2433.67888188","direct","3","1","2","¿Cual red social es
mas utilizada mundialmente?","Instagram","Facebook","","1","1","0","individual","left","2.16100382805","2435.83998895","2.83899617195","2438.85156894","3.39135289192","2442.24298596","2.60864710808","2444.90274596","2446.82000089","2446.87023687","2449.87200308","1","2449.88799596","2452.82250094",""
"sujeto_a90bad1a","1","3","10","74","2452.95620394","inverse","4","1","1","¿Cuándo se inició la copa
 América de fútbol?","1916","1923","","1","1","1","individual","left","1.2996609211","2454.25596094","3.7003390789","2458.10820603","4.33666706085","2462.44493699","1.66333293915","2464.16016603","2466.05765891","2466.09445691","2469.09741902","1","2469.11149096","2471.76762009",""
"sujeto_a90bad1a","1","3","11","75","2471.89740705","direct","3","1","4","¿Cuántos presidentes de EEUU
han muerto asesinados?","3","4","","0","0","1","competitive","left","1.65642809868","2473.55390096","3.34357190132","2477.05514503","3.44767713547","2480.50286698","2.55232286453","2483.10542989","2484.58938003","2484.672894","2487.67588806","0","2487.68992496","2491.33403301",""
"sujeto_a90bad1a","1","3","12","76","2491.47575808","inverse","2","1","4","¿Cuántas veces participó EEUU
 en la copa América?","4","5","","0","0","1","competitive","right","1.63708901405","2493.11289096","3.36291098595","2496.6310811","2.35072898865","2498.98184991","3.64927101135","2502.68121791","2504.12533307","2504.19996095","2507.20294309","0","2507.2170701","2513.33424687",""
"sujeto_a90bad1a","1","3","13","77","2513.46897888","direct","4","1","1","¿Cuál de estos países 
no formaba la URSS?","Azeribayán","Afganistán","","0","0","1","competitive","right","0.959907054901","2514.42895198","4.0400929451","2518.62198806","3.74688816071","2522.36891699","2.25311183929","2524.67471099","2525.987782","2526.05995607","2529.06293988","0","2529.076864","2537.05900693",""
"sujeto_a90bad1a","1","3","14","78","2537.19432998","inverse","1","1","1","¿En qué año se inauguró
 el teatro Solís?","1867","1856","","0","0","0","individual","left","1.5845489502","2538.77892399","3.4154510498","2542.33835292","2.59345889091","2544.93185496","3.40654110909","2548.37146807","2549.42773795","2549.47293901","2552.47588611","0","2552.49003005","2559.13784003",""
"sujeto_a90bad1a","1","3","15","79","2559.27567601","direct","1","1","4","¿A qué velocidad vuela 
el avión más rápido?","3529","3874","","0","0","0","competitive","right","1.55417895317","2560.82990408","3.44582104683","2564.41611695","3.54576778412","2567.96195102","2.45423221588","2570.45029092","2572.20578289","2572.28413105","2575.2871139","0","2575.30180287","2577.41209292",""
"sujeto_a90bad1a","1","3","16","80","2577.55366206","inverse","3","1","4","¿De qué año es la primer 
película cinematográfica?","1897","1888","","0","0","0","competitive","right","1.4182779789","2578.97202611","3.5817220211","2582.70834708","4.09353995323","2586.80194998","1.90646004677","2588.74240804","2589.87541008","2589.94360805","2592.94400692","0","2592.96097207","2598.36799908",""
"sujeto_a90bad1a","1","3","17","81","2598.49632096","direct","2","1","3","¿Cuántos países 
tiene nuestro planeta?","191","194","","1","1","1","competitive","right","1.63955187798","2600.13597894","3.36044812202","2603.63688898","2.5289850235","2606.16593504","3.4710149765","2609.68431807","2611.0415659","2611.11925888","2614.12224698","1","2614.13653803","2617.37200189",""
"sujeto_a90bad1a","1","3","18","82","2617.50655007","inverse","2","1","2","¿Cuántos habitantes
 tiene Buenos Aires?","2.9000.000","3650000","","0","0","0","individual","left","1.66134595871","2619.16797304","3.33865404129","2622.66326094","3.07055687904","2625.73387909","2.92944312096","2628.71298599","2630.11024809","2630.14785004","2633.15081","0","2633.16520405","2638.99203992",""
"sujeto_a90bad1a","1","3","19","83","2639.14978409","direct","2","1","1","¿Cuántos kilos forman una tonelada?","1000","1500","left","1","1","1","individual","right","1.41509199142","2640.56491804","3.58490800858","2644.30679798","2.49203300476","2646.79887509","3.50796699524","2650.35682297","2652.24416804","2652.29271388","2655.29566002","0","2655.30995107","2661.26736593",""
"sujeto_a90bad1a","1","3","20","84","2661.41075897","inverse","4","1","4","¿Cuántos estados tiene la 
República del Perú? ","24","23","","0","0","1","competitive","right","0.960122108459","2662.370924","4.03987789154","2666.56756496","3.86934900284","2670.43697691","2.13065099716","2672.61932206","2673.64151001","2673.72014689","2676.72309399","0","2676.73709297","2681.68239808",""
"sujeto_a90bad1a","1","3","21","85","2681.83822608","direct","3","1","3","¿En qué año nació Cristóbal Colón? ","1451","1447","","0","0","1","competitive","right","2.38365197182","2684.22194409","2.61634802818","2686.996701","3.97915482521","2690.97589803","2.02084517479","2693.02931595","2694.8752079","2694.94667006","2697.9496491","0","2697.96488404","2702.192873",""
"sujeto_a90bad1a","1","3","22","86","2702.33295488","inverse","4","1","4","¿Cuánto mide la 
Montaña Aconcagua? ","6234","6962","","0","0","1","competitive","left","2.14691591263","2704.4799819","2.85308408737","2707.487602","3.74125814438","2711.22892189","2.25874185562","2713.54070306","2714.830055","2714.90856791","2717.91156888","0","2717.92583895","2725.10948396",""
"sujeto_a90bad1a","1","3","23","87","2725.24387598","direct","2","1","4","¿Cuánto mide el punto
 más profundo del océano? ","12508","11003","","0","0","1","competitive","left","1.36097002029","2726.60489011","3.63902997971","2730.40128207","3.07155013084","2733.47289991","2.92844986916","2736.45151401","2737.70295596","2737.78699303","2740.78998208","0","2740.80426097","2745.01053905",""
"sujeto_a90bad1a","1","3","24","88","2745.15543509","inverse","1","1","3","¿Cuántos álbumes ha publicado 
el cantante Jaime Roos? ","41","34","","0","0","1","competitive","right","1.03641414642","2746.19193411","3.96358585358","2750.31134701","1.97250008583","2752.28389096","4.02749991417","2756.36196494","2757.85177302","2757.93058395","2760.93357801","0","2760.94758105","2767.14371705",""
"sujeto_a90bad1a","1","3","25","89","2767.2821641","direct","4","1","3","¿En qué año nació el 
ex-presidente Jorge Battle? ","1921","1927","","1","1","1","individual","left","2.36273813248","2769.64494705","2.63726186752","2772.43831706","2.58653402328","2775.02489305","3.41346597672","2778.48910904","2780.21974111","2780.25725198","2783.26020908","1","2783.27531695","2786.76137209",""
"sujeto_a90bad1a","1","3","26","90","2786.90999603","inverse","1","1","3","¿Cuántas presidencias 
constitucionales  hubo en Uruguay? ","41","42","","0","0","1","competitive","right","1.0468890667","2787.95696306","3.9531109333","2792.06644988","4.03739690781","2796.10389209","1.96260309219","2798.11742496","2799.32118988","2799.40230203","2802.4052949","0","2802.41860199","2808.202245",""
"sujeto_a90bad1a","1","3","27","91","2808.33745003","direct","1","1","2","¿Quién escribió mas sinfonías?","Mozart","Haydn","","1","1","0","competitive","left","1.94848108292","2810.28600907","3.05151891708","2813.49341607","3.46948504448","2816.96297097","2.53051495552","2819.54497194","2820.76245189","2820.84605908","2823.84904194","1","2823.86323094","2827.61465502",""
"sujeto_a90bad1a","1","3","28","92","2827.74834704","inverse","4","1","2","¿En qué año nació Michael Jackson?","1958","1953","","1","1","1","individual","left","1.08752608299","2828.83597493","3.91247391701","2832.92021704","2.65964102745","2835.57993507","3.34035897255","2838.97072506","2840.94893408","2840.98986197","2843.99280691","1","2844.00678492","2849.86911106",""
"sujeto_a90bad1a","1","3","29","93","2850.00836706","direct","3","1","2","¿En qué año entró en vigencia 
la ley antitabaco en Uruguay?","2005","2006","","1","1","1","individual","right","2.36054706573","2852.368963","2.63945293427","2855.16388893","3.20197606087","2858.36592698","2.79802393913","2861.21607089","2862.81076503","2862.85141587","2865.85438895","1","2865.86866307","2871.20001507",""
"sujeto_a90bad1a","1","3","30","94","2871.33672905","inverse","3","1","1","¿Cuándo se subió el 
primer video a youtube?","2004","2005","","0","0","1","individual","left","1.46214413643","2872.79893994","3.53785586357","2876.49313903","2.11171913147","2878.60491896","3.88828086853","2882.52633595","2883.83196592","2883.8786571","2886.88164997","0","2886.89594007","2894.65156889",""
"sujeto_a90bad1a","1","3","31","95","2894.7800889","direct","2","1","1","¿Cuántos habitantes tiene India?","1200 millones","1300 millones","","0","0","0","individual","right","1.67476296425","2896.4549191","3.32523703575","2899.93824887","2.72265410423","2902.66096592","3.27734589577","2905.98884892","2907.95846391","2908.00750709","2911.01047707","0","2911.0246129","2917.072124",""
"sujeto_a90bad1a","1","3","32","96","2917.20986605","inverse","4","1","2","¿A qué edad murió Bob Marley?","36","37","","0","0","1","individual","left","1.15099310875","2918.36093092","3.84900689125","2922.36409593","2.01875805855","2924.38289499","3.98124194145","2928.41462588","2930.31249309","2930.34996891","2933.35293698","0","2933.3681829","2936.470649",""
"sujeto_a90bad1a","1","4","1","97","3062.86862707","direct","2","1","1","¿Cuantos años dirigió la selección 
uruguaya Tabarez?","15 años","13 años","","0","0","0","individual","left","1.29122114182","3064.159935","3.70877885818","3068.02452707","3.32634496689","3071.35093307","2.67365503311","3074.05857611","3075.24972796","3075.29324508","3078.2960279","0","3078.311059","3085.38001204","2936.48193002"
"sujeto_a90bad1a","1","4","2","98","3085.51271009","inverse","4","1","1","¿Cuantas teclas tiene un teclado 
de computadora generalmente? ","Entre 99 y 108","Entre 109 y 113","","1","1","1","individual","left","1.41317915916","3086.92595506","3.58682084084","3090.67028308","4.75863099098","3095.42895603","1.24136900902","3096.72078109","3097.72351789","3097.77199006","3100.77495909","1","3100.78887701","3103.16031289",""
"sujeto_a90bad1a","1","4","3","99","3103.32378793","direct","1","1","1","¿Cuál Departamento tiene
 mayor superficie?","Río Negro","Soriano","","0","0","0","individual","left","2.32116794586","3105.64503002","2.67883205414","3108.48053098","3.1803188324","3111.66089201","2.8196811676","3114.52992892","3116.24340606","3116.28094792","3119.28387189","0","3119.29909611","3123.62518597",""
"sujeto_a90bad1a","1","4","4","100","3123.76660395","inverse","3","1","2","¿Cuál es el apellido de las 
hermanastras  de  cenicienta?","Tremaine","Truman","","0","0","1","individual","left","2.2643969059","3126.03104711","2.7356030941","3128.93994689","2.85494494438","3131.79495406","3.14505505562","3134.98987293","3136.85941792","3136.9083271","3139.9113009","0","3139.92649388","3142.62244797",""
"sujeto_a90bad1a","1","4","5","101","3142.77775598","direct","4","1","4","¿Cuál película ganó un
 Oscar a mejor película?","Alto Impacto","Cache","","0","0","1","competitive","left","1.42016506195","3144.19798398","3.57983493805","3147.94972205","2.40617704391","3150.35595798","3.59382295609","3153.99974203","3155.11912799","3155.20205688","3158.20399404","0","3158.2191031","3160.48373008",""
"sujeto_a90bad1a","1","4","6","102","3160.62039709","inverse","1","1","3","¿A cuántos centímetros
equivale la medida pié?","25","30","","0","0","1","competitive","left","1.17052698135","3161.79097009","3.82947301865","3165.77580309","2.26008605957","3168.03594494","3.73991394043","3171.8089149","3172.84892201","3172.92709708","3175.93008804","0","3175.94430399","3181.345263",""
"sujeto_a90bad1a","1","4","7","103","3181.47895288","direct","2","1","2","¿Qué departamento es mas grande?","Cerro Largo","Paysandú","","0","0","0","individual","left","1.41796803474","3182.89696503","3.58203196526","3186.63647389","5.33644604683","3191.972965","0.663553953171","3192.68798089","3194.28773093","3194.33759308","3197.34005094","0","3197.3551929","3201.46400499",""
"sujeto_a90bad1a","1","4","8","104","3201.60715604","inverse","2","1","3","¿Quién pintó la Mona Lisa?","Picasso","Da Vinci","right","0","0","1","competitive","right","1.27180600166","3202.8790319","3.72819399834","3206.7463131","2.3816139698","3209.12797689","3.6183860302","3212.79636693","3214.402179","3214.48183393","3217.484761","1","3217.4986949","3219.66006088",""
"sujeto_a90bad1a","1","4","9","105","3219.78405809","direct","4","1","3","¿Cuántos litros hay en un galon?","3.54","3.78","","1","1","1","individual","left","1.23989415169","3221.02402592","3.76010584831","3224.91993403","2.30600619316","3227.22600698","3.69399380684","3230.97173095","3232.48961401","3232.54039502","3235.54333997","1","3235.55743003","3241.34976292",""
"sujeto_a90bad1a","1","4","10","106","3241.47615695","inverse","4","1","1","¿Cuántas teclas tiene
 un piano moderno?","80","88","","0","0","1","individual","right","1.13181900978","3242.60802102","3.86818099022","3246.63301396","2.9489068985","3249.58196497","3.0510931015","3252.68389487","3253.6923871","3253.7356391","3256.73862195","0","3256.7519269","3263.54969692",""
"sujeto_a90bad1a","1","4","11","107","3263.68704796","direct","4","1","3","¿Cuántos países hay en África?","54","62","","0","0","1","individual","left","1.45189404488","3265.13898492","3.54810595512","3268.82860589","1.58435797691","3270.41302609","4.41564202309","3274.87767506","3276.56804109","3276.61375093","3279.61670589","0","3279.63096499","3287.43567801",""
"sujeto_a90bad1a","1","4","12","108","3287.58252597","inverse","1","1","3","¿En qué siglo se crearon
 las primeras pistolas?","XV","XIII","","1","1","1","competitive","left","1.4504327774","3289.03300905","3.5495672226","3292.74035096","2.96264600754","3295.70303988","3.03735399246","3298.77429008","3300.72220111","3300.80876803","3303.81174588","1","3303.82675791","3307.0598321",""
"sujeto_a90bad1a","1","4","13","109","3307.19450307","direct","3","1","4","¿En qué año se estrenó 
la serie friends?","1994","1995","","0","0","1","individual","right","1.66742300987","3308.86199903","3.33257699013","3312.35142088","2.12150907516","3314.4729979","3.87849092484","3318.39847994","3320.27378201","3320.31766295","3323.32002997","0","3323.33517408","3328.34003305",""
"sujeto_a90bad1a","1","4","14","110","3328.50329709","inverse","3","1","4","¿En qué año nació Hitler?","1889","1887","","0","0","1","competitive","right","1.69365096092","3330.19699192","3.30634903908","3333.66155005","2.09337306023","3335.75499105","3.90662693977","3339.69453692","3340.80891609","3340.880234","3343.883214","0","3343.89747","3348.92446995",""
"sujeto_a90bad1a","1","4","15","111","3349.06602001","direct","1","1","4","¿Cuánto pesa un elefante Africano?","6000 kilos","5400 kilos","","0","0","0","competitive","right","1.09795379639","3350.1640501","3.90204620361","3354.22222209","1.99177002907","3356.21406102","4.00822997093","3360.27276897","3361.62869787","3361.70737696","3364.71036696","0","3364.72468495","3371.43172002",""
"sujeto_a90bad1a","1","4","16","112","3371.57614088","inverse","1","1","2","¿Qué porcentaje de 
la población es zurda?","10%","7%","","1","1","0","competitive","right","1.54981994629","3373.12602711","3.45018005371","3376.73404288","2.82393908501","3379.55802107","3.17606091499","3382.78438687","3384.02749705","3384.10194993","3387.10492802","1","3387.11953902","3393.09927702",""
"sujeto_a90bad1a","1","4","17","113","3393.23762798","direct","1","1","2","¿En qué año se estrenó
Volver al futuro?","1984","1985","","0","0","1","competitive","left","1.32832503319","3394.56602597","3.67167496681","3398.39461589","3.10935711861","3401.50401902","2.89064288139","3404.428756","3405.99054503","3406.06357002","3409.06655502","0","3409.08059096","3416.17202401",""
"sujeto_a90bad1a","1","4","18","114","3416.29910994","inverse","3","1","2","¿Cuántos jugadores hay en un 
equipo de baseball?","9","8","","1","1","0","individual","right","1.96290493011","3418.26206708","3.03709506989","3421.47364688","2.69731211662","3424.17102194","3.30268788338","3427.50723004","3429.12148595","3429.17583895","3432.1760149","1","3432.19331908","3437.17055702",""
"sujeto_a90bad1a","1","4","19","115","3437.31115389","direct","2","1","1","¿Cuántos Oscar ganó
 la película titanic?","13","11","","1","1","1","individual","right","1.44482803345","3438.75603104","3.55517196655","3442.46836495","2.50658202171","3444.97501206","3.49341797829","3448.51766491","3449.81971192","3449.86940503","3452.87237692","1","3452.88654494","3457.48920703",""
"sujeto_a90bad1a","1","4","20","116","3457.63905311","inverse","4","1","4","¿En qué año comenzó
la segunda guerra mundial?","1939","1976","left","0","0","1","competitive","left","1.28991508484","3458.92901707","3.71008491516","3462.7941761","2.55579400063","3465.35003209","3.44420599937","3468.84529495","3470.64515209","3470.73009992","3473.73203707","1","3473.7480619","3477.73520899",""
"sujeto_a90bad1a","1","4","21","117","3477.86563206","direct","2","1","4","¿Cuántos biomas hay en Uruguay?","5","4","","0","0","1","competitive","left","1.39632177353","3479.26200294","3.60367822647","3483.020123","1.82083296776","3484.84102392","4.17916703224","3489.07093191","3490.86797905","3490.94084907","3493.94380689","0","3493.95780492","3500.20721006",""
"sujeto_a90bad1a","1","4","22","118","3500.34264398","inverse","2","1","3","¿Cuándo murió Pablo Escobar?","1993","1997","","1","1","1","competitive","right","1.05627703667","3501.39898992","3.94372296333","3505.48267794","1.9732029438","3507.45595503","4.0267970562","3511.53339601","3513.31624103","3513.40229988","3516.40527797","1","3516.41951704","3522.12317491",""
"sujeto_a90bad1a","1","4","23","119","3522.25440693","direct","1","1","4","¿Qué serie ha ganado mas premios?","Friends","Murphy Brown","","1","1","0","competitive","left","1.09150195122","3523.34598303","3.90849804878","3527.41170406","2.98125100136","3530.3930161","3.01874899864","3533.46180606","3534.81421399","3534.89715195","3537.90013599","1","3537.91437101","3543.47274709",""
"sujeto_a90bad1a","1","4","24","120","3543.61538911","inverse","4","1","2","¿Cuántas fichas tiene el dominó?","26","28","","1","1","1","individual","right","1.81857705116","3545.43403506","3.18142294884","3548.77293301","2.00097799301","3550.77397799","3.99902200699","3554.82179689","3555.87711","3555.92401195","3558.92697096","1","3558.94189596","3564.18499708",""
"sujeto_a90bad1a","1","4","25","121","3564.32667398","direct","2","1","4","¿Cuántos son los dientes de leche?","20","25","","0","0","1","competitive","left","1.28934311867","3565.61608696","3.71065688133","3569.4654789","2.71947288513","3572.18499088","3.28052711487","3575.51630592","3577.22669506","3577.30163002","3580.30401587","0","3580.318964","3582.46471095",""
"sujeto_a90bad1a","1","4","26","122","3582.6042769","inverse","3","1","3","¿Cuántos gramos son una onza?","22","28","","0","0","1","competitive","right","3.48269605637","3586.08701611","1.51730394363","3587.75864196","1.68729281425","3589.4459939","4.31270718575","3593.80911803","3595.80394101","3595.87831688","3598.88127398","0","3598.89551306","3605.18574405",""
"sujeto_a90bad1a","1","4","27","123","3605.31348705","direct","3","1","1","¿Cuándo salió el primer album
 de los Beatles?","1963","1962","","1","1","1","individual","right","1.37048411369","3606.68403697","3.62951588631","3610.4543891","2.12460803986","3612.57904196","3.87539196014","3616.50376296","3617.66739893","3617.70533299","3620.70830107","1","3620.72261691","3624.49204898",""
"sujeto_a90bad1a","1","4","28","124","3624.65851307","inverse","3","1","3","¿Quién fundó la empresa apple?","Carlos Slim","Steve Jobs","","1","1","1","competitive","right","1.15640592575","3625.81496","3.84359407425","3629.79679298","2.13711810112","3631.933954","3.86288189888","3635.8476541","3636.96232891","3637.03281903","3640.0357759","1","3640.04980493","3646.347651",""
"sujeto_a90bad1a","1","4","29","125","3646.48496699","direct","4","1","2","¿Cuántos municipios hay
 en Montevideo?","8","7","","1","1","1","individual","right","1.18501281738","3647.67005205","3.81498718262","3651.63998699","4.16694688797","3655.80699611","1.83305311203","3657.69217896","3659.60692","3659.64323211","3662.64616394","1","3662.66016698","3664.74129605",""
"sujeto_a90bad1a","1","4","30","126","3664.87898898","inverse","1","1","1","¿Cuántos kilómetros hay
 de Montevideo a Artigas?","632","599","","0","0","0","individual","right","1.43093490601","3666.30997109","3.56906509399","3670.03492093","3.01500082016","3673.04998088","2.98499917984","3676.08468294","3677.56777692","3677.62010407","3680.62307405","0","3680.63732696","3686.68945098",""
"sujeto_a90bad1a","1","4","31","127","3686.83825898","direct","2","1","2","¿En qué año nació 
Leonardo Da Vinci?","1452","1511","","1","1","0","individual","left","1.06466197968","3687.90299392","3.93533802032","3691.99557805","1.92042613029","3693.91604495","4.07957386971","3698.04584908","3699.89947295","3699.94780803","3702.94805098","1","3702.96525908","3706.11166501",""
"sujeto_a90bad1a","1","4","32","128","3706.2505939","inverse","3","1","1","¿A qué continente
 pertenece el país Gabón?","Africa","Oceanía","","0","0","1","individual","left","1.10432195663","3707.35496402","3.89567804337","3711.38873601","2.80021190643","3714.18898988","3.19978809357","3717.43987393","3719.25153995","3719.29129291","3722.29205203","0","3722.30892205","3727.54679298",""
