"code","nro_aplicante","nro_bloque","nro_trial_bloque","nro_trial_global","show_game_type","choice_order","rival","pay_individual","pay_competitive","question","answer_left_text","answer_right_text","correct_answer","outcome_individual","outcome_competitive","outcome_rival","game_type","answer","social_time","rt_game_type","feedback_delay","show_question","answer_time","rt_answer_global","feedback_delay_2","show_jitter","jitter_time","show_outcome","outcome_time","outcome_participant_real","show_final_jitter","second_jitter_time","inicio_descanso"
"sujeto_e844afe8","1","1","1","1","654.951973915","direct","3","1","4","¿Cuántos centímetros corresponden
al talle 36 del calzado?","23","24","","0","0","1","competitive","left","2.08098506927","657.033021927","2.91901493073","660.122562885","4.18046402931","664.303088903","1.81953597069","666.15850091","667.186817884","667.259262085","670.262242079","0","670.276560068","672.439091921",""
"sujeto_e844afe8","1","1","2","2","672.577719927","inverse","3","1","2","¿Cuántas metros mide la Intendencia
Municipal de Montevideo? ","84","78","","0","0","1","competitive","left","2.61837387085","675.196141005","2.38162612915","677.74853301","4.6005859375","682.349174976","1.3994140625","683.801137924","685.679172039","685.751314878","688.754287004","0","688.769298077","690.862046003",""
"sujeto_e844afe8","1","1","3","3","691.021266937","direct","1","1","3","¿Cuántas La Pasiva
 hay en uruguay?","15","11","","1","1","1","competitive","left","1.8910548687","692.912388086","3.1089451313","696.209465027","3.71476316452","699.924263954","2.28523683548","702.259247065","703.870910883","703.94342494","706.94640398","1","706.961270094","711.239630938",""
"sujeto_e844afe8","1","1","4","4","711.362365961","inverse","3","1","3","¿De que color es la camiseta de uruguay?","blanca","celeste","right","1","1","1","competitive","right","1.6150290966","712.977438927","3.3849709034","716.518591881","5.38189196587","721.900542974","0.618108034134","722.554923058","723.759692907","723.838613033","726.841568947","1","726.855323076","730.309247017",""
"sujeto_e844afe8","1","1","5","5","730.457149982","direct","2","1","1","¿Cuánto metros mide
la torre Eiffel?","333","324","","1","1","1","competitive","left","1.41048002243","731.867674112","3.58951997757","735.613048077","3.66257596016","739.275687933","2.33742403984","741.647335052","743.168716908","743.247673988","746.250633955","1","746.265722036","753.302412987",""
"sujeto_e844afe8","1","1","6","6","753.467597961","inverse","3","1","4","¿Cuantas ciudades existen
 en todo el uruguay?","63","72","","0","0","1","competitive","left","1.40107083321","754.868710995","3.59892916679","758.625272989","4.71152997017","763.336878061","1.28847002983","764.65981698","765.714652061","765.793361902","768.796333075","0","768.810254097","776.436817884",""
"sujeto_e844afe8","1","1","7","7","776.578346014","direct","1","1","1","¿Cuantos estados tiene África?","52","54","","1","1","0","competitive","left","0.799561023712","777.377949953","4.20043897629","781.751925945","4.82413101196","786.576097012","1.17586898804","787.787847042","789.651854038","789.722167969","792.725142002","1","792.740026951","798.501019955",""
"sujeto_e844afe8","1","1","8","8","798.641545057","inverse","4","1","4","¿En qué año nació
 Stephen Hawking?","1952","1942","","0","0","1","competitive","left","1.69654798508","800.338135958","3.30345201492","803.799390078","3.50668597221","807.306133986","2.49331402779","809.849725008","811.292956114","811.366930962","814.369904041","0","814.385137081","820.484503031",""
"sujeto_e844afe8","1","1","9","9","820.669476986","direct","2","1","3","¿Cuánto años tenía Artigas
 cuando se fue a Paraguay?","56","57","","1","1","1","competitive","left","1.24987721443","821.919399023","3.75012278557","825.827259064","4.88806414604","830.715379953","1.11193585396","831.878237009","833.427757978","833.512307882","836.512979031","1","836.529162884","842.576479912",""
"sujeto_e844afe8","1","1","10","10","842.697815895","inverse","1","1","2","¿Cuantos milímetros 
mide una hoja A2?","420x592","420x594","","0","0","1","competitive","right","1.2157099247","843.913593054","3.7842900753","847.855211973","5.62031793594","853.475590944","0.379682064056","853.90675211","855.475210905","855.557707071","858.560647964","0","858.574723959","865.648372889",""
"sujeto_e844afe8","1","1","11","11","865.792407036","direct","3","1","3","¿Cuál es la menor temperatura 
registrada en Uruguay?","-5.4","-7.4","","0","0","1","competitive","left","1.98224520683","867.774696112","3.01775479317","870.950423956","5.52330684662","876.47379899","0.476693153381","876.985665083","878.667680025","878.752271891","881.755249023","0","881.770139933","885.503436089",""
"sujeto_e844afe8","1","1","12","12","885.63873291","inverse","2","1","2","¿Cuantos años hace que 
se fundó facebook?","18","17","","0","0","0","competitive","left","1.17516303062","886.813962936","3.82483696938","890.791723967","4.34812498093","895.13991189","1.65187501907","896.843484879","898.216201067","898.29528904","901.298281908","0","901.311657906","904.086356878",""
"sujeto_e844afe8","1","1","13","13","904.247536898","direct","1","1","4","¿Cuál animal es más
 pesado en promedio?","Rinoceronte","Hipopotamo","","0","0","0","competitive","","1.58548212051","905.833062887","3.41451787949","909.454190016","6","915.454327106","0","915.469731092","916.548957109","916.622041941","919.624943972","0","919.64011693","923.48109889",""
"sujeto_e844afe8","1","1","14","14","923.60868001","inverse","1","1","2","¿Qué personaje de dragon ball 
murió más veces?","Chaoz","Krillin","","1","1","0","competitive","left","1.01447081566","924.623217106","3.98552918434","928.780093908","4.396089077","933.17622304","1.603910923","934.815208912","936.272954941","936.349426031","939.352411985","1","939.366319895","947.139224052",""
"sujeto_e844afe8","1","1","15","15","947.267561913","direct","3","1","2","La universidad de oxford. 
existe desde:","1096","1249","","1","1","0","competitive","right","1.15878295898","948.426414013","3.84121704102","952.40912509","4.37025117874","956.779444933","1.62974882126","958.460980892","959.50979805","959.594542027","962.597536087","1","962.612441063","969.300975084",""
"sujeto_e844afe8","1","1","16","16","969.429713964","inverse","3","1","1","¿Qué escritor latino ganó antes
 el premio nobel?"," García Marquez","Neruda","","0","0","1","competitive","right","1.0367629528","970.466540098","3.9632370472","974.601346016","4.84720015526","979.448611975","1.15279984474","980.653660059","982.393640041","982.47124505","985.474212885","0","985.488339901","988.948872089",""
"sujeto_e844afe8","1","1","17","17","989.12422204","direct","4","1","3","¿Cuántos dientes tiene un
 tiburón blanco?","6000","3000","","0","0","1","individual","left","1.00640916824","990.130693913","3.99359083176","994.298841953","4.58484601974","998.883733034","1.41515398026","1000.34947801","1001.38847899","1001.43361902","1004.43657994","0","1004.45063806","1009.25695801",""
"sujeto_e844afe8","1","1","18","18","1009.41866398","inverse","4","1","1","¿Cuánto mide el paralelo Ecuador?","40.000km","70.000km","","0","0","1","competitive","right","0.934361934662","1010.35313296","4.06563806534","1014.59168601","4.17343997955","1018.76518703","1.82656002045","1020.62691092","1022.58305502","1022.6612041","1025.66412807","0","1025.67918396","1029.28094006",""
"sujeto_e844afe8","1","1","19","19","1029.41307998","direct","4","1","2","¿Cuál fue el primer libro 
de Stephen King?","Carrie","The Stand","","1","1","1","competitive","right","1.2823767662","1030.69551992","3.7176232338","1034.56867909","4.28404593468","1038.85278606","1.71595406532","1040.62118506","1042.36495805","1042.4387269","1045.44172096","1","1045.45661402","1049.93101811",""
"sujeto_e844afe8","1","1","20","20","1050.058285","inverse","2","1","3","¿Qué civilización practicaba
 la momificación?","Grecia","Egipto","right","0","0","1","competitive","right","1.07987594604","1051.138237","3.92012405396","1055.21464801","4.381772995","1059.5964601","1.618227005","1061.26546788","1063.204772","1063.28322005","1066.28515601","1","1066.30034804","1070.52894306",""
"sujeto_e844afe8","1","1","21","21","1070.66898298","direct","4","1","4","¿Cuántos millones de visitas
 recibe google por minuto?","3.0","4.5","","0","0","1","individual","right","0.957832813263","1071.62686205","4.04216718674","1075.82564306","4.21631503105","1080.041996","1.78368496895","1081.87646294","1083.39131904","1083.44442296","1086.44739795","0","1086.46159101","1093.58426499",""
"sujeto_e844afe8","1","1","22","22","1093.76371789","inverse","1","1","3","La máquina de fax. se inventó en:","1843","1960","","0","0","1","competitive","right","1.39576792717","1095.15953302","3.60423207283","1098.92162991","4.86915206909","1103.79082704","1.13084793091","1104.97349095","1106.21560597","1106.29090691","1109.29294705","0","1109.30786705","1112.54416203",""
"sujeto_e844afe8","1","1","23","23","1112.69330311","direct","2","1","4","En la verdadera historia de los
 300 espartanos. habían:","300 soldados","4300 soldados","","1","1","1","competitive","right","2.30874991417","1115.00211191","2.69125008583","1117.84930992","4.85495495796","1122.70430398","1.14504504204","1123.89966893","1125.1609149","1125.23348308","1128.23646688","1","1128.25069809","1132.04896998",""
"sujeto_e844afe8","1","1","24","24","1132.1856699","inverse","1","1","4","¿Cuántos milímetros crece
 el pelo por día?","0.4","0.04","","0","0","0","competitive","left","0.772933959961","1132.95864797","4.22706604004","1137.35906196","4.40978503227","1141.76889896","1.59021496773","1143.39388609","1145.15461397","1145.22775006","1148.230726","0","1148.24481606","1154.97697496",""
"sujeto_e844afe8","1","1","25","25","1155.11414099","direct","4","1","1","¿Cuánto mide la baldosa gris 
clásica de Montevideo?","22x22 cm.","20x20 cm.","","1","1","1","competitive","left","0.846123933792","1155.96033502","4.15387606621","1160.27078605","4.67764115334","1164.94847012","1.32235884666","1166.32270598","1168.31697106","1168.39027309","1171.39326096","1","1171.40750408","1176.950315",""
"sujeto_e844afe8","1","1","26","26","1177.09328198","inverse","2","1","2","¿Cuántas películas de rápidos
 y furiosos hay?","10","11","","1","1","0","competitive","left","0.701519966125","1177.79487801","4.29848003387","1182.24925494","3.63775897026","1185.88707089","2.36224102974","1188.30079007","1189.658849","1189.73525906","1192.7382431","1","1192.7522459","1194.78694606",""
"sujeto_e844afe8","1","1","27","27","1194.93722606","direct","3","1","1","¿Cuántos masters 1000
 ganó Del Potro?","1","2","","1","1","1","competitive","left","1.05012893677","1195.98740005","3.94987106323","1200.10669994","3.71980404854","1203.82656193","2.28019595146","1206.15872502","1207.91335988","1207.99397206","1210.99696493","1","1211.01119089","1218.40756607",""
"sujeto_e844afe8","1","1","28","28","1218.56323099","inverse","2","1","4","¿Cuántos meses dura el 
embarazo de una leona?","3 meses","4 meses","","0","0","1","competitive","right","1.30559706688","1219.86888409","3.69440293312","1223.70549107","4.32660508156","1228.03215504","1.67339491844","1229.7403419","1230.85141492","1230.92432499","1233.92730808","0","1233.94161797","1240.664114",""
"sujeto_e844afe8","1","1","29","29","1240.79274511","direct","1","1","1","¿En qué año fue creado
 el sandwich?","1762","1653","","1","1","0","competitive","right","1.19377207756","1241.9865911","3.80622792244","1245.95086288","3.72480392456","1249.67570996","2.27519607544","1252.00232601","1253.60089707","1253.67003608","1256.67302108","1","1256.68730307","1260.15793896",""
"sujeto_e844afe8","1","1","30","30","1260.28926802","inverse","4","1","2","El nombre de la moneda de Vietnam es:","Dinar","Dong","","0","0","1","competitive","right","1.01974892616","1261.30913997","3.98025107384","1265.44529605","4.01786899567","1269.46322489","1.98213100433","1271.49562192","1272.92761803","1272.99655795","1275.99954891","0","1276.01443291","1282.182868",""
"sujeto_e844afe8","1","1","31","31","1282.3161211","direct","2","1","1","¿cuantos aleteos puede dar 
un colibrí por segundo?","120","50","","0","0","0","competitive","right","1.20734596252","1283.52353096","3.79265403748","1287.45654297","4.85300183296","1292.30960202","1.14699816704","1293.50815606","1295.24056292","1295.30928493","1298.31226707","0","1298.32627702","1302.53699589",""
"sujeto_e844afe8","1","1","32","32","1302.67839289","inverse","4","1","3","¿Qué altura promedio tienen
 los hombres uruguayos?","1.73 m","1.72 m","","1","1","1","competitive","left","1.83663702011","1304.51509809","3.16336297989","1307.86842608","3.9647359848","1311.83320498","2.0352640152","1313.91849208","1315.18092895","1315.25374603","1318.25671697","1","1318.27094102","1322.74688411",""
"sujeto_e844afe8","1","2","1","33","1457.66244411","direct","1","1","1","¿En qué año nació 
el actor Bradd Pitt?","1967","1963","","1","1","1","competitive","left","1.40279912949","1459.0653069","3.59720087051","1462.81733298","3.78511595726","1466.60248804","2.21488404274","1468.86670899","1469.96258092","1470.05207109","1473.055058","1","1473.06903696","1478.99660492","1322.75844193"
"sujeto_e844afe8","1","2","2","34","1479.13667703","inverse","2","1","1","¿Cual es el segundo 
monte más alto?","Kanchenjunga","K2","","1","1","1","competitive","right","0.747049093246","1479.88380098","4.25295090675","1484.29296589","3.51883006096","1487.8118341","2.48116993904","1490.34504509","1491.79696012","1491.87974","1494.88096595","1","1494.89732599","1498.32722092",""
"sujeto_e844afe8","1","2","3","35","1498.46539807","direct","3","1","1","¿Cuándo finalizó la construcción
 del Palacio Legislativo?","1925","1917","","0","0","1","competitive","left","1.77459812164","1500.24004102","3.22540187836","1503.62283492","4.96137905121","1508.58427596","1.03862094879","1509.65788889","1511.29956102","1511.37500811","1514.377985","0","1514.39222288","1520.08978391",""
"sujeto_e844afe8","1","2","4","36","1520.2439959","inverse","3","1","3","¿Cuántos integrantes tenía
 en su inicio  el cuarteto de nos?","3","4","","1","1","1","competitive","right","1.16049909592","1521.40454102","3.83950090408","1525.38457203","4.69997596741","1530.08460498","1.30002403259","1531.43578696","1532.56886292","1532.65260911","1535.65555811","1","1535.67046094","1541.3169229",""
"sujeto_e844afe8","1","2","5","37","1541.45532608","direct","2","1","3","¿Qué valor tiene el número pi?","3.14","4.18","left","0","0","1","competitive","left","1.22950005531","1542.68491197","3.77049994469","1546.612468","3.38744902611","1549.99996805","2.61255097389","1552.66336298","1554.11758208","1554.19800997","1557.20097494","1","1557.21484804","1564.13583302",""
"sujeto_e844afe8","1","2","6","38","1564.28345799","inverse","2","1","2","¿Cuál es la esperanza de vida
 en Uruguay?","75","77","","1","1","0","competitive","left","1.53082180023","1565.8143239","3.46917819977","1569.44108891","3.97429895401","1573.41542912","2.02570104599","1575.47568607","1577.12946796","1577.20982409","1580.21277308","1","1580.22739196","1586.69044209",""
"sujeto_e844afe8","1","2","7","39","1586.82958698","direct","1","1","2","¿Cuantos pisos tiene la torre 
de las comunicaciones?","26","32","","1","1","0","competitive","right","1.11911082268","1587.94876003","3.88088917732","1591.98680711","3.98799204826","1595.97486091","2.01200795174","1598.03774595","1599.86650395","1599.93801498","1602.94096589","1","1602.95615411","1605.10237002",""
"sujeto_e844afe8","1","2","8","40","1605.24087191","inverse","2","1","4","¿En qué país sudamericano 
no hay McDonalds?","Bolivia","Venezuela","","0","0","1","competitive","right","0.690155029297","1605.93112898","4.3098449707","1610.39614105","4.49502706528","1614.89121294","1.50497293472","1616.43115306","1617.74050689","1617.81453609","1620.8175261","0","1620.8315289","1627.19123292",""
"sujeto_e844afe8","1","2","9","41","1627.33316588","direct","3","1","1","¿En qué año empieza
 la Edad Media?","476","512","","1","1","1","competitive","right","1.10921406746","1628.44243002","3.89078593254","1632.47404695","5.23250007629","1637.70658708","0.767499923706","1638.52598095","1639.92974997","1640.00985599","1643.01286888","1","1643.02778506","1646.01634693",""
"sujeto_e844afe8","1","2","10","42","1646.14593005","inverse","3","1","4","¿Hace cuántos años surgió
 el ser humano?","200mil","300mil","","0","0","0","competitive","right","1.02388715744","1647.16992402","3.97611284256","1651.301296","4.25653100014","1655.55786705","1.74346899986","1657.3525269","1659.23858309","1659.31964707","1662.320961","0","1662.3372159","1665.64770508",""
"sujeto_e844afe8","1","2","11","43","1665.77295899","direct","3","1","4","¿Cuántas cuadras tiene
 actualmente 18 de julio? ","36","33","","0","0","1","competitive","left","1.05012202263","1666.82313299","3.94987797737","1670.92806697","4.32710599899","1675.25521708","1.67289400101","1676.9630971","1678.66535997","1678.74738789","1681.75036407","0","1681.76468801","1686.49097705",""
"sujeto_e844afe8","1","2","12","44","1686.63228488","inverse","1","1","4","¿Qué juego de equipo se 
considera mas rápido?","Lacrosse","Badminton","","0","0","0","competitive","right","1.06707000732","1687.69939995","3.93292999268","1691.78923702","4.6512761116","1696.44057608","1.3487238884","1697.840734","1699.08384109","1699.1584959","1702.16145205","0","1702.17539907","1710.16994095",""
"sujeto_e844afe8","1","2","13","45","1710.31014705","direct","1","1","3","¿Qué promedio de edad 
vive una jirafa? ","25","20","","0","0","1","competitive","left","1.30569410324","1711.61590695","3.69430589676","1715.44852996","3.82338786125","1719.27197695","2.17661213875","1721.50152206","1723.26299191","1723.33583903","1726.33884692","0","1726.35382891","1732.30891991",""
"sujeto_e844afe8","1","2","14","46","1732.43800092","inverse","1","1","2","¿Cuántos grandes lagos hay?","7","5","","0","0","1","competitive","left","1.04315710068","1733.48123097","3.95684289932","1737.59695292","3.75229907036","1741.34931302","2.24770092964","1743.64824891","1744.940413","1745.01566505","1748.01864409","0","1748.03295302","1755.85432196",""
"sujeto_e844afe8","1","2","15","47","1755.9841609","direct","3","1","2","¿Cuántos discos de estudio
 grabó Johhny Cash? ","54","43","","1","1","0","competitive","left","1.0223710537","1757.00657892","3.9776289463","1761.12612605","3.94446516037","1765.07065392","2.05553483963","1767.16067004","1768.43931198","1768.51186895","1771.51483488","1","1771.52902102","1778.17993498",""
"sujeto_e844afe8","1","2","16","48","1778.31394911","inverse","4","1","1","¿Cuántos barrios tiene
 Montevideo? ","71","62","","0","0","1","competitive","right","0.901997089386","1779.21601605","4.09800291061","1783.50423002","3.36272978783","1786.86700511","2.63727021217","1789.53811789","1790.54519606","1790.62277889","1793.62577701","0","1793.63980198","1799.10184407",""
"sujeto_e844afe8","1","2","17","49","1799.24245811","direct","3","1","3","¿Qué edad tiene Homero Simpson?","36","42","","0","0","1","competitive","right","1.05273294449","1800.295259","3.94726705551","1804.41613698","2.70815420151","1807.12435794","3.29184579849","1810.46563196","1811.84167004","1811.91734505","1814.92028499","0","1814.93528104","1819.32403994",""
"sujeto_e844afe8","1","2","18","50","1819.47018504","inverse","4","1","2","¿Cuántos países con monarquía 
hay en europa actualmente? ","6","10","","1","1","1","competitive","right","0.68431186676","1820.1545651","4.31568813324","1824.63929605","5.00231218338","1829.64167595","0.99768781662","1830.69322991","1832.13150907","1832.20968294","1835.21264791","1","1835.22782302","1841.38407397",""
"sujeto_e844afe8","1","2","19","51","1841.5120461","direct","2","1","3","¿Cuántos capítulos de
 Friends existen? ","236","228","","1","1","1","competitive","right","1.08280706406","1842.59493208","3.91719293594","1846.67110109","3.95681905746","1850.6279881","2.04318094254","1852.72253895","1854.02811408","1854.10690308","1857.10986304","1","1857.12415695","1859.49980807",""
"sujeto_e844afe8","1","2","20","52","1859.67555594","inverse","1","1","3","¿Cuántas óperas compuso Mozart? ","27","22","","1","1","1","competitive","right","0.958530902863","1860.63413","4.04146909714","1864.83046389","4.25868391991","1869.08920693","1.74131608009","1870.86593604","1872.15807199","1872.23268795","1875.23566008","1","1875.25062895","1882.56210089",""
"sujeto_e844afe8","1","2","21","53","1882.70203996","direct","4","1","3","¿Cuántos mundiales de fútbol 
femenino ha realizado FIFA? ","9","7","","1","1","1","competitive","left","1.07544898987","1883.77755308","3.92455101013","1887.85858989","5.15790200233","1893.01653504","0.842097997665","1893.894171","1895.13788295","1895.21209407","1898.21507502","1","1898.22910905","1904.33157301",""
"sujeto_e844afe8","1","2","22","54","1904.48071694","inverse","3","1","2","¿Cuál es la temperatura 
media anual en Montevideo? ","17.5","16.3","","0","0","1","competitive","left","0.79305100441","1905.27384591","4.20694899559","1909.65154099","5.60431599617","1915.25591493","0.39568400383","1915.70491791","1917.64352798","1917.72145009","1920.72443295","0","1920.73968005","1927.30894303",""
"sujeto_e844afe8","1","2","23","55","1927.44133496","direct","2","1","2","¿En qué año se estrenó el
 videojuego The Sims? ","2000","2002","","0","0","0","competitive","right","0.996736049652","1928.43817592","4.00326395035","1932.61599803","4.96809720993","1937.58414888","1.03190279007","1938.66798592","1940.53002095","1940.6019311","1943.604913","0","1943.61907601","1951.01273608",""
"sujeto_e844afe8","1","2","24","56","1951.13776708","inverse","2","1","1","¿Cuál es la canción con 
mas covers? ","Yesterday","Stand by me","","0","0","0","competitive","right","0.875633001328","1952.01344609","4.12436699867","1956.295614","5.59192681313","1961.88760805","0.408073186874","1962.33145499","1963.73002291","1963.81504393","1966.81696606","0","1966.83224201","1971.00307703",""
"sujeto_e844afe8","1","2","25","57","1971.13365889","direct","1","1","4","¿Cuánto duró la guerra
 de los 100 años?","116","123","","0","0","0","competitive","right","1.07903599739","1972.21276188","3.92096400261","1976.28950095","4.26028895378","1980.54982805","1.73971104622","1982.324404","1983.80521798","1983.87497592","1986.87795091","0","1986.89298511","1989.21275592",""
"sujeto_e844afe8","1","2","26","58","1989.36131096","inverse","4","1","4","¿Qué color tiene la  bandera de Brasil?","Amarillo","Naranja","left","0","0","1","competitive","left","1.15059089661","1990.51196599","3.84940910339","1994.52967095","4.14335584641","1998.67309093","1.85664415359","2000.56575799","2002.13229203","2002.21668696","2005.21696496","1","2005.23415208","2008.26695609",""
"sujeto_e844afe8","1","2","27","59","2008.41984606","direct","4","1","3","¿Qué carabela de 
Colon no volvió del viaje?","Santa María","La pinta","","0","0","1","competitive","right","0.743384122849","2009.163275","4.25661587715","2013.57603312","5.1992521286","2018.77535105","0.800747871399","2019.62821507","2021.11925006","2021.194731","2024.19770408","0","2024.21201205","2026.31147695",""
"sujeto_e844afe8","1","2","28","60","2026.44720197","inverse","4","1","4","¿Cuántos huesos tiene
 un adulto humano?","217","206","","0","0","1","competitive","left","1.05719804764","2027.50444102","3.94280195236","2031.60212302","4.46138691902","2036.06355","1.53861308098","2037.6375699","2038.90861392","2038.98783588","2041.98895192","0","2042.00491595","2049.84257197",""
"sujeto_e844afe8","1","2","29","61","2049.97405791","direct","1","1","1","¿Qué país africano fue 
fundado por esclavos?","Liberia","Chad","","0","0","0","competitive","left","1.03997302055","2051.014148","3.96002697945","2055.12863898","4.19324994087","2059.3219471","1.80675005913","2061.16434193","2063.15599608","2063.23211193","2066.23509097","0","2066.25010109","2074.23698592",""
"sujeto_e844afe8","1","2","30","62","2074.3676641","inverse","4","1","2","¿A cuánto asciende la cima
 del monte Everest?","7.990 mts","8.848 mts","","0","0","1","competitive","right","0.952408075333","2075.320117","4.04759192467","2079.52720594","5.56097006798","2085.08822489","0.439029932022","2085.56276488","2086.74763298","2086.82930708","2089.83229494","0","2089.84647393","2097.02895904",""
"sujeto_e844afe8","1","2","31","63","2097.18199992","direct","4","1","1","¿Cuál es el país mas chico?","Sealand","Luxemburgo","","1","1","1","competitive","left","0.971359968185","2098.15340304","4.02864003181","2102.35571694","4.07775092125","2106.43351388","1.92224907875","2108.39088702","2110.25437307","2110.32467008","2113.32765007","1","2113.34302092","2116.46532202",""
"sujeto_e844afe8","1","2","32","64","2116.59422398","inverse","2","1","4","¿Cuántas pirámides hay en Egipto?","10000","11000","","1","1","1","competitive","left","1.08447289467","2117.67875099","3.91552710533","2121.74928808","2.93443703651","2124.68376493","3.06556296349","2127.80050111","2128.83409595","2128.91849303","2131.92145896","1","2131.93555689","2137.04459596",""
"sujeto_e844afe8","1","3","1","65","2272.73045301","direct","2","1","2","¿Cuál es el quinto país con 
mas extensión?","Canadá","Brasil","","1","1","0","competitive","right","1.18021297455","2273.9107101","3.81978702545","2277.87965488","4.30213093758","2282.1818471","1.69786906242","2283.931669","2285.26495004","2285.34948301","2288.3524549","1","2288.367028","2296.09341502","2137.05609608"
"sujeto_e844afe8","1","3","2","66","2296.21809292","inverse","1","1","2","¿Qué rasgo facial no tiene
 la Mona Lisa?","Cejas","Pómulos","","0","0","1","competitive","right","1.00783491135","2297.22600198","3.99216508865","2301.3943069","3.09369802475","2304.48804307","2.90630197525","2307.42858791","2309.17897606","2309.2631011","2312.26494408","0","2312.28116393","2318.55250311",""
"sujeto_e844afe8","1","3","3","67","2318.69991708","direct","4","1","3","¿Cuál es el país con 
mayor población?","Esados Unidos","China","right","0","0","1","competitive","right","1.14032816887","2319.84029198","3.85967183113","2323.85724497","4.27604293823","2328.13333106","1.72395706177","2329.89080906","2331.53684592","2331.60801792","2334.610991","1","2334.62631011","2337.99365497",""
"sujeto_e844afe8","1","3","4","68","2338.12757111","inverse","1","1","1","La palabra dinosaurio significa","Lagarto Terrible","Lagarto Dragón","","1","1","0","competitive","left","0.661904096603","2338.78954411","4.3380959034","2343.28340292","5.40014195442","2348.68360901","0.599858045578","2349.335747","2350.50607991","2350.58586001","2353.58886909","1","2353.60291409","2356.46474004",""
"sujeto_e844afe8","1","3","5","69","2356.604774","direct","2","1","3","¿Qué es el membrillero?","Arbol","Arbusto","","0","0","0","competitive","left","1.48588490486","2358.09072208","3.51411509514","2361.76006508","4.76569104195","2366.52582002","1.23430895805","2367.8118","2369.7649169","2369.84513497","2372.84811711","0","2372.86341405","2379.32744503",""
"sujeto_e844afe8","1","3","6","70","2379.46406007","inverse","3","1","3","¿Alrededor de qué planeta orbita 
el satélite Europa?","Jupiter","Saturno","","1","1","1","competitive","left","0.920854091644","2380.38498092","4.07914590836","2384.63864207","4.40144491196","2389.04014897","1.59855508804","2390.6903069","2392.23508501","2392.30733991","2395.30895996","1","2395.324054","2397.52918911",""
"sujeto_e844afe8","1","3","7","71","2397.660074","direct","3","1","1","¿Donde fue el mundial de 
fútbol de 1954?","Suiza","Suecia","","1","1","1","competitive","right","0.931128025055","2398.59130597","4.06887197495","2402.8145051","4.67272996902","2407.48727703","1.32727003098","2408.86643195","2410.11906004","2410.20074511","2413.20372391","1","2413.21774411","2417.12952995",""
"sujeto_e844afe8","1","3","8","72","2417.28532791","inverse","1","1","4","¿Cuál de los 7 enanitos
no tenía barba?","Bashful","Mudito","","1","1","0","competitive","right","2.29113698006","2419.57653308","2.70886301994","2422.44527793","4.97522306442","2427.42056704","1.02477693558","2428.47730303","2430.05739188","2430.144243","2433.14723897","1","2433.16159701","2438.09064698",""
"sujeto_e844afe8","1","3","9","73","2438.24622989","direct","3","1","2","¿Cual red social es
mas utilizada mundialmente?","Instagram","Facebook","","1","1","0","competitive","right","0.907418966293","2439.1537199","4.09258103371","2443.4020319","3.47270989418","2446.87480402","2.52729010582","2449.45359397","2451.37094998","2451.45520902","2454.45819688","1","2454.472332","2457.40492511",""
"sujeto_e844afe8","1","3","10","74","2457.5405879","inverse","4","1","1","¿Cuándo se inició la copa
 América de fútbol?","1916","1923","","1","1","1","competitive","right","0.832264900208","2458.372926","4.16773509979","2462.71265602","4.27732276917","2466.99002504","1.72267723083","2468.74744296","2470.64486408","2470.73180103","2473.73482299","1","2473.7487781","2476.40490603",""
"sujeto_e844afe8","1","3","11","75","2476.53415489","direct","3","1","4","¿Cuántos presidentes de EEUU
han muerto asesinados?","3","4","","0","0","1","competitive","right","0.881990909576","2477.4161911","4.11800909042","2481.70472002","3.8903927803","2485.59516907","2.1096072197","2487.75697398","2489.24095201","2489.32474494","2492.32772207","0","2492.34271002","2495.98681903",""
"sujeto_e844afe8","1","3","12","76","2496.11025906","inverse","2","1","4","¿Cuántas veces participó EEUU
 en la copa América?","4","5","","0","0","1","competitive","right","0.86510515213","2496.9754281","4.13489484787","2501.29987693","3.9234559536","2505.22337008","2.0765440464","2507.35090804","2508.79501295","2508.8687489","2511.87174296","0","2511.88582301","2518.00300694",""
"sujeto_e844afe8","1","3","13","77","2518.13738394","direct","4","1","1","¿Cuál de estos países 
no formaba la URSS?","Azeribayán","Afganistán","","0","0","1","competitive","left","0.786306858063","2518.923738","4.21369314194","2523.29464602","4.67801308632","2527.97269702","1.32198691368","2529.32984591","2530.64292097","2530.71311498","2533.71607804","0","2533.73059511","2541.71271706",""
"sujeto_e844afe8","1","3","14","78","2541.86549306","inverse","1","1","1","¿En qué año se inauguró
 el teatro Solís?","1867","1856","","0","0","0","competitive","left","3.12537717819","2544.99091506","1.87462282181","2547.02122998","4.6437318325","2551.6650219","1.3562681675","2553.05925798","2554.11557508","2554.19289494","2557.19585991","0","2557.21002197","2563.85784507",""
"sujeto_e844afe8","1","3","15","79","2563.99478388","direct","1","1","4","¿A qué velocidad vuela 
el avión más rápido?","3529","3874","","0","0","0","competitive","right","0.716391086578","2564.71124196","4.28360891342","2569.15183806","4.25335001945","2573.4052279","1.74664998055","2575.20398688","2576.95950699","2577.03782606","2580.04081988","0","2580.05489993","2582.16516399",""
"sujeto_e844afe8","1","3","16","80","2582.28985596","inverse","3","1","4","¿De qué año es la primer 
película cinematográfica?","1897","1888","","0","0","0","competitive","left","1.27847385406","2583.56837296","3.72152614594","2587.44579411","4.97363090515","2592.41948509","1.02636909485","2593.48010707","2594.61310911","2594.69778204","2597.70077991","0","2597.71497893","2603.12475705",""
"sujeto_e844afe8","1","3","17","81","2603.26595306","direct","2","1","3","¿Cuántos países 
tiene nuestro planeta?","191","194","","1","1","1","competitive","right","1.04462003708","2604.31064105","3.95537996292","2608.42234397","5.04726791382","2613.46967793","0.952732086182","2614.45796609","2615.8151679","2615.89114904","2618.89412594","1","2618.90838695","2622.14666891",""
"sujeto_e844afe8","1","3","18","82","2622.29382205","inverse","2","1","2","¿Cuántos habitantes
 tiene Buenos Aires?","2.9000.000","3650000","","0","0","0","competitive","right","0.843924999237","2623.13778996","4.15607500076","2627.46648693","3.9083840847","2631.37491393","2.0916159153","2633.50029111","2634.89755511","2634.98464894","2637.98763895","0","2638.0025661","2643.83192801",""
"sujeto_e844afe8","1","3","19","83","2643.97019696","direct","2","1","1","¿Cuántos kilos forman una tonelada?","1000","1500","left","1","1","1","competitive","left","2.59985494614","2646.57009506","2.40014505386","2649.12522197","4.32391190529","2653.449193","1.67608809471","2655.17982602","2657.067132","2657.14654708","2660.14945793","1","2660.16440296","2666.12182403",""
"sujeto_e844afe8","1","3","20","84","2666.26612306","inverse","4","1","4","¿Cuántos estados tiene la 
República del Perú? ","24","23","","0","0","1","competitive","left","0.854267120361","2667.12050009","4.14573287964","2671.45610094","3.21928405762","2674.67544508","2.78071594238","2677.50701404","2678.528898","2678.60813808","2681.61111498","0","2681.62526608","2686.57053399",""
"sujeto_e844afe8","1","3","21","85","2686.72647095","direct","3","1","3","¿En qué año nació Cristóbal Colón? ","1451","1447","","0","0","1","competitive","left","0.83806180954","2687.56458306","4.16193819046","2691.88301206","3.68353509903","2695.56658602","2.31646490097","2697.93396306","2699.77985311","2699.85225701","2702.85523605","0","2702.86958408","2707.09755206",""
"sujeto_e844afe8","1","3","22","86","2707.23835111","inverse","4","1","4","¿Cuánto mide la 
Montaña Aconcagua? ","6234","6962","","0","0","1","competitive","right","1.07641291618","2708.31486797","3.92358708382","2712.42720509","2.73451805115","2715.16177988","3.26548194885","2718.47781706","2719.76714611","2719.84610701","2722.84910202","0","2722.86301899","2730.04667497",""
"sujeto_e844afe8","1","3","23","87","2730.23174906","direct","2","1","4","¿Cuánto mide el punto
 más profundo del océano? ","12508","11003","","0","0","1","competitive","left","0.773812055588","2731.00561404","4.22618794441","2735.38706493","4.04304599762","2739.43015003","1.95695400238","2741.42329097","2742.67481399","2742.75703406","2745.76001501","0","2745.77402806","2749.98029208",""
"sujeto_e844afe8","1","3","24","88","2750.10979795","inverse","1","1","3","¿Cuántos álbumes ha publicado 
el cantante Jaime Roos? ","41","34","","0","0","1","competitive","right","0.614430904388","2750.72429299","4.38556909561","2755.29974508","4.51057100296","2759.81035495","1.48942899704","2761.33418989","2762.82404804","2762.9022851","2765.9052701","0","2765.91964388","2772.11581492",""
"sujeto_e844afe8","1","3","25","89","2772.25421691","direct","4","1","3","¿En qué año nació el 
ex-presidente Jorge Battle? ","1921","1927","","1","1","1","competitive","left","0.730226993561","2772.98448706","4.26977300644","2777.44475293","5.26774406433","2782.71253896","0.732255935669","2783.49641705","2785.22708988","2785.29665399","2788.29960799","1","2788.313797","2791.796947",""
"sujeto_e844afe8","1","3","26","90","2791.93241501","inverse","1","1","3","¿Cuántas presidencias 
constitucionales  hubo en Uruguay? ","41","42","","0","0","1","competitive","right","0.708288192749","2792.64080405","4.29171180725","2797.12171006","3.43599915504","2800.55774999","2.56400084496","2803.17240191","2804.37612796","2804.45720196","2807.460181","0","2807.47520089","2813.25882292",""
"sujeto_e844afe8","1","3","27","91","2813.39274502","direct","1","1","2","¿Quién escribió mas sinfonías?","Mozart","Haydn","","1","1","0","competitive","left","0.858260154724","2814.25105596","4.14173984528","2818.54719806","3.46584105492","2822.01308203","2.53415894508","2824.5988369","2825.81631494","2825.9010179","2828.90397906","1","2828.91817403","2832.6695931",""
"sujeto_e844afe8","1","3","28","92","2832.80271697","inverse","4","1","2","¿En qué año nació Michael Jackson?","1958","1953","","1","1","1","competitive","left","0.772472858429","2833.57526898","4.22752714157","2837.95999908","3.45221805573","2841.4122839","2.54778194427","2844.01108003","2845.98932695","2846.06288791","2849.06587195","1","2849.08023095","2854.94255495",""
"sujeto_e844afe8","1","3","29","93","2855.08187604","direct","3","1","2","¿En qué año entró en vigencia 
la ley antitabaco en Uruguay?","2005","2006","","1","1","1","competitive","right","1.07053899765","2856.15248799","3.92946100235","2860.25558805","5.90293002129","2866.15857911","0.097069978714","2866.30738211","2867.9021399","2867.97391891","2870.97690392","1","2870.99106097","2876.32502699",""
"sujeto_e844afe8","1","3","30","94","2876.45991611","inverse","3","1","1","¿Cuándo se subió el 
primer video a youtube?","2004","2005","","0","0","1","competitive","right","0.832768917084","2877.29275107","4.16723108292","2881.61673594","3.59092593193","2885.20770502","2.40907406807","2887.66781497","2888.97350597","2889.0524869","2892.05546188","0","2892.069453","2899.825068",""
"sujeto_e844afe8","1","3","31","95","2899.95384789","direct","2","1","1","¿Cuántos habitantes tiene India?","1200 millones","1300 millones","","0","0","0","competitive","right","0.560068130493","2900.51396394","4.43993186951","2905.10869408","3.79226517677","2908.90102506","2.20773482323","2911.1453321","2913.11494994","2913.19617605","2916.19912004","0","2916.21421695","2922.26095295",""
"sujeto_e844afe8","1","3","32","96","2922.39885092","inverse","4","1","2","¿A qué edad murió Bob Marley?","36","37","","0","0","1","competitive","right","0.760535955429","2923.15943694","4.23946404457","2927.5570581","3.12617897987","2930.68329692","2.87382102013","2933.59084296","2935.48870993","2935.57604289","2938.57904792","0","2938.59329891","2941.69576502",""
"sujeto_e844afe8","1","4","1","97","3087.54888296","direct","2","1","1","¿Cuantos años dirigió la selección 
uruguaya Tabarez?","15 años","13 años","","0","0","0","competitive","left","1.68485784531","3089.23380399","3.31514215469","3092.72749305","3.68827819824","3096.41581202","2.31172180176","3098.77860594","3099.96896791","3100.04611111","3103.04892993","0","3103.06340098","3110.1329391","2941.70744801"
"sujeto_e844afe8","1","4","2","98","3110.29773092","inverse","4","1","1","¿Cuantas teclas tiene un teclado 
de computadora generalmente? ","Entre 99 y 108","Entre 109 y 113","","1","1","1","individual","right","0.964195013046","3111.26197004","4.03580498695","3115.4555831","3.1733520031","3118.62897491","2.8266479969","3121.506845","3122.50964189","3122.5580771","3125.56101799","1","3125.57505989","3127.94649792",""
"sujeto_e844afe8","1","4","3","99","3128.07687092","direct","1","1","1","¿Cuál Departamento tiene
 mayor superficie?","Río Negro","Soriano","","0","0","0","competitive","left","1.26712703705","3129.344064","3.73287296295","3133.24762297","4.27126193047","3137.51894093","1.72873806953","3139.29972792","3141.01316404","3141.08314109","3144.08608198","0","3144.10115004","3148.42719293",""
"sujeto_e844afe8","1","4","4","100","3148.56940293","inverse","3","1","2","¿Cuál es el apellido de las 
hermanastras  de  cenicienta?","Tremaine","Truman","","0","0","1","competitive","right","0.548681020737","3149.11812901","4.45131897926","3153.75863504","3.8444211483","3157.60309505","2.1555788517","3159.8096261","3161.67912698","3161.760391","3164.76099396","0","3164.77828598","3167.47420907",""
"sujeto_e844afe8","1","4","5","101","3167.61351895","direct","4","1","4","¿Cuál película ganó un
 Oscar a mejor película?","Alto Impacto","Cache","","0","0","1","competitive","left","1.17366504669","3168.78722906","3.82633495331","3172.76869607","3.22852706909","3175.99728107","2.77147293091","3178.81927991","3179.93866205","3180.02052307","3183.02350998","0","3183.03858495","3185.30316901",""
"sujeto_e844afe8","1","4","6","102","3185.45658803","inverse","1","1","3","¿A cuántos centímetros
equivale la medida pié?","25","30","","0","0","1","competitive","right","0.785877227783","3186.2425189","4.21412277222","3190.62633109","5.32295894623","3195.94934988","0.677041053772","3196.66294599","3197.70295191","3197.77977395","3200.782763","0","3200.79670811","3206.19767094",""
"sujeto_e844afe8","1","4","7","103","3206.33144808","direct","2","1","2","¿Qué departamento es mas grande?","Cerro Largo","Paysandú","","0","0","0","individual","left","1.16694712639","3207.49845791","3.83305287361","3211.50585198","4.69661188126","3216.20252395","1.30338811874","3217.55720806","3219.1569829","3219.20774508","3222.20895696","0","3222.22531605","3226.33297896",""
"sujeto_e844afe8","1","4","8","104","3226.45979691","inverse","2","1","3","¿Quién pintó la Mona Lisa?","Picasso","Da Vinci","right","0","0","1","competitive","right","0.765822887421","3227.22569394","4.23417711258","3231.63257098","3.33392095566","3234.96653104","2.66607904434","3237.68323112","3239.28893495","3239.36825109","3242.37123394","1","3242.38555789","3244.54788804",""
"sujeto_e844afe8","1","4","9","105","3244.68731999","direct","4","1","3","¿Cuántos litros hay en un galon?","3.54","3.78","","1","1","1","competitive","right","1.48734784126","3246.1747179","3.51265215874","3249.8422811","4.4604139328","3254.30275488","1.5395860672","3255.87723088","3257.39511704","3257.47724509","3260.48022294","1","3260.49526191","3266.28489208",""
"sujeto_e844afe8","1","4","10","106","3266.46270299","inverse","4","1","1","¿Cuántas teclas tiene
 un piano moderno?","80","88","","0","0","1","competitive","right","0.913072824478","3267.37582493","4.08692717552","3271.61722302","4.01754307747","3275.63480592","1.98245692253","3277.67022896","3278.67867899","3278.7548449","3281.75781298","0","3281.77098489","3288.56873989",""
"sujeto_e844afe8","1","4","11","107","3288.722965","direct","4","1","3","¿Cuántos países hay en África?","54","62","","0","0","1","competitive","left","0.657288789749","3289.38032103","4.34271121025","3293.88156199","2.78344583511","3296.66507292","3.21655416489","3299.93203497","3301.62259102","3301.70059705","3304.7036109","0","3304.71783209","3312.52259707",""
"sujeto_e844afe8","1","4","12","108","3312.65275002","inverse","1","1","3","¿En qué siglo se crearon
 las primeras pistolas?","XV","XIII","","1","1","1","competitive","right","2.7763338089","3315.42912793","2.2236661911","3317.81028008","4.78075313568","3322.59107089","1.21924686432","3323.84626102","3325.79299808","3325.86258197","3328.86496305","1","3328.88125205","3332.11435199",""
"sujeto_e844afe8","1","4","13","109","3332.24909496","direct","3","1","4","¿En qué año se estrenó 
la serie friends?","1994","1995","","0","0","1","competitive","right","1.1721599102","3333.421314","3.8278400898","3337.40465999","1.45855402946","3338.8632741","4.54144597054","3343.45382905","3345.32897496","3345.40637088","3348.40934992","0","3348.42441607","3353.43048811",""
"sujeto_e844afe8","1","4","14","110","3353.5590229","inverse","3","1","4","¿En qué año nació Hitler?","1889","1887","","0","0","1","competitive","right","0.673402070999","3354.23250389","4.326597929","3358.71216011","4.28415513039","3362.99635291","1.71584486961","3364.76560688","3365.87999701","3365.94965696","3368.95265388","0","3368.96680808","3373.99379802",""
"sujeto_e844afe8","1","4","15","111","3374.13518405","direct","1","1","4","¿Cuánto pesa un elefante Africano?","6000 kilos","5400 kilos","","0","0","0","competitive","right","0.779264211655","3374.91453099","4.22073578835","3379.29282308","5.01973509789","3384.31259894","0.980264902115","3385.34414506","3386.700073","3386.77867889","3389.78166509","0","3389.79587603","3396.50293899",""
"sujeto_e844afe8","1","4","16","112","3396.63070488","inverse","1","1","2","¿Qué porcentaje de 
la población es zurda?","10%","7%","","1","1","0","competitive","right","0.868892908096","3397.49964499","4.1311070919","3401.7883811","4.89134097099","3406.67978811","1.10865902901","3407.82277989","3409.06589389","3409.13976502","3412.14274001","1","3412.15704799","3418.13679099",""
"sujeto_e844afe8","1","4","17","113","3418.27534604","direct","1","1","2","¿En qué año se estrenó
Volver al futuro?","1984","1985","","0","0","1","competitive","right","0.954493999481","3419.22994304","4.04550600052","3423.44872189","4.46810102463","3427.91690898","1.53189897537","3429.50053406","3431.06236792","3431.13513708","3434.13811207","0","3434.15212488","3441.24090195",""
"sujeto_e844afe8","1","4","18","114","3441.37047791","inverse","3","1","2","¿Cuántos jugadores hay en un 
equipo de baseball?","9","8","","1","1","0","competitive","left","0.723592996597","3442.09414697","4.2764070034","3446.5258131","3.85414814949","3450.38002706","2.14585185051","3452.57876396","3454.19305301","3454.26323605","3457.26620388","1","3457.28015399","3462.25739288",""
"sujeto_e844afe8","1","4","19","115","3462.39945889","direct","2","1","1","¿Cuántos Oscar ganó
 la película titanic?","13","11","","1","1","1","competitive","right","0.64661192894","3463.04611707","4.35338807106","3467.55473089","3.61838006973","3471.1731751","2.38161993027","3473.60626888","3474.90833998","3474.99152398","3477.99452591","1","3478.00872302","3482.60897493",""
"sujeto_e844afe8","1","4","20","116","3482.74323893","inverse","4","1","4","¿En qué año comenzó
la segunda guerra mundial?","1939","1976","left","0","0","1","competitive","right","0.608061075211","3483.35135102","4.39193892479","3487.89856911","4.19773006439","3492.09636211","1.80226993561","3493.95087504","3495.74968791","3495.83518791","3498.83698201","0","3498.85231495","3502.83947301",""
"sujeto_e844afe8","1","4","21","117","3502.97130895","direct","2","1","4","¿Cuántos biomas hay en Uruguay?","5","4","","0","0","1","competitive","right","1.3231408596","3504.29451799","3.6768591404","3508.12769389","3.15974497795","3511.28750801","2.84025502205","3514.16051102","3515.95787501","3516.02891994","3519.03187799","0","3519.04682708","3525.29294395",""
"sujeto_e844afe8","1","4","22","118","3525.43199611","inverse","2","1","3","¿Cuándo murió Pablo Escobar?","1993","1997","","1","1","1","competitive","right","0.88559794426","3526.317662","4.11440205574","3530.62072802","2.74287796021","3533.36366606","3.25712203979","3536.65570307","3538.43853307","3538.52383709","3541.52681398","1","3541.54195309","3547.24559689",""
"sujeto_e844afe8","1","4","23","119","3547.37634206","direct","1","1","4","¿Qué serie ha ganado mas premios?","Friends","Murphy Brown","","1","1","0","competitive","right","0.877412080765","3548.25383306","4.12258791924","3552.53361893","1.9421749115","3554.4758389","4.0578250885","3558.583426","3559.93585491","3560.01848102","3563.02146411","1","3563.03599","3568.59763694",""
"sujeto_e844afe8","1","4","24","120","3568.7380991","inverse","4","1","2","¿Cuántas fichas tiene el dominó?","26","28","","1","1","1","competitive","left","0.909867048264","3569.648036","4.09013295174","3573.89459991","4.36939787865","3578.26405597","1.63060212135","3579.94580507","3581.00113511","3581.07984591","3584.08282709","1","3584.09708595","3589.34019399",""
"sujeto_e844afe8","1","4","25","121","3589.4824121","direct","2","1","4","¿Cuántos son los dientes de leche?","20","25","","0","0","1","competitive","left","0.877671957016","3590.36014891","4.12232804298","3594.63841796","4.15472793579","3598.793185","1.84527206421","3600.68927193","3602.39962697","3602.47416806","3605.47697496","0","3605.49137092","3607.63705492",""
"sujeto_e844afe8","1","4","26","122","3607.7772131","inverse","3","1","3","¿Cuántos gramos son una onza?","22","28","","0","0","1","competitive","left","0.631071090698","3608.40835094","4.3689289093","3612.9281559","3.35513997078","3616.28333712","2.64486002922","3618.980546","3620.97539997","3621.06569195","3624.06866598","0","3624.0829041","3630.37316489",""
"sujeto_e844afe8","1","4","27","123","3630.51812506","direct","3","1","1","¿Cuándo salió el primer album
 de los Beatles?","1963","1962","","1","1","1","competitive","right","0.725373029709","3631.24356794","4.27462697029","3635.69374108","2.19170594215","3637.88548994","3.80829405785","3641.74328899","3642.90687299","3642.978966","3645.98193908","1","3645.9960351","3649.76807809",""
"sujeto_e844afe8","1","4","28","124","3649.91458011","inverse","3","1","3","¿Quién fundó la empresa apple?","Carlos Slim","Steve Jobs","","1","1","1","competitive","right","0.719002008438","3650.63364506","4.28099799156","3655.10342407","4.67019414902","3659.77365899","1.32980585098","3661.15487194","3662.2689321","3662.33883309","3665.34095502","1","3665.35606599","3671.65392399",""
"sujeto_e844afe8","1","4","29","125","3671.79088593","direct","4","1","2","¿Cuántos municipios hay
 en Montevideo?","8","7","","1","1","1","competitive","right","2.35290908813","3674.14385891","2.64709091187","3676.94685411","3.14584708214","3680.09273911","2.85415291786","3682.98252201","3684.89696693","3684.98460293","3687.98759604","1","3688.0015769","3690.08270597",""
"sujeto_e844afe8","1","4","30","126","3690.21964502","inverse","1","1","1","¿Cuántos kilómetros hay
 de Montevideo a Artigas?","632","599","","0","0","0","competitive","right","0.631260871887","3690.8509531","4.36873912811","3695.39054894","4.49239802361","3699.88299203","1.50760197639","3701.42575097","3702.90886688","3702.993752","3705.99674892","0","3706.01044393","3712.06095791",""
"sujeto_e844afe8","1","4","31","127","3712.19549894","direct","2","1","2","¿En qué año nació 
Leonardo Da Vinci?","1452","1511","","1","1","0","competitive","right","0.93457198143","3713.13013601","4.06542801857","3717.385782","1.72431015968","3719.11013198","4.27568984032","3723.43611002","3725.28899407","3725.372051","3728.37501597","1","3728.38928294","3731.53298903",""
"sujeto_e844afe8","1","4","32","128","3731.657341","inverse","3","1","1","¿A qué continente
 pertenece el país Gabón?","Africa","Oceanía","","0","0","1","competitive","left","1.18393993378","3732.84133911","3.81606006622","3736.81290102","5.40738677979","3742.22035599","0.592613220215","3742.8480711","3744.65975094","3744.73194003","3747.73493099","0","3747.74887609","3752.98491192",""
