"code","nro_aplicante","nro_bloque","nro_trial_bloque","nro_trial_global","show_game_type","choice_order","rival","pay_individual","pay_competitive","question","answer_left_text","answer_right_text","correct_answer","outcome_individual","outcome_competitive","outcome_rival","game_type","answer","social_time","rt_game_type","feedback_delay","show_question","answer_time","rt_answer_global","feedback_delay_2","show_jitter","jitter_time","show_outcome","outcome_time","outcome_participant_real","show_final_jitter","second_jitter_time","inicio_descanso"
"sujeto_c7735ca1",1,1,1,1,30.3881261349,"direct",3,1,4,"¿Cuántos centímetros corresponden
al talle 36 del calzado?",23,24,,0,0,1,"competitive","right",2.22353506088,32.6117019653,2.77646493912,35.5654480457,2.03132796288,37.5968420506,3.96867203712,41.5984251499,42.626707077,42.7007119656,45.7036530972,0,45.7183070183,47.8808090687,
"sujeto_c7735ca1",1,1,2,2,48.0162341595,"inverse",3,1,2,"¿Cuántas metros mide la Intendencia
Municipal de Montevideo? ",84,78,,0,0,1,"competitive","left",1.82569909096,49.8419790268,3.17430090904,53.1742939949,3.06163096428,56.2359941006,2.93836903572,59.2221710682,61.1002190113,61.1735961437,64.1765899658,0,64.1912391186,66.2840089798,
"sujeto_c7735ca1",1,1,3,3,66.4119110107,"direct",1,1,3,"¿Cuántas La Pasiva
 hay en uruguay?",15,11,,1,1,1,"individual","left",1.69109606743,68.103069067,3.30890393257,71.5499379635,3.03314900398,74.5831291676,2.96685099602,77.5990440845,79.2100811005,79.2493700981,82.251955986,1,82.2663071156,86.5410151482,
"sujeto_c7735ca1",1,1,4,4,86.6861600876,"inverse",3,1,3,"¿De que color es la camiseta de uruguay?","blanca","celeste","right",1,1,1,"competitive","right",2.84501004219,89.531234026,2.15498995781,91.86079216,2.45850110054,94.31935215,3.54149889946,97.9112889767,99.1161000729,99.197229147,102.199963093,1,102.214221001,105.668168068,
"sujeto_c7735ca1",1,1,5,5,105.81299901,"direct",2,1,1,"¿Cuánto metros mide
la torre Eiffel?",333,324,,1,1,1,"competitive","left",2.49242782593,108.30547595,2.50757217407,110.966413975,3.2920229435,114.258476973,2.7079770565,117.022431135,118.543794155,118.623500109,121.626470089,1,121.640832186,128.67365098,
"sujeto_c7735ca1",1,1,6,6,128.81135416,"inverse",3,1,4,"¿Cuantas ciudades existen
 en todo el uruguay?",63,72,,0,0,1,"competitive","right",2.43827605247,131.249673128,2.56172394753,133.980556965,3.27710485458,137.257702112,2.72289514542,140.013228178,141.068048954,141.14618516,144.149171114,0,144.16288805,151.789505005,
"sujeto_c7735ca1",1,1,7,7,151.934995174,"direct",1,1,1,"¿Cuantos estados tiene África?",52,54,,1,1,0,"individual","left",2.57984209061,154.514949083,2.42015790939,157.092069149,3.05788207054,160.150011063,2.94211792946,163.146023989,165.010015011,165.04707098,168.050002098,1,168.065644979,173.826693058,
"sujeto_c7735ca1",1,1,8,8,173.967116117,"inverse",4,1,4,"¿En qué año nació
 Stephen Hawking?",1952,1942,,0,0,1,"individual","right",1.67193603516,175.639094114,3.32806396484,179.139656067,2.33450484276,181.474225044,3.66549515724,185.190420151,186.634737015,186.674791098,189.677760124,0,189.693128109,195.792493105,
"sujeto_c7735ca1",1,1,9,9,195.928714037,"direct",2,1,3,"¿Cuánto años tenía Artigas
 cuando se fue a Paraguay?",56,57,,1,1,1,"competitive","left",2.29557585716,198.224334955,2.70442414284,201.085170031,3.06021094322,204.145419121,2.93978905678,207.119277,208.668794155,208.754589081,211.757568121,1,211.771885157,217.81915617,
"sujeto_c7735ca1",1,1,10,10,217.959145069,"inverse",1,1,2,"¿Cuantos milímetros 
mide una hoja A2?","420x592","420x594",,0,0,1,"competitive","right",2.03943586349,219.998625994,2.96056413651,223.127771139,2.26974797249,225.39755702,3.73025202751,229.178241968,230.746663094,230.83053112,233.833502054,0,233.848148108,240.92179513,
"sujeto_c7735ca1",1,1,11,11,241.067527056,"direct",3,1,3,"¿Cuál es la menor temperatura 
registrada en Uruguay?",-5.4,-7.4,,0,0,1,"individual","left",2.40927290916,243.476859093,2.59072709084,246.225619078,3.86030817032,250.08596611,2.13969182968,252.260426044,253.942471027,253.995023966,256.997956991,0,257.012570143,260.744973183,
"sujeto_c7735ca1",1,1,12,12,260.880980015,"inverse",2,1,2,"¿Cuantos años hace que 
se fundó facebook?",18,17,,0,0,0,"individual","right",2.67704391479,263.55806613,2.32295608521,266.034772158,2.77530097961,268.810112,3.22469902039,272.086579084,273.459325075,273.504976988,276.507963181,0,276.522572994,279.296954155,
"sujeto_c7735ca1",1,1,13,13,279.425958157,"direct",1,1,4,"¿Cuál animal es más
 pesado en promedio?","Rinoceronte","Hipopotamo",,0,0,0,"individual","left",2.6742041111,282.100203991,2.3257958889,284.579009056,3.0502538681,287.629321098,2.9497461319,290.663599014,291.742841959,291.781206131,294.784183025,0,294.79848814,298.639465094,
"sujeto_c7735ca1",1,1,14,14,298.785171032,"inverse",1,1,2,"¿Qué personaje de dragon ball 
murió más veces?","Chaoz","Krillin",,1,1,0,"competitive","right",2.2212729454,301.006529093,2.7787270546,303.95528698,2.55821609497,306.51354599,3.44178390503,310.006109953,311.463925123,311.541486025,314.544438124,1,314.559000015,322.331947088,
"sujeto_c7735ca1",1,1,15,15,322.480581999,"direct",3,1,2,"La universidad de oxford. 
existe desde:",1096,1249,,1,1,0,"individual","left",1.77113509178,324.251780987,3.22886490822,327.65200305,3.53376293182,331.185806036,2.46623706818,333.701995134,334.75080514,334.803975105,337.806964159,1,337.820543051,344.510962963,
"sujeto_c7735ca1",1,1,16,16,344.658560038,"inverse",3,1,1,"¿Qué escritor latino ganó antes
 el premio nobel?"," García Marquez","Neruda",,0,0,1,"competitive","left",2.65365004539,347.312255144,2.34634995461,349.828142166,3.42686414719,353.25504303,2.57313585281,355.880748987,357.620787144,357.698863029,360.701902151,0,360.716278076,364.176841021,
"sujeto_c7735ca1",1,1,17,17,364.317599058,"direct",4,1,3,"¿Cuántos dientes tiene un
 tiburón blanco?",6000,3000,,0,0,1,"individual","left",2.3405790329,366.65824008,2.6594209671,369.473581076,3.32758402824,372.801201105,2.67241597176,375.524427176,376.563429117,376.609075069,379.612065077,0,379.626388073,384.436088085,
"sujeto_c7735ca1",1,1,18,18,384.578575134,"inverse",4,1,1,"¿Cuánto mide el paralelo Ecuador?","40.000km","70.000km",,0,0,1,"individual","right",2.0468211174,386.625437975,2.9531788826,389.734204054,3.10916900635,392.843410969,2.89083099365,395.784836054,397.740987062,397.786159039,400.789137125,0,400.803325176,404.405900002,
"sujeto_c7735ca1",1,1,19,19,404.571463108,"direct",4,1,2,"¿Cuál fue el primer libro 
de Stephen King?","Carrie","The Stand",,1,1,1,"competitive","left",2.32113718987,406.892645121,2.67886281013,409.728265047,3.19233989716,412.920648098,2.80766010284,415.778786182,417.521960974,417.596733093,420.599687099,1,420.614681959,425.089122057,
"sujeto_c7735ca1",1,1,20,20,425.233911037,"inverse",2,1,3,"¿Qué civilización practicaba
 la momificación?","Grecia","Egipto","right",0,0,1,"competitive","right",2.23791384697,427.471889019,2.76208615303,430.403839111,3.01608920097,433.419975996,2.98391079903,436.440123081,438.379433155,438.457842112,441.460855961,1,441.475253105,445.703917027,
"sujeto_c7735ca1",1,1,21,21,445.859228134,"direct",4,1,4,"¿Cuántos millones de visitas
 recibe google por minuto?",3,4.5,,0,0,1,"competitive","right",2.43689012527,448.296169996,2.56310987473,451.031912088,3.86329483986,454.895266056,2.13670516014,457.08467412,458.599555016,458.685589075,461.688596964,0,461.702893972,468.825556993,
"sujeto_c7735ca1",1,1,22,22,468.958348989,"inverse",1,1,3,"La máquina de fax. se inventó en:",1843,1960,,0,0,1,"competitive","left",2.36696100235,471.325371981,2.63303899765,474.111761093,3.36769914627,477.479524136,2.63230085373,480.162994146,481.405105114,481.480920076,484.483908176,0,484.498501062,487.734812021,
"sujeto_c7735ca1",1,1,23,23,487.882963181,"direct",2,1,4,"En la verdadera historia de los
 300 espartanos. habían:","300 soldados","4300 soldados",,1,1,1,"competitive","left",2.83062791824,490.713660002,2.16937208176,493.055022955,5.22662711143,498.281692028,0.773372888565,499.090444088,500.35165906,500.423825026,503.426820993,1,503.441558123,507.243332148,
"sujeto_c7735ca1",1,1,24,24,507.375929117,"inverse",1,1,4,"¿Cuántos milímetros crece
 el pelo por día?",0.4,0.04,,0,0,0,"competitive","right",1.90089416504,509.276915073,3.09910583496,512.548623085,4.55833387375,517.107017994,1.44166612625,518.583332062,520.344011068,520.417263031,523.420205116,0,523.435325146,530.170405149,
"sujeto_c7735ca1",1,1,25,25,530.322837114,"direct",4,1,1,"¿Cuánto mide la baldosa gris 
clásica de Montevideo?","22x22 cm.","20x20 cm.",,1,1,1,"competitive","right",2.82226395607,533.1451931,2.17773604393,535.490683079,4.69348096848,540.184204102,1.30651903152,541.529137135,543.523962021,543.596702099,546.599660158,1,546.613984108,552.155982018,
"sujeto_c7735ca1",1,1,26,26,552.317522049,"inverse",2,1,2,"¿Cuántas películas de rápidos
 y furiosos hay?",10,11,,1,1,0,"competitive","right",1.93782281876,554.255395174,3.06217718124,557.472382069,4.22600579262,561.698426962,1.77399420738,563.52376914,564.881775141,564.958237171,567.961253166,1,567.975751162,570.010401011,
"sujeto_c7735ca1",1,1,27,27,570.145943165,"direct",3,1,1,"¿Cuántos masters 1000
 ganó Del Potro?",1,2,,1,1,1,"competitive","right",2.24359107018,572.389605999,2.75640892982,575.3151021,3.46846604347,578.783627987,2.53153395653,581.366541147,583.120980978,583.201086998,586.204005957,1,586.218261003,593.61460495,
"sujeto_c7735ca1",1,1,28,28,593.753035069,"inverse",2,1,4,"¿Cuántos meses dura el 
embarazo de una leona?","3 meses","4 meses",,0,0,1,"competitive","right",2.12577795982,595.878895998,2.87422204018,598.910489082,3.1493639946,602.059911966,2.8506360054,604.962381124,606.073462963,606.146680117,609.149693966,0,609.164078951,615.885050058,
"sujeto_c7735ca1",1,1,29,29,616.015187979,"direct",1,1,1,"¿En qué año fue creado
 el sandwich?",1762,1653,,1,1,0,"competitive","right",2.55997896194,618.575229168,2.44002103806,621.16823101,4.09583902359,625.264126062,1.90416097641,627.207249165,628.80582118,628.874360085,631.877340078,1,631.891530037,635.36214304,
"sujeto_c7735ca1",1,1,30,30,635.497214079,"inverse",4,1,2,"El nombre de la moneda de Vietnam es:","Dinar","Dong",,0,0,1,"competitive","left",2.36306500435,637.860341072,2.63693499565,640.664858103,3.71552610397,644.380442142,2.28447389603,646.700700045,648.132692099,648.218500137,651.221491098,0,651.236238003,657.399598122,
"sujeto_c7735ca1",1,1,31,31,657.537223101,"direct",2,1,1,"¿cuantos aleteos puede dar 
un colibrí por segundo?",120,50,,0,0,0,"competitive","left",2.53735113144,660.074635983,2.46264886856,662.707714081,4.64793682098,667.35571003,1.35206317902,668.745731115,670.478149176,670.563519001,673.566545963,0,673.581184149,677.793517113,
"sujeto_c7735ca1",1,1,32,32,677.966521025,"inverse",4,1,3,"¿Qué altura promedio tienen
 los hombres uruguayos?","1.73 m","1.72 m",,1,1,1,"competitive","left",2.7162899971,680.682955027,2.2837100029,683.137434006,3.66640996933,686.803915024,2.33359003067,689.190057993,690.452507973,690.524214983,693.527201176,1,693.541501999,698.017445087,
"sujeto_c7735ca1",1,2,1,1,36.8776910305,"direct",1,1,1,"¿En qué año nació 
el actor Bradd Pitt?",1967,1963,,1,1,1,"competitive","left",2.28248906136,39.1602220535,2.71751093864,42.0646369457,3.35249996185,45.417183876,2.64750003815,48.116850853,49.2126009464,49.2850880623,52.2880139351,1,52.3020250797,58.2248859406,
"sujeto_c7735ca1",1,2,2,2,58.3532910347,"inverse",2,1,1,"¿Cual es el segundo 
monte más alto?","Kanchenjunga","K2",,1,1,1,"competitive","left",2.6570110321,61.0103640556,2.3429889679,63.5093050003,3.65974783897,67.1691150665,2.34025216103,69.5611510277,71.0135798454,71.0967259407,74.0997178555,1,74.1131188869,77.5402159691,
"sujeto_c7735ca1",1,2,3,3,77.6964030266,"direct",3,1,1,"¿Cuándo finalizó la construcción
 del Palacio Legislativo?",1925,1917,,0,0,1,"competitive","left",2.69861197472,80.3950779438,2.30138802528,82.8677859306,3.70124387741,86.5690729618,2.29875612259,88.9217879772,90.5634639263,90.639291048,93.6422729492,0,93.6564879417,99.3536040783,
"sujeto_c7735ca1",1,2,4,4,99.4956989288,"inverse",3,1,3,"¿Cuántos integrantes tenía
 en su inicio  el cuarteto de nos?",3,4,,1,1,1,"competitive","left",2.69331002235,102.189074039,2.30668997765,104.64695096,4.05702996254,108.704042912,1.94297003746,110.69924593,111.832345963,111.916354895,114.919291019,1,114.933845043,120.583687067,
"sujeto_c7735ca1",1,2,5,5,120.737165928,"direct",2,1,3,"¿Qué valor tiene el número pi?",3.14,4.18,"left",0,0,1,"competitive","left",4.44274997711,125.179978848,0.557250022888,125.892583847,2.71736502647,128.610008955,3.28263497353,131.942503929,133.396570921,133.477653027,136.480669022,1,136.495131016,143.415632963,
"sujeto_c7735ca1",1,2,6,6,143.563350916,"inverse",2,1,2,"¿Cuál es la esperanza de vida
 en Uruguay?",75,77,,1,1,0,"competitive","right",2.86156201363,146.424954891,2.13843798637,148.718210936,4.06266784668,152.780921936,1.93733215332,154.7551229,156.408639908,156.489816904,159.492754936,1,159.507062912,165.970108986,
"sujeto_c7735ca1",1,2,7,7,166.108027935,"direct",1,1,2,"¿Cuantos pisos tiene la torre 
de las comunicaciones?",26,32,,1,1,0,"competitive","left",3.06083202362,169.168923855,1.93916797638,171.265619993,4.59429883957,175.85998106,1.40570116043,177.300787926,179.129606009,179.201272011,182.204246998,1,182.21875906,184.364970922,
"sujeto_c7735ca1",1,2,8,8,184.52028203,"inverse",2,1,4,"¿En qué país sudamericano 
no hay McDonalds?","Bolivia","Venezuela",,0,0,1,"competitive","right",2.81360912323,187.333952904,2.18639087677,189.671952963,3.7109310627,193.382946968,2.2890689373,195.706585884,197.015958071,197.09168601,200.094702005,0,200.109228849,206.468957901,
"sujeto_c7735ca1",1,2,9,9,206.611964941,"direct",3,1,1,"¿En qué año empieza
 la Edad Media?",476,512,,1,1,1,"competitive","right",2.92087697983,209.532886982,2.07912302017,211.783443928,3.88142704964,215.664911032,2.11857295036,217.820461035,219.224210978,219.305297852,222.308279991,1,222.322731972,225.311282873,
"sujeto_c7735ca1",1,2,10,10,225.45902586,"inverse",3,1,4,"¿Hace cuántos años surgió
 el ser humano?","200mil","300mil",,0,0,0,"competitive","left",4.34876489639,229.807852983,0.651235103607,230.611362934,3.29955101013,233.910954952,2.70044898987,236.647367001,238.533416033,238.615620852,241.618602037,0,241.632863998,244.94333601,
"sujeto_c7735ca1",1,2,11,11,245.080882072,"direct",3,1,4,"¿Cuántas cuadras tiene
 actualmente 18 de julio? ",36,33,,0,0,1,"competitive","left",1.91608810425,246.997088909,3.08391189575,250.256561995,3.32829523087,253.584918022,2.67170476913,256.304960966,258.007189035,258.089248896,261.092236042,0,261.106903076,265.833195925,
"sujeto_c7735ca1",1,2,12,12,265.977186918,"inverse",1,1,4,"¿Qué juego de equipo se 
considera mas rápido?","Lacrosse","Badminton",,0,0,0,"competitive","right",2.71068906784,268.687941074,2.28931093216,271.130257845,4.60262799263,275.732945919,1.39737200737,277.185829878,278.428593874,278.502213955,281.505151987,0,281.519876957,289.514590979,
"sujeto_c7735ca1",1,2,13,13,289.654346943,"direct",1,1,3,"¿Qué promedio de edad 
vive una jirafa? ",25,20,,0,0,1,"competitive","right",0.849640846252,290.504065037,4.15035915375,294.812358856,2.97559690475,297.787994862,3.02440309525,300.896431923,302.657911062,302.731385946,305.734363079,0,305.747498035,311.703196049,
"sujeto_c7735ca1",1,2,14,14,311.848307848,"inverse",1,1,2,"¿Cuántos grandes lagos hay?",7,5,,0,0,1,"competitive","right",2.00867700577,313.857027054,2.99132299423,317.007457018,3.70748400688,320.714998007,2.29251599312,323.058232069,324.350386858,324.42642498,327.429411888,0,327.443588018,335.264963865,
"sujeto_c7735ca1",1,2,15,15,335.394633055,"direct",3,1,2,"¿Cuántos discos de estudio
 grabó Johhny Cash? ",54,43,,1,1,0,"competitive","right",1.66339206696,337.058089018,3.33660793304,340.553566933,4.11042380333,344.664032936,1.88957619667,346.587208986,347.865833044,347.937978029,350.940937042,1,350.955281019,357.606186867,
"sujeto_c7735ca1",1,2,16,16,357.739861012,"inverse",4,1,1,"¿Cuántos barrios tiene
 Montevideo? ",71,62,,0,0,1,"competitive","right",4.09812021255,361.838022947,0.901879787445,362.894636869,2.25744104385,365.152119875,3.74255895615,368.946192026,369.953279018,370.031821012,373.034810066,0,373.048300982,378.506193876,
"sujeto_c7735ca1",1,2,17,17,378.65408802,"direct",3,1,3,"¿Qué edad tiene Homero Simpson?",36,42,,0,0,1,"competitive","right",1.75699114799,380.411144018,3.24300885201,383.808520079,4.33861303329,388.147181988,1.66138696671,389.859443903,391.235470057,391.310706854,394.313698053,0,394.328335047,398.717027903,
"sujeto_c7735ca1",1,2,18,18,398.862877846,"inverse",4,1,2,"¿Cuántos países con monarquía 
hay en europa actualmente? ",6,10,,1,1,1,"competitive","left",2.37929105759,401.242231846,2.62070894241,404.035079002,4.29308009148,408.328218937,1.70691990852,410.070354939,411.508666039,411.587553024,414.590529919,1,414.605953932,420.762748957,
"sujeto_c7735ca1",1,2,19,19,420.9066329,"direct",2,1,3,"¿Cuántos capítulos de
 Friends existen? ",236,228,,1,1,1,"competitive","right",1.67060995102,422.577306986,3.32939004898,426.06354785,4.11770987511,430.181315899,1.88229012489,432.114547014,433.419617891,433.498858929,436.501844883,1,436.516300917,438.891958952,
"sujeto_c7735ca1",1,2,20,20,439.034355879,"inverse",1,1,3,"¿Cuántas óperas compuso Mozart? ",27,22,,1,1,1,"competitive","right",1.63993501663,440.674361944,3.36006498337,444.189292908,3.01798701286,447.207324982,2.98201298714,450.239742041,451.531908035,451.607979059,454.610975027,1,454.625535011,461.937011003,
"sujeto_c7735ca1",1,2,21,21,462.076308012,"direct",4,1,3,"¿Cuántos mundiales de fútbol 
femenino ha realizado FIFA? ",9,7,,1,1,1,"competitive","right",2.72709512711,464.803447008,2.27290487289,467.230615854,3.90280294418,471.133457899,2.09719705582,473.285719872,474.529406071,474.604274035,477.607241869,1,477.621613979,483.724097013,
"sujeto_c7735ca1",1,2,22,22,483.871782064,"inverse",3,1,2,"¿Cuál es la temperatura 
media anual en Montevideo? ",17.5,16.3,,0,0,1,"competitive","left",2.09471487999,485.966585875,2.90528512001,489.029481888,4.1650018692,493.194577932,1.8349981308,495.081409931,497.020025015,497.098934889,500.101937056,0,500.11631608,506.685822964,
"sujeto_c7735ca1",1,2,23,23,506.834809065,"direct",2,1,2,"¿En qué año se estrenó el
 videojuego The Sims? ",2000,2002,,0,0,0,"competitive","right",2.28576993942,509.120645046,2.71423006058,512.004590988,3.95501613617,515.959666967,2.04498386383,518.060112953,519.922114849,519.993613958,522.996551991,0,523.012014866,530.405612946,
"sujeto_c7735ca1",1,2,24,24,530.546074867,"inverse",2,1,1,"¿Cuál es la canción con 
mas covers? ","Yesterday","Stand by me",,0,0,0,"competitive","right",2.7705719471,533.316689968,2.2294280529,535.720066071,4.42563605309,540.145761013,1.57436394691,541.772047997,543.17057991,543.255993843,546.25897789,0,546.274184942,550.445024014,
"sujeto_c7735ca1",1,2,25,25,550.574755907,"direct",1,1,4,"¿Cuánto duró la guerra
 de los 100 años?",116,123,,0,0,0,"competitive","left",1.65100002289,552.225798845,3.34899997711,555.714840889,2.90898990631,558.623898029,3.09101009369,561.764559031,563.245410919,563.316755056,566.319710016,0,566.334301949,568.654098988,
"sujeto_c7735ca1",1,2,26,26,568.78579402,"inverse",4,1,4,"¿Qué color tiene la  bandera de Brasil?","Amarillo","Naranja","left",0,0,1,"competitive","left",0.413249969482,569.199096918,4.58675003052,573.940348864,3.61050009727,577.550911903,2.38949990273,579.97460103,581.541113853,581.626180887,584.629175901,1,584.642632008,587.675427914,
"sujeto_c7735ca1",1,2,27,27,587.827213049,"direct",4,1,3,"¿Qué carabela de 
Colon no volvió del viaje?","Santa María","La pinta",,0,0,1,"competitive","left",2.66269898415,590.489956856,2.33730101585,592.997519016,4.97241806984,597.969964981,1.02758193016,599.052177906,600.542626858,600.618926048,603.621852875,0,603.637207985,605.736641884,
"sujeto_c7735ca1",1,2,28,28,605.886805058,"inverse",4,1,4,"¿Cuántos huesos tiene
 un adulto humano?",217,206,,0,0,1,"individual","left",1.4931910038,607.380038023,3.5068089962,611.042909861,2.51713395119,613.560086012,3.48286604881,617.092964888,618.36398387,618.411216021,621.414212942,0,621.428803921,629.266501904,
"sujeto_c7735ca1",1,2,29,29,629.417572975,"direct",1,1,1,"¿Qué país africano fue 
fundado por esclavos?","Liberia","Chad",,0,0,0,"individual","left",2.00364780426,631.421264887,2.99635219574,634.58752799,3.84162998199,638.429199934,2.15837001801,640.639809847,642.631464958,642.674674034,645.677654982,0,645.69213891,653.682999849,
"sujeto_c7735ca1",1,2,30,30,653.826540947,"inverse",4,1,2,"¿A cuánto asciende la cima
 del monte Everest?","7.990 mts","8.848 mts",,0,0,1,"competitive","right",1.97182297707,655.798434019,3.02817702293,659.000980854,3.38032007217,662.381361008,2.61967992783,665.051657915,666.236528873,666.319905996,669.322896957,0,669.336583853,676.520642042,
"sujeto_c7735ca1",1,2,31,31,676.65466094,"direct",4,1,1,"¿Cuál es el país mas chico?","Sealand","Luxemburgo",,1,1,1,"competitive","right",2.82476997375,679.479475021,2.17523002625,681.812913895,3.27949404716,685.092452049,2.72050595284,687.847220898,689.710752964,689.798738003,692.801723003,1,692.816051006,695.938318014,
"sujeto_c7735ca1",1,2,32,32,696.085483074,"inverse",2,1,4,"¿Cuántas pirámides hay en Egipto?",10000,11000,,1,1,1,"competitive","left",3.21601700783,699.30159688,1.78398299217,701.271983862,3.01947402954,704.291518927,2.98052597046,707.321635962,708.355247021,708.439699888,711.442611933,1,711.456230879,716.565300941,
"sujeto_c7735ca1",1,3,1,33,826.737304926,"direct",2,1,2,"¿Cuál es el quinto país con 
mas extensión?","Canadá","Brasil",,1,1,0,"competitive","right",1.30401206017,828.041384935,3.69598793983,831.891247034,3.27511310577,835.166400909,2.72488689423,837.925358057,839.258671999,839.342839003,842.34582305,1,842.360996962,850.087342978,716.581073999
"sujeto_c7735ca1",1,3,2,34,850.229924917,"inverse",1,1,2,"¿Qué rasgo facial no tiene
 la Mona Lisa?","Cejas","Pómulos",,0,0,1,"competitive","left",2.26254796982,852.492544889,2.73745203018,855.386587858,4.13488698006,859.52156496,1.86511301994,861.438768864,863.189197063,863.272233963,866.275212049,0,866.29004693,872.561416864,
"sujeto_c7735ca1",1,3,3,35,872.690672874,"direct",4,1,3,"¿Cuál es el país con 
mayor población?","Esados Unidos","China","right",0,0,1,"competitive","right",1.24801707268,873.938732862,3.75198292732,877.848460913,2.48122000694,880.329741001,3.51877999306,883.898462057,885.54451704,885.616328001,888.619340897,1,888.634655952,892.001602888,
"sujeto_c7735ca1",1,3,4,36,892.136417866,"inverse",1,1,1,"La palabra dinosaurio significa","Lagarto Terrible","Lagarto Dragón",,1,1,0,"competitive","right",2.23339509964,894.369904041,2.76660490036,897.307240963,3.84159088135,901.148874998,2.15840911865,903.359781981,904.530125856,904.610900879,907.613889933,1,907.628583908,910.49041605,
"sujeto_c7735ca1",1,3,5,37,910.628736973,"direct",2,1,3,"¿Qué es el membrillero?","Arbol","Arbusto",,0,0,0,"competitive","left",2.00015997887,912.628963947,2.99984002113,915.801522017,5.29345607758,921.095005035,0.706543922424,921.836480856,923.790621996,923.871067047,926.87400794,0,926.887981892,933.351948023,
"sujeto_c7735ca1",1,3,6,38,933.510011911,"inverse",3,1,3,"¿Alrededor de qué planeta orbita 
el satélite Europa?","Jupiter","Saturno",,1,1,1,"competitive","right",1.39702296257,934.907096863,3.60297703743,938.664241076,4.1498260498,942.814126968,1.8501739502,944.714416027,946.259187937,946.332381964,949.335310936,1,949.350115061,951.555250883,
"sujeto_c7735ca1",1,3,7,39,951.704088926,"direct",3,1,1,"¿Donde fue el mundial de 
fútbol de 1954?","Suiza","Suecia",,1,1,1,"competitive","left",2.85311484337,954.557250977,2.14688515663,956.869541883,4.06975293159,960.939357042,1.93024706841,962.921813965,964.174403906,964.256851912,967.259595871,1,967.273568869,971.185303926,
"sujeto_c7735ca1",1,3,8,40,971.341237068,"inverse",1,1,4,"¿Cuál de los 7 enanitos
no tenía barba?","Bashful","Mudito",,1,1,0,"competitive","right",0.866091012955,972.207401037,4.13390898705,976.499319077,3.01302409172,979.512383938,2.98697590828,982.54984808,984.129999876,984.218883038,987.221850872,1,987.236537933,992.165639877,
"sujeto_c7735ca1",1,3,9,41,992.323130846,"direct",3,1,2,"¿Cual red social es
mas utilizada mundialmente?","Instagram","Facebook",,1,1,0,"competitive","left",2.86739897728,995.190608025,2.13260102272,997.494796991,2.53474903107,1000.02958703,3.46525096893,1003.54492188,1005.46231294,1005.54650593,1008.54948497,1,1008.56423807,1011.49876404,
"sujeto_c7735ca1",1,3,10,42,1011.64727402,"inverse",4,1,1,"¿Cuándo se inició la copa
 América de fútbol?",1916,1923,,1,1,1,"competitive","right",1.23037099838,1012.87770891,3.76962900162,1016.80006289,2.84259986877,1019.64272094,3.15740013123,1022.85370708,1024.75117207,1024.83821702,1027.8411839,1,1027.85668206,1030.51281404,
"sujeto_c7735ca1",1,3,11,43,1030.656991,"direct",3,1,4,"¿Cuántos presidentes de EEUU
han muerto asesinados?",3,4,,0,0,1,"competitive","right",1.09280514717,1031.74984097,3.90719485283,1035.79723191,4.43862199783,1040.23589587,1.56137800217,1041.84858894,1043.33255601,1043.415977,1046.41896296,0,1046.43355203,1050.07468987,
"sujeto_c7735ca1",1,3,12,44,1050.22066808,"inverse",2,1,4,"¿Cuántas veces participó EEUU
 en la copa América?",4,5,,0,0,1,"competitive","right",2.6823079586,1052.90304589,2.3176920414,1055.39007497,3.25995779037,1058.65009499,2.74004220963,1061.4425509,1062.88666701,1062.96055007,1065.96354485,0,1065.97803688,1072.0951829,
"sujeto_c7735ca1",1,3,13,45,1072.24690795,"direct",4,1,1,"¿Cuál de estos países 
no formaba la URSS?","Azeribayán","Afganistán",,0,0,1,"competitive","right",1.10425901413,1073.35121393,3.89574098587,1077.40250707,3.08264088631,1080.48520803,2.91735911369,1083.45247006,1084.76554799,1084.83800793,1087.84101796,0,1087.85531187,1095.83742595,
"sujeto_c7735ca1",1,3,14,46,1095.99002504,"inverse",1,1,1,"¿En qué año se inauguró
 el teatro Solís?",1867,1856,,0,0,0,"competitive","right",1.52628302574,1097.51637197,3.47371697426,1101.14643598,3.75587391853,1104.90237188,2.24412608147,1107.19612288,1108.25162601,1108.32963896,1111.33160591,0,1111.34720492,1117.99502397,
"sujeto_c7735ca1",1,3,15,47,1118.13197684,"direct",1,1,4,"¿A qué velocidad vuela 
el avión más rápido?",3529,3874,,0,0,0,"competitive","left",1.92651200294,1120.05855203,3.07348799706,1123.29321289,2.43533992767,1125.72859287,3.56466007233,1129.34362888,1131.09872198,1131.17840195,1134.18139601,0,1134.19593287,1136.30622387,
"sujeto_c7735ca1",1,3,16,48,1136.44815207,"inverse",3,1,4,"¿De qué año es la primer 
película cinematográfica?",1897,1888,,0,0,0,"competitive","right",1.73448204994,1138.18267798,3.26551795006,1141.60223794,4.55451393127,1146.15679502,1.44548606873,1147.65387487,1148.78684998,1148.87049699,1151.87356591,0,1151.88801193,1157.29502201,
"sujeto_c7735ca1",1,3,17,49,1157.44130898,"direct",2,1,3,"¿Cuántos países 
tiene nuestro planeta?",191,194,,1,1,1,"competitive","right",2.71849489212,1160.15990686,2.28150510788,1162.61336708,3.30751609802,1165.92092586,2.69248390198,1168.66505384,1170.02228594,1170.09959602,1173.10260892,1,1173.11691403,1176.35518885,
"sujeto_c7735ca1",1,3,18,50,1176.50441289,"inverse",2,1,2,"¿Cuántos habitantes
 tiene Buenos Aires?","2.9000.000",3650000,,0,0,0,"competitive","left",2.54553890228,1179.0499959,2.45446109772,1181.67256904,3.00140118599,1184.67401004,2.99859881401,1187.7241509,1189.12141705,1189.19150305,1192.19448304,0,1192.20902991,1198.03594494,
"sujeto_c7735ca1",1,3,19,51,1198.17746687,"direct",2,1,1,"¿Cuántos kilos forman una tonelada?",1000,1500,"left",1,1,1,"competitive","left",4.21568393707,1202.39321589,0.784316062927,1203.33393598,3.21127700806,1206.54525399,2.78872299194,1209.3862319,1211.27359295,1211.35419703,1214.3571589,1,1214.37171388,1220.32910299,
"sujeto_c7735ca1",1,3,20,52,1220.47324705,"inverse",4,1,4,"¿Cuántos estados tiene la 
República del Perú? ",24,23,,0,0,1,"individual","left",1.67306113243,1222.14635205,3.32693886757,1225.62957287,3.11383390427,1228.74344707,2.88616609573,1231.68001986,1232.70218992,1232.74787593,1235.75085402,0,1235.76511097,1240.71040392,
"sujeto_c7735ca1",1,3,21,53,1240.86189604,"direct",3,1,3,"¿En qué año nació Cristóbal Colón? ",1451,1447,,0,0,1,"individual","left",3.35058999062,1244.21256495,1.64941000938,1246.02398705,3.5144841671,1249.53853798,2.4855158329,1252.07460189,1253.92044687,1253.959306,1256.96231008,0,1256.97767186,1261.20563197,
"sujeto_c7735ca1",1,3,22,54,1261.34563994,"inverse",4,1,4,"¿Cuánto mide la 
Montaña Aconcagua? ",6234,6962,,0,0,1,"competitive","left",1.70301413536,1263.04869604,3.29698586464,1266.50140595,3.8533539772,1270.35482407,2.1466460228,1272.55241299,1273.84177899,1273.91989994,1276.92289591,0,1276.93737602,1284.12102294,
"sujeto_c7735ca1",1,3,23,55,1284.27230692,"direct",2,1,4,"¿Cuánto mide el punto
 más profundo del océano? ",12508,11003,,0,0,1,"competitive","left",2.47455096245,1286.74690485,2.52544903755,1289.44340706,4.92640900612,1294.36988091,1.07359099388,1295.48205495,1296.73357105,1296.81595802,1299.81893086,0,1299.83309197,1304.03936505,
"sujeto_c7735ca1",1,3,24,56,1304.18453908,"inverse",1,1,3,"¿Cuántos álbumes ha publicado 
el cantante Jaime Roos? ",41,34,,0,0,1,"competitive","right",3.85847496986,1308.0430789,1.14152503014,1309.32435894,3.81571602821,1313.14013505,2.18428397179,1315.37466288,1316.86455297,1316.9423449,1319.94532585,0,1319.96061802,1326.15678787,
"sujeto_c7735ca1",1,3,25,57,1326.31233406,"direct",4,1,3,"¿En qué año nació el 
ex-presidente Jorge Battle? ",1921,1927,,1,1,1,"competitive","right",1.70987606049,1328.02227187,3.29012393951,1331.46949697,4.93080401421,1336.40036988,1.06919598579,1337.52054691,1339.25122595,1339.33715487,1342.34011602,1,1342.35529995,1345.8413589,
"sujeto_c7735ca1",1,3,26,58,1345.97332406,"inverse",1,1,3,"¿Cuántas presidencias 
constitucionales  hubo en Uruguay? ",41,42,,0,0,1,"competitive","right",2.61205816269,1348.5854249,2.38794183731,1351.12749195,3.41584300995,1354.54340005,2.58415699005,1357.17898107,1358.38268685,1358.46363807,1361.46662688,0,1361.48118687,1367.26484895,
"sujeto_c7735ca1",1,3,27,59,1367.41622806,"direct",1,1,2,"¿Quién escribió mas sinfonías?","Mozart","Haydn",,1,1,0,"competitive","left",1.84025502205,1369.25655699,3.15974497795,1372.57328486,2.2472679615,1374.82059288,3.7527320385,1378.62292099,1379.84041286,1379.92498207,1382.92797494,1,1382.94242501,1386.69384003,
"sujeto_c7735ca1",1,3,28,60,1386.84281707,"inverse",4,1,2,"¿En qué año nació Michael Jackson?",1958,1953,,1,1,1,"competitive","left",2.9209151268,1389.76378202,2.0790848732,1392.03057504,4.41226005554,1396.44289684,1.58773994446,1398.06827307,1400.04656792,1400.11924887,1403.12223506,1,1403.13763785,1408.99997592,
"sujeto_c7735ca1",1,3,29,61,1409.15131092,"direct",3,1,2,"¿En qué año entró en vigencia 
la ley antitabaco en Uruguay?",2005,2006,,1,1,1,"competitive","left",3.15659594536,1412.30795288,1.84340405464,1414.32401991,4.23193597794,1418.55602288,1.76806402206,1420.36387801,1421.95861197,1422.03048301,1425.03347301,1,1425.04879308,1430.38279986,
"sujeto_c7735ca1",1,3,30,62,1430.51648092,"inverse",3,1,1,"¿Cuándo se subió el 
primer video a youtube?",2004,2005,,0,0,1,"competitive","right",1.78758502007,1432.304111,3.21241497993,1435.69042492,2.8546898365,1438.54517388,3.1453101635,1441.74045897,1443.0460999,1443.12480307,1446.12782192,0,1446.14327598,1453.89890289,
"sujeto_c7735ca1",1,3,31,63,1454.04383492,"direct",2,1,1,"¿Cuántos habitantes tiene India?","1200 millones","1300 millones",,0,0,0,"competitive","left",1.92850589752,1455.97238994,3.07149410248,1459.21855998,3.41875386238,1462.63737392,2.58124613762,1465.26913404,1467.23876286,1467.32123804,1470.32422996,0,1470.33891296,1476.38634992,
"sujeto_c7735ca1",1,3,32,64,1476.54064703,"inverse",4,1,2,"¿A qué edad murió Bob Marley?",36,37,,0,0,1,"competitive","left",1.85284209251,1478.39355898,3.14715790749,1481.71423697,2.78322196007,1484.49749899,3.21677803993,1487.76476192,1489.66181397,1489.74976993,1492.75275493,0,1492.76754785,1495.87002206,
"sujeto_c7735ca1",1,4,1,65,1649.73152995,"direct",2,1,1,"¿Cuantos años dirigió la selección 
uruguaya Tabarez?","15 años","13 años",,0,0,0,"competitive","left",1.33443689346,1651.06601,3.66556310654,1654.88811803,4.16996502876,1659.0581429,1.83003497124,1660.93895507,1662.13007903,1662.20684505,1665.20965004,0,1665.22350502,1672.29554605,1495.8850379
"sujeto_c7735ca1",1,4,2,66,1672.44182992,"inverse",4,1,1,"¿Cuantas teclas tiene un teclado 
de computadora generalmente? ","Entre 99 y 108","Entre 109 y 113",,1,1,1,"competitive","left",1.05139183998,1673.49326587,3.94860816002,1677.60001206,5.72826600075,1683.32834101,0.271733999252,1683.65206194,1684.65483785,1684.735425,1687.7384069,1,1687.75191593,1690.12333202,
"sujeto_c7735ca1",1,4,3,67,1690.25345588,"direct",1,1,1,"¿Cuál Departamento tiene
 mayor superficie?","Río Negro","Soriano",,0,0,0,"competitive","right",1.75297403336,1692.00649595,3.24702596664,1695.40908384,3.5703561306,1698.97951388,2.4296438694,1701.45935988,1703.17283988,1703.26086402,1706.26384997,0,1706.27810788,1710.60419893,
"sujeto_c7735ca1",1,4,4,68,1710.74636292,"inverse",3,1,2,"¿Cuál es el apellido de las 
hermanastras  de  cenicienta?","Tremaine","Truman",,0,0,1,"competitive","left",1.33909583092,1712.0855,3.66090416908,1715.90305805,5.05456614494,1720.95768404,0.945433855057,1721.95456505,1723.82410288,1723.90525007,1726.90824008,0,1726.92299199,1729.61892104,
"sujeto_c7735ca1",1,4,5,69,1729.75780487,"direct",4,1,4,"¿Cuál película ganó un
 Oscar a mejor película?","Alto Impacto","Cache",,0,0,1,"competitive","left",2.22398591042,1731.98183489,2.77601408958,1734.92982507,3.55599093437,1738.48585391,2.44400906563,1740.98153687,1742.10088491,1742.18217397,1745.18467402,0,1745.20002484,1747.46468306,
"sujeto_c7735ca1",1,4,6,70,1747.61405492,"inverse",1,1,3,"¿A cuántos centímetros
equivale la medida pié?",25,30,,0,0,1,"competitive","right",2.78480291367,1750.39892793,2.21519708633,1752.76704407,5.35291290283,1758.12001896,0.647087097168,1758.80767703,1759.84771085,1759.92444992,1762.92743897,0,1762.94178486,1768.34278607,
"sujeto_c7735ca1",1,4,7,71,1768.477561,"direct",2,1,2,"¿Qué departamento es mas grande?","Cerro Largo","Paysandú",,0,0,0,"competitive","left",2.91248202324,1771.39010191,2.08751797676,1773.63128591,2.56289505959,1776.19424295,3.43710494041,1779.66722393,1781.26699305,1781.35228205,1784.35522604,0,1784.36980295,1788.47977591,
"sujeto_c7735ca1",1,4,8,72,1788.62137604,"inverse",2,1,3,"¿Quién pintó la Mona Lisa?","Picasso","Da Vinci","right",0,0,1,"competitive","right",0.816920995712,1789.43837285,4.18307900429,1793.77756,2.31880402565,1796.09642792,3.68119597435,1799.82727003,1801.43314886,1801.51292205,1804.51590204,1,1804.53044701,1806.69275689,
"sujeto_c7735ca1",1,4,9,73,1806.846699,"direct",4,1,3,"¿Cuántos litros hay en un galon?",3.54,3.78,,1,1,1,"competitive","left",1.94883203506,1808.79565001,3.05116796494,1812.01840496,2.86807894707,1814.88657999,3.13192105293,1818.0710969,1819.58897805,1819.6725719,1822.67556596,1,1822.68987489,1828.48224187,
"sujeto_c7735ca1",1,4,10,74,1828.64129186,"inverse",4,1,1,"¿Cuántas teclas tiene
 un piano moderno?",80,88,,0,0,1,"competitive","left",2.85791707039,1831.49927497,2.14208292961,1833.81397486,3.37764692307,1837.19167995,2.62235307693,1839.86506486,1840.87356186,1840.94986606,1843.95284986,0,1843.96752787,1850.76528907,
"sujeto_c7735ca1",1,4,11,75,1850.91847897,"direct",4,1,3,"¿Cuántos países hay en África?",54,62,,0,0,1,"competitive","right",2.12842607498,1853.04702997,2.87157392502,1856.07257295,4.00025296211,1860.07286596,1.99974703789,1862.11121106,1863.80176497,1863.87926507,1866.88220191,0,1866.89460707,1874.69936991,
"sujeto_c7735ca1",1,4,12,76,1874.84503508,"inverse",1,1,3,"¿En qué siglo se crearon
 las primeras pistolas?","XV","XIII",,1,1,1,"competitive","right",2.11408805847,1876.95917392,2.88591194153,1880.0040319,3.72410488129,1883.72818208,2.27589511871,1886.05668998,1888.00461698,1888.07528901,1891.07823491,1,1891.09306407,1894.32614803,
"sujeto_c7735ca1",1,4,13,77,1894.46024799,"direct",3,1,4,"¿En qué año se estrenó 
la serie friends?",1994,1995,,0,0,1,"competitive","left",2.13793420792,1896.59824705,2.86206579208,1899.63027287,3.28590297699,1902.91623592,2.71409702301,1905.68386388,1907.55914688,1907.63498807,1910.63800192,0,1910.65230393,1915.65832996,
"sujeto_c7735ca1",1,4,14,78,1915.80414701,"inverse",3,1,4,"¿En qué año nació Hitler?",1889,1887,,0,0,1,"competitive","left",1.45008420944,1917.25427389,3.54991579056,1920.97574592,2.79953885078,1923.77532601,3.20046114922,1927.02368999,1928.13808393,1928.22457099,1931.2266829,0,1931.24230099,1936.26923704,
"sujeto_c7735ca1",1,4,15,79,1936.42674804,"direct",1,1,4,"¿Cuánto pesa un elefante Africano?","6000 kilos","5400 kilos",,0,0,0,"competitive","right",2.30165815353,1938.72846889,2.69834184647,1941.60366893,3.32368397713,1944.92739701,2.67631602287,1947.65504098,1949.01097298,1949.09005094,1952.09067297,0,1952.1074059,1958.81446099,
"sujeto_c7735ca1",1,4,16,80,1958.94233799,"inverse",1,1,2,"¿Qué porcentaje de 
la población es zurda?","10%","7%",,1,1,0,"competitive","right",2.46719694138,1961.40961289,2.53280305862,1964.0985539,2.3579659462,1966.45656705,3.6420340538,1970.14958692,1971.39258194,1971.468853,1974.47184396,1,1974.48634386,1980.46608996,
"sujeto_c7735ca1",1,4,17,81,1980.62054205,"direct",1,1,2,"¿En qué año se estrenó
Volver al futuro?",1984,1985,,0,0,1,"competitive","right",2.27703905106,1982.89762688,2.72296094894,1985.79386306,3.93071198463,1989.72461796,2.06928801537,1991.82934785,1993.39056993,1993.47966385,1996.48263502,0,1996.49688888,2003.58834004,
"sujeto_c7735ca1",1,4,18,82,2003.73194098,"inverse",3,1,2,"¿Cuántos jugadores hay en un 
equipo de baseball?",9,8,,1,1,0,"competitive","left",4.00578999519,2007.7377789,0.994210004807,2008.89032507,3.89040803909,2012.78079987,2.10959196091,2014.940552,2016.55483794,2016.64215088,2019.64513803,1,2019.65948796,2024.63670492,
"sujeto_c7735ca1",1,4,19,83,2024.77664995,"direct",2,1,1,"¿Cuántos Oscar ganó
 la película titanic?",13,11,,1,1,1,"competitive","left",2.00921201706,2026.78592992,2.99078798294,2029.93207097,2.61573910713,2032.54787397,3.38426089287,2035.96810699,2037.27018189,2037.35243392,2040.35541892,1,2040.37001395,2044.97268605,
"sujeto_c7735ca1",1,4,20,84,2045.15453291,"inverse",4,1,4,"¿En qué año comenzó
la segunda guerra mundial?",1939,1976,"left",0,0,1,"competitive","left",1.303429842,2046.45803905,3.696570158,2050.32779694,3.99317288399,2054.32103705,2.00682711601,2056.36144996,2058.16131496,2058.24595284,2061.24890304,1,2061.26364803,2065.25078297,
"sujeto_c7735ca1",1,4,21,85,2065.39848304,"direct",2,1,4,"¿Cuántos biomas hay en Uruguay?",5,4,,0,0,1,"competitive","left",2.87859296799,2068.27711892,2.12140703201,2070.55461192,2.71045398712,2073.26512504,3.28954601288,2076.60517597,2078.40254688,2078.47365403,2081.47664404,0,2081.49106789,2087.74045992,
"sujeto_c7735ca1",1,4,22,86,2087.87607193,"inverse",2,1,3,"¿Cuándo murió Pablo Escobar?",1993,1997,,1,1,1,"competitive","left",1.90986084938,2089.78604603,3.09013915062,2093.04997492,4.05314087868,2097.10315299,1.94685912132,2099.09873986,2100.88159394,2100.96673107,2103.96972585,1,2103.98445392,2109.68806887,
"sujeto_c7735ca1",1,4,23,87,2109.83562803,"direct",1,1,4,"¿Qué serie ha ganado mas premios?","Friends","Murphy Brown",,1,1,0,"competitive","left",1.90879607201,2111.74449301,3.09120392799,2115.0114789,3.77390003204,2118.78544188,2.22609996796,2121.06211305,2122.41416502,2122.49588203,2125.498878,1,2125.51346993,2131.07509589,
"sujeto_c7735ca1",1,4,24,88,2131.21556497,"inverse",4,1,2,"¿Cuántas fichas tiene el dominó?",26,28,,1,1,1,"competitive","left",3.65385699272,2134.86949396,1.34614300728,2136.37224889,2.92524003983,2139.297539,3.07475996017,2142.42298794,2143.47832489,2143.55726099,2146.56027293,1,2146.57497787,2151.81808805,
"sujeto_c7735ca1",1,4,25,89,2151.96000099,"direct",2,1,4,"¿Cuántos son los dientes de leche?",20,25,,0,0,1,"competitive","left",1.99757909775,2153.95764589,3.00242090225,2157.11654186,3.13802599907,2160.25461102,2.86197400093,2163.16655707,2164.87692904,2164.95165992,2167.95464802,0,2167.96976399,2170.11547399,
"sujeto_c7735ca1",1,4,26,90,2170.27088594,"inverse",3,1,3,"¿Cuántos gramos son una onza?",22,28,,0,0,1,"competitive","right",3.39583992958,2173.66677284,1.60416007042,2175.42142487,4.30826306343,2179.72974706,1.69173693657,2181.47573495,2183.470577,2183.54317498,2186.54616094,0,2186.56082487,2192.85108089,
"sujeto_c7735ca1",1,4,27,91,2192.99623489,"direct",3,1,1,"¿Cuándo salió el primer album
 de los Beatles?",1963,1962,,1,1,1,"competitive","left",1.60250806808,2194.59878206,3.39749193192,2198.15462208,2.37323093414,2200.5279119,3.62676906586,2204.20480299,2205.36843896,2205.43964791,2208.44264603,1,2208.45721698,2212.22925591,
"sujeto_c7735ca1",1,4,28,92,2212.37552404,"inverse",3,1,3,"¿Quién fundó la empresa apple?","Carlos Slim","Steve Jobs",,1,1,1,"competitive","right",2.04151105881,2214.41709495,2.95848894119,2217.53131104,2.20262813568,2219.73400307,3.79737186432,2223.58140087,2224.69608903,2224.76702404,2227.76998091,1,2227.78381705,2234.08168292,
"sujeto_c7735ca1",1,4,29,93,2234.23466706,"direct",4,1,2,"¿Cuántos municipios hay
 en Montevideo?",8,7,,1,1,1,"competitive","left",2.90845704079,2237.14316797,2.09154295921,2239.40974808,2.59641504288,2242.00622296,3.40358495712,2245.44322896,2247.35799098,2247.44534206,2250.44827199,1,2250.46270204,2252.54386806,
"sujeto_c7735ca1",1,4,30,94,2252.69735289,"inverse",1,1,1,"¿Cuántos kilómetros hay
 de Montevideo a Artigas?",632,599,,0,0,0,"competitive","right",1.36290383339,2254.06032085,3.63709616661,2257.85193992,3.51030898094,2261.36230993,2.48969101906,2263.90259886,2265.38575387,2265.47047901,2268.47348189,0,2268.48807096,2274.54016089,
"sujeto_c7735ca1",1,4,31,95,2274.67297888,"direct",2,1,2,"¿En qué año nació 
Leonardo Da Vinci?",1452,1511,,1,1,0,"competitive","left",3.08838605881,2277.76142907,1.91161394119,2279.84707689,2.90629482269,2282.75343585,3.09370517731,2285.89255905,2287.74619198,2287.82572389,2290.82871604,1,2290.8430059,2293.989398,
"sujeto_c7735ca1",1,4,32,96,2294.12751794,"inverse",3,1,1,"¿A qué continente
 pertenece el país Gabón?","Africa","Oceanía",,0,0,1,"competitive","right",1.35392904282,2295.48148394,3.64607095718,2299.28828192,3.82725000381,2303.11560488,2.17274999619,2305.32311702,2307.13478994,2307.20728588,2310.21031499,0,2310.22580886,2315.46371293,
