"code","nro_aplicante","nro_bloque","nro_trial_bloque","nro_trial_global","show_game_type","choice_order","rival","pay_individual","pay_competitive","question","answer_left_text","answer_right_text","correct_answer","outcome_individual","outcome_competitive","outcome_rival","game_type","answer","social_time","rt_game_type","feedback_delay","show_question","answer_time","rt_answer_global","feedback_delay_2","show_jitter","jitter_time","show_outcome","outcome_time","outcome_participant_real","show_final_jitter","second_jitter_time","inicio_descanso"
"sujeto_c730bc55","1","1","1","1","64.929142952","direct","3","1","4","¿Cuántos centímetros corresponden
al talle 36 del calzado?","23","24","","0","0","1","competitive","right","2.67610812187","67.6052939892","2.32389187813","70.1322879791","4.50903010368","74.6413960457","1.49096989632","76.1853120327","77.2136089802","77.2856879234","80.2886428833","0","80.3033919334","82.4659259319",""
"sujeto_c730bc55","1","1","2","2","82.620923996","inverse","3","1","2","¿Cuántas metros mide la Intendencia
Municipal de Montevideo? ","84","78","","0","0","1","competitive","left","1.25545811653","83.8764519691","3.74454188347","87.7911820412","4.26030302048","92.0515248775","1.73969697952","93.8260388374","95.7040820122","95.7773399353","98.7803399563","0","98.7950308323","100.88776803",""
"sujeto_c730bc55","1","1","3","3","101.029727936","direct","1","1","3","¿Cuántas La Pasiva
 hay en uruguay?","15","11","","1","1","1","competitive","left","1.61591815948","102.645718813","3.38408184052","106.18561101","3.81800818443","110.003657818","2.18199181557","112.236825943","113.84849","113.920817852","116.922855854","1","116.938292027","121.216614008",""
"sujeto_c730bc55","1","1","4","4","121.373461962","inverse","3","1","3","¿De que color es la camiseta de uruguay?","blanca","celeste","right","1","1","1","competitive","right","2.32436800003","123.697898865","2.67563199997","126.529705048","3.53710412979","130.066876888","2.46289587021","132.580672026","133.785446882","133.864850998","136.867789984","1","136.882169962","140.336107969",""
"sujeto_c730bc55","1","1","5","5","140.483883858","direct","2","1","1","¿Cuánto metros mide
la torre Eiffel?","333","324","","1","1","1","competitive","right","1.97310304642","142.457031012","3.02689695358","145.640489817","3.10455298424","148.745088816","2.89544701576","151.687764883","153.209149837","153.288913965","156.291908026","1","156.306565046","163.343271017",""
"sujeto_c730bc55","1","1","6","6","163.491770029","inverse","3","1","4","¿Cuantas ciudades existen
 en todo el uruguay?","63","72","","0","0","1","competitive","left","1.72340202332","165.215214014","3.27659797668","168.652446985","4.39480113983","173.047292948","1.60519886017","174.68641305","175.741210938","175.820663929","178.823633909","0","178.838214874","186.464804888",""
"sujeto_c730bc55","1","1","7","7","186.60648489","direct","1","1","1","¿Cuantos estados tiene África?","52","54","","1","1","0","competitive","right","1.35996294022","187.966490984","3.64003705978","191.763923883","4.90757083893","196.671540976","1.09242916107","197.798012972","199.66205287","199.732292891","202.735292912","1","202.750146866","208.506906033",""
"sujeto_c730bc55","1","1","8","8","208.66879797","inverse","4","1","4","¿En qué año nació
 Stephen Hawking?","1952","1942","","0","0","1","competitive","left","1.92691516876","210.59580183","3.07308483124","213.857429981","3.10232400894","216.959823847","2.89767599106","219.909723043","221.354060888","221.427179813","224.43016386","0","224.445425034","230.544773817",""
"sujeto_c730bc55","1","1","9","9","230.67956686","direct","2","1","3","¿Cuánto años tenía Artigas
 cuando se fue a Paraguay?","56","57","","1","1","1","competitive","left","1.48730301857","232.166915894","3.51269698143","235.83743","3.97443294525","239.811903","2.02556705475","241.887729883","243.437278032","243.52106595","246.522876978","1","246.539403915","252.586709976",""
"sujeto_c730bc55","1","1","10","10","252.724508047","inverse","1","1","2","¿Cuantos milímetros 
mide una hoja A2?","420x592","420x594","","0","0","1","competitive","left","1.57262587547","254.297178984","3.42737412453","257.879958868","5.75220584869","263.632208824","0.247794151306","263.932322979","265.500789881","265.582259893","268.585250854","0","268.59995389","275.673590899",""
"sujeto_c730bc55","1","1","11","11","275.817610025","direct","3","1","3","¿Cuál es la menor temperatura 
registrada en Uruguay?","-5.4","-7.4","","0","0","1","competitive","left","1.68472099304","277.502374887","3.31527900696","280.977248907","4.44912600517","285.426416874","1.55087399483","287.029026985","288.711086988","288.795917034","291.798902988","0","291.81357789","295.546893835",""
"sujeto_c730bc55","1","1","12","12","295.698474884","inverse","2","1","2","¿Cuantos años hace que 
se fundó facebook?","18","17","","0","0","0","competitive","right","1.74401783943","297.44253397","3.25598216057","300.853582859","3.76997804642","304.623622894","2.23002195358","306.905856848","308.278592825","308.356524944","311.359484911","0","311.372781992","314.147433043",""
"sujeto_c730bc55","1","1","13","13","314.289989948","direct","1","1","4","¿Cuál animal es más
 pesado en promedio?","Rinoceronte","Hipopotamo","","0","0","0","competitive","right","1.78665184975","316.076706886","3.21334815025","319.446666002","5.12006616592","324.566781044","0.879933834076","325.549398899","326.628608942","326.700140953","329.703114986","0","329.717391014","333.558413982",""
"sujeto_c730bc55","1","1","14","14","333.702270031","inverse","1","1","2","¿Qué personaje de dragon ball 
murió más veces?","Chaoz","Krillin","","1","1","0","competitive","right","1.11960196495","334.821965933","3.88039803505","338.874294043","3.90364813805","342.777983904","2.09635186195","344.924990892","346.382809877","346.459380865","349.46238184","1","349.47713089","357.249833822",""
"sujeto_c730bc55","1","1","15","15","357.394762039","direct","3","1","2","La universidad de oxford. 
existe desde:","1096","1249","","1","1","0","competitive","right","1.68733310699","359.082140923","3.31266689301","362.569593906","4.91854596138","367.488209963","1.08145403862","368.621471882","369.670289993","369.754308939","372.757280827","1","372.771116972","379.461990833",""
"sujeto_c730bc55","1","1","16","16","379.605952024","inverse","3","1","1","¿Qué escritor latino ganó antes
 el premio nobel?"," García Marquez","Neruda","","0","0","1","competitive","left","1.07532215118","380.681339025","3.92467784882","384.764755011","4.92663311958","389.691449881","1.07336688042","390.815872908","392.55586791","392.633574009","395.63656497","0","395.650964975","399.111502886",""
"sujeto_c730bc55","1","1","17","17","399.252115965","direct","4","1","3","¿Cuántos dientes tiene un
 tiburón blanco?","6000","3000","","0","0","1","competitive","right","2.01133513451","401.263495922","2.98866486549","404.425071001","3.34945416451","407.77458787","2.65054583549","410.476698875","411.514909029","411.594769955","414.597789049","0","414.611987829","419.421658993",""
"sujeto_c730bc55","1","1","18","18","419.562755823","inverse","4","1","1","¿Cuánto mide el paralelo Ecuador?","40.000km","70.000km","","0","0","1","individual","right","2.20595192909","421.768774986","2.79404807091","424.719523907","4.39719295502","429.116783857","1.60280704498","430.75227499","432.708413839","432.753365993","435.756335974","0","435.771178007","439.373697996",""
"sujeto_c730bc55","1","1","19","19","439.522604942","direct","4","1","2","¿Cuál fue el primer libro 
de Stephen King?","Carrie","The Stand","","1","1","1","competitive","right","2.30826377869","441.830935001","2.69173622131","444.693500996","3.36441206932","448.057981014","2.63558793068","450.730332851","452.473786831","452.548403025","455.551370859","1","455.566879988","460.041312933",""
"sujeto_c730bc55","1","1","20","20","460.184576988","inverse","2","1","3","¿Qué civilización practicaba
 la momificación?","Grecia","Egipto","right","0","0","1","competitive","right","1.61653614044","461.801187992","3.38346385956","465.357620955","3.86754989624","469.225239992","2.13245010376","471.408421993","473.347735882","473.426287889","476.42927289","1","476.443678856","480.672472",""
"sujeto_c730bc55","1","1","21","21","480.812280893","direct","4","1","4","¿Cuántos millones de visitas
 recibe google por minuto?","3.0","4.5","","0","0","1","competitive","right","1.86603188515","482.67835784","3.13396811485","486.000298977","4.47305011749","490.473392963","1.52694988251","492.050403833","493.565254927","493.651259899","496.654247046","0","496.668047905","503.790742874",""
"sujeto_c730bc55","1","1","22","22","503.919646025","inverse","1","1","3","La máquina de fax. se inventó en:","1843","1960","","0","0","1","competitive","right","1.77985715866","505.699546814","3.22014284134","509.080018044","3.75659608841","512.836676836","2.24340391159","515.131718874","516.37381196","516.449201822","519.452216864","0","519.465952873","522.702265978",""
"sujeto_c730bc55","1","1","23","23","522.851642847","direct","2","1","4","En la verdadera historia de los
 300 espartanos. habían:","300 soldados","4300 soldados","","1","1","1","competitive","","1.77707505226","524.628819942","3.22292494774","528.039206982","6","534.039374828","0","534.05683589","535.318080902","535.39209795","538.395094872","0","538.409659863","542.211427927",""
"sujeto_c730bc55","1","1","24","24","542.361802816","inverse","1","1","4","¿Cuántos milímetros crece
 el pelo por día?","0.4","0.04","","0","0","0","competitive","right","1.5400531292","543.901923895","3.4599468708","547.516357899","3.46555185318","550.98197794","2.53444814682","553.566001892","555.326779842","555.399790049","558.402779818","0","558.418282032","565.153378963",""
"sujeto_c730bc55","1","1","25","25","565.285974026","direct","4","1","1","¿Cuánto mide la baldosa gris 
clásica de Montevideo?","22x22 cm.","20x20 cm.","","1","1","1","individual","left","2.02111911774","567.307137966","2.97888088226","570.460921049","5.22922205925","575.690187931","0.77077794075","576.514484882","578.509799004","578.564437866","581.56741786","1","581.582193851","587.125011921",""
"sujeto_c730bc55","1","1","26","26","587.267726898","inverse","2","1","2","¿Cuántas películas de rápidos
 y furiosos hay?","10","11","","1","1","0","competitive","right","2.03457784653","589.302369833","2.96542215347","592.439100027","3.52224302292","595.96138382","2.47775697708","598.491158962","599.849197865","599.924892902","602.927876949","1","602.941582918","604.976250887",""
"sujeto_c730bc55","1","1","27","27","605.126991034","direct","3","1","1","¿Cuántos masters 1000
 ganó Del Potro?","1","2","","1","1","1","individual","right","1.68850302696","606.815562963","3.31149697304","610.282474995","4.29001808167","614.572556019","1.70998191833","616.334499836","618.089113951","618.135138035","621.138103962","1","621.152473927","628.548835039",""
"sujeto_c730bc55","1","1","28","28","628.720077038","inverse","2","1","4","¿Cuántos meses dura el 
embarazo de una leona?","3 meses","4 meses","","0","0","1","competitive","right","1.46653199196","630.186652899","3.53346800804","633.877626896","4.92913389206","638.806814909","1.07086610794","639.928349972","641.039400816","641.112306833","644.11529994","0","644.129683018","650.852141857",""
"sujeto_c730bc55","1","1","29","29","650.980665922","direct","1","1","1","¿En qué año fue creado
 el sandwich?","1762","1653","","1","1","0","competitive","right","2.01423096657","652.994949818","2.98576903343","656.140202045","3.6327021122","659.772951841","2.3672978878","662.192032814","663.790606976","663.876878023","666.879839897","1","666.893508911","670.364152908",""
"sujeto_c730bc55","1","1","30","30","670.510012865","inverse","4","1","2","El nombre de la moneda de Vietnam es:","Dinar","Dong","","0","0","1","competitive","right","2.34002184868","672.850081921","2.65997815132","675.6675179","4.7355799675","680.403144836","1.2644200325","681.718410015","683.150414944","683.236335039","686.239326","0","686.254067898","692.422500849",""
"sujeto_c730bc55","1","1","31","31","692.55526185","direct","2","1","1","¿cuantos aleteos puede dar 
un colibrí por segundo?","120","50","","0","0","0","competitive","left","2.19487595558","694.750195026","2.80512404442","697.712754011","4.22162389755","701.934427023","1.77837610245","703.763592958","705.495976925","705.581073999","708.584076881","0","708.599413872","712.810899973",""
"sujeto_c730bc55","1","1","32","32","712.949728012","inverse","4","1","3","¿Qué altura promedio tienen
 los hombres uruguayos?","1.73 m","1.72 m","","1","1","1","competitive","left","1.79363512993","714.743419886","3.20636487007","718.13793087","5.59160995483","723.729609966","0.408390045166","724.174690008","725.437130928","725.508177042","728.511160851","1","728.525524855","733.001461029",""
"sujeto_c730bc55","1","2","1","33","912.854918957","direct","1","1","1","¿En qué año nació 
el actor Bradd Pitt?","1967","1963","","1","1","1","competitive","left","1.62641716003","914.481400967","3.37358283997","918.01066184","3.63773798943","921.648468018","2.36226201057","924.061656952","925.15753603","925.229079962","928.232059002","1","928.246446848","934.174032927","733.016831875"
"sujeto_c730bc55","1","2","2","34","934.315089941","inverse","2","1","1","¿Cual es el segundo 
monte más alto?","Kanchenjunga","K2","","1","1","1","competitive","right","1.74241995811","936.057574034","3.25758004189","939.470356941","4.41323900223","943.883636951","1.58676099777","945.521665812","946.974189997","947.05576992","950.058703899","1","950.07365489","953.503492832",""
"sujeto_c730bc55","1","2","3","35","953.642989874","direct","3","1","1","¿Cuándo finalizó la construcción
 del Palacio Legislativo?","1925","1917","","0","0","1","competitive","right","2.04067802429","955.683712006","2.95932197571","958.814474821","3.92917203903","962.743685007","2.07082796097","964.850289822","966.492005825","966.567853928","969.570838928","0","969.585536957","975.283107996",""
"sujeto_c730bc55","1","2","4","36","975.418511868","inverse","3","1","3","¿Cuántos integrantes tenía
 en su inicio  el cuarteto de nos?","3","4","","1","1","1","competitive","right","1.69638895988","977.114946842","3.30361104012","980.577448845","4.59249997139","985.170011044","1.40750002861","986.61103797","987.744096994","987.82938385","990.832361937","1","990.846565962","996.496362925",""
"sujeto_c730bc55","1","2","5","37","996.63142705","direct","2","1","3","¿Qué valor tiene el número pi?","3.14","4.18","left","0","0","1","competitive","left","1.90168714523","998.533162832","3.09831285477","1001.78915","2.34495401382","1004.13414598","3.65504598618","1007.83703804","1009.291219","1009.37242985","1012.37537003","1","1012.38953996","1019.3093369",""
"sujeto_c730bc55","1","2","6","38","1019.4403379","inverse","2","1","2","¿Cuál es la esperanza de vida
 en Uruguay?","75","77","","1","1","0","competitive","right","1.33396291733","1020.77434587","3.66603708267","1024.61508703","2.69826102257","1027.31341386","3.30173897743","1030.66626","1032.3201139","1032.39972091","1035.40272093","1","1035.41750193","1041.88052487",""
"sujeto_c730bc55","1","2","7","39","1042.03586793","direct","1","1","2","¿Cuantos pisos tiene la torre 
de las comunicaciones?","26","32","","1","1","0","competitive","right","1.49661302567","1043.53252697","3.50338697433","1047.19534492","4.40625","1051.60163903","1.59375","1053.24665499","1055.07542396","1055.14721704","1058.150244","1","1058.16476798","1060.31096697",""
"sujeto_c730bc55","1","2","8","40","1060.44955993","inverse","2","1","4","¿En qué país sudamericano 
no hay McDonalds?","Bolivia","Venezuela","","0","0","1","competitive","right","1.53912591934","1061.98873186","3.46087408066","1065.62069082","5.43703699112","1071.05780196","0.562963008881","1071.67189693","1072.980896","1073.05559301","1076.058604","0","1076.07247305","1082.43180394",""
"sujeto_c730bc55","1","2","9","41","1082.57564497","direct","3","1","1","¿En qué año empieza
 la Edad Media?","476","512","","1","1","1","individual","left","2.29725003242","1084.872962","2.70274996758","1087.72954702","3.30841112137","1091.03800082","2.69158887863","1093.78400183","1095.18779182","1095.23549485","1098.23848796","1","1098.25306201","1101.24161386",""
"sujeto_c730bc55","1","2","10","42","1101.38778901","inverse","3","1","4","¿Hace cuántos años surgió
 el ser humano?","200mil","300mil","","0","0","0","competitive","right","1.91031718254","1103.29817581","3.08968281746","1106.57493091","4.4612019062","1111.03617382","1.5387980938","1112.61012387","1114.49615383","1114.57843804","1117.58142686","0","1117.59582186","1120.90627384",""
"sujeto_c730bc55","1","2","11","43","1121.04743195","direct","3","1","4","¿Cuántas cuadras tiene
 actualmente 18 de julio? ","36","33","","0","0","1","competitive","left","1.75077700615","1122.79825187","3.24922299385","1126.20258093","3.95269608498","1130.15534091","2.04730391502","1132.25463104","1133.95690393","1134.03919291","1137.04213095","0","1137.05692983","1141.78315496",""
"sujeto_c730bc55","1","2","12","44","1141.92434692","inverse","1","1","4","¿Qué juego de equipo se 
considera mas rápido?","Lacrosse","Badminton","","0","0","0","competitive","right","1.48090195656","1143.40531397","3.51909804344","1147.08070993","4.76157093048","1151.842345","1.23842906952","1153.11511397","1154.35818386","1154.43189192","1157.4348979","0","1157.45023584","1165.44539404",""
"sujeto_c730bc55","1","2","13","45","1165.58410788","direct","1","1","3","¿Qué promedio de edad 
vive una jirafa? ","25","20","","0","0","1","competitive","left","1.67521500587","1167.25936985","3.32478499413","1170.74234796","3.51492595673","1174.25731897","2.48507404327","1176.79204702","1178.55358386","1178.62603784","1181.62884402","0","1181.64363289","1187.59934092",""
"sujeto_c730bc55","1","2","14","46","1187.7456789","inverse","1","1","2","¿Cuántos grandes lagos hay?","7","5","","0","0","1","competitive","left","1.28954100609","1189.03530192","3.71045899391","1192.90235782","3.01382994652","1195.91624999","2.98617005348","1198.93610787","1200.22822285","1200.30482602","1203.30783892","0","1203.32248282","1211.13691688",""
"sujeto_c730bc55","1","2","15","47","1211.2748189","direct","3","1","2","¿Cuántos discos de estudio
 grabó Johhny Cash? ","54","43","","1","1","0","competitive","right","2.46539783478","1213.74032187","2.53460216522","1216.44547796","2.9567501545","1219.40229201","3.0432498455","1222.50038195","1223.77900982","1223.85169387","1226.85468793","1","1226.86919785","1233.52008986",""
"sujeto_c730bc55","1","2","16","48","1233.65405202","inverse","4","1","1","¿Cuántos barrios tiene
 Montevideo? ","71","62","","0","0","1","individual","right","1.58507514","1235.23916698","3.41492486","1238.81105804","3.2891061306","1242.10020995","2.7108938694","1244.86207485","1245.86912894","1245.91259098","1248.9155829","0","1248.93015099","1254.39215589",""
"sujeto_c730bc55","1","2","17","49","1254.53176284","direct","3","1","3","¿Qué edad tiene Homero Simpson?","36","42","","0","0","1","competitive","right","1.81642794609","1256.34823489","3.18357205391","1259.70339489","3.05074286461","1262.75419688","2.94925713539","1265.77219486","1267.14822888","1267.22305298","1270.22601199","0","1270.24046588","1274.62886095",""
"sujeto_c730bc55","1","2","18","50","1274.77492189","inverse","4","1","2","¿Cuántos países con monarquía 
hay en europa actualmente? ","6","10","","1","1","1","individual","left","1.99829483032","1276.77326083","3.00170516968","1279.93133688","3.99383282661","1283.92523384","2.00616717339","1285.96644497","1287.40476704","1287.45111299","1290.45406795","1","1290.46880198","1296.62562203",""
"sujeto_c730bc55","1","2","19","51","1296.7699759","direct","2","1","3","¿Cuántos capítulos de
 Friends existen? ","236","228","","1","1","1","competitive","right","1.43021893501","1298.20024991","3.56978106499","1301.92680097","3.54737401009","1305.47423792","2.45262598991","1307.97730494","1309.2828939","1309.362288","1312.36527085","1","1312.38002396","1314.75565696",""
"sujeto_c730bc55","1","2","20","52","1314.89717197","inverse","1","1","3","¿Cuántas óperas compuso Mozart? ","27","22","","1","1","1","competitive","left","1.39799904823","1316.2952199","3.60200095177","1320.05272102","2.80346298218","1322.85624599","3.19653701782","1326.10090494","1327.39303684","1327.46897292","1330.47198796","1","1330.48783493","1337.79926801",""
"sujeto_c730bc55","1","2","21","53","1337.95461297","direct","4","1","3","¿Cuántos mundiales de fútbol 
femenino ha realizado FIFA? ","9","7","","1","1","1","competitive","left","1.51862001419","1339.47328091","3.48137998581","1343.11388683","3.71332812309","1346.82727885","2.28667187691","1349.14872789","1350.39186192","1350.46581793","1353.46880698","1","1353.48302984","1359.58545089",""
"sujeto_c730bc55","1","2","22","54","1359.73477292","inverse","3","1","2","¿Cuál es la temperatura 
media anual en Montevideo? ","17.5","16.3","","0","0","1","individual","left","1.85745191574","1361.5922699","3.14254808426","1364.92478299","3.76746296883","1368.69231105","2.23253703117","1370.97637892","1372.91497803","1372.96126103","1375.96416497","0","1375.97902393","1382.54851794",""
"sujeto_c730bc55","1","2","23","55","1382.69673491","direct","2","1","2","¿En qué año se estrenó el
 videojuego The Sims? ","2000","2002","","0","0","0","competitive","left","2.49155688286","1385.188344","2.50844311714","1387.87022996","2.8900551796","1390.76033092","3.1099448204","1393.91929293","1395.78127599","1395.85430193","1398.85722399","0","1398.87290001","1406.26655483",""
"sujeto_c730bc55","1","2","24","56","1406.40678191","inverse","2","1","1","¿Cuál es la canción con 
mas covers? ","Yesterday","Stand by me","","0","0","0","individual","right","1.81858301163","1408.22541189","3.18141698837","1411.58218384","3.9781370163","1415.56036186","2.0218629837","1417.61871099","1419.01683402","1419.06957889","1422.07254982","0","1422.08615804","1426.25701284",""
"sujeto_c730bc55","1","2","25","57","1426.3880899","direct","1","1","4","¿Cuánto duró la guerra
 de los 100 años?","116","123","","0","0","0","competitive","left","1.33324098587","1427.72140503","3.66675901413","1431.57702684","4.12729406357","1435.70438886","1.87270593643","1437.61089396","1439.09088802","1439.16254282","1442.16551495","0","1442.17976785","1444.49955988",""
"sujeto_c730bc55","1","2","26","58","1444.64813995","inverse","4","1","4","¿Qué color tiene la  bandera de Brasil?","Amarillo","Naranja","left","0","0","1","competitive","left","1.25626277924","1445.90445399","3.74373722076","1449.80171299","2.69570398331","1452.49748588","3.30429601669","1455.84944797","1457.41599202","1457.50138092","1460.50433588","1","1460.52002597","1463.55282593",""
"sujeto_c730bc55","1","2","27","59","1463.70450902","direct","4","1","3","¿Qué carabela de 
Colon no volvió del viaje?","Santa María","La pinta","","0","0","1","competitive","right","1.51481509209","1465.21936488","3.48518490791","1468.86285901","5.30060100555","1474.16352391","0.699398994446","1474.91493583","1476.40599394","1476.48183584","1479.48480201","0","1479.49944782","1481.59884381",""
"sujeto_c730bc55","1","2","28","60","1481.73393393","inverse","4","1","4","¿Cuántos huesos tiene
 un adulto humano?","217","206","","0","0","1","competitive","right","1.17257785797","1482.90655589","3.82742214203","1486.90553498","2.88697504997","1489.79257894","3.11302495003","1492.95598602","1494.22702789","1494.30762196","1497.31060505","0","1497.32492685","1505.16263199",""
"sujeto_c730bc55","1","2","29","61","1505.29211092","direct","1","1","1","¿Qué país africano fue 
fundado por esclavos?","Liberia","Chad","","0","0","0","competitive","left","1.64145183563","1506.93360686","3.35854816437","1510.45190787","3.36167597771","1513.81365395","2.63832402229","1516.50178289","1518.49339986","1518.56975794","1521.57273102","0","1521.5874579","1529.57835293",""
"sujeto_c730bc55","1","2","30","62","1529.72192192","inverse","4","1","2","¿A cuánto asciende la cima
 del monte Everest?","7.990 mts","8.848 mts","","0","0","1","individual","right","2.27673983574","1531.99872804","2.72326016426","1534.89008498","3.99558115005","1538.88572788","2.00441884995","1540.92924786","1542.11382294","1542.16309595","1545.16608596","0","1545.18071699","1552.36475897",""
"sujeto_c730bc55","1","2","31","63","1552.51522303","direct","4","1","1","¿Cuál es el país mas chico?","Sealand","Luxemburgo","","1","1","1","individual","left","1.28247594833","1553.797786","3.71752405167","1557.69233298","2.91237711906","1560.60477185","3.08762288094","1563.72616291","1565.5896399","1565.627918","1568.63085103","1","1568.64505601","1571.76735282",""
"sujeto_c730bc55","1","2","32","64","1571.91373396","inverse","2","1","4","¿Cuántas pirámides hay en Egipto?","10000","11000","","1","1","1","competitive","left","1.3200981617","1573.23392987","3.6799018383","1577.06831694","2.6834897995","1579.75186992","3.3165102005","1583.11882687","1584.15243292","1584.23729491","1587.24029183","1","1587.25417995","1592.36326289",""
"sujeto_c730bc55","1","3","1","65","1729.25962687","direct","2","1","2","¿Cuál es el quinto país con 
mas extensión?","Canadá","Brasil","","1","1","0","competitive","right","1.56671404839","1730.82640791","3.43328595161","1734.43299699","3.44037508965","1737.87343597","2.55962491035","1740.48311186","1741.81589389","1741.90142989","1744.90440702","1","1744.9181459","1752.64450598","1592.37970304"
"sujeto_c730bc55","1","3","2","66","1752.78731394","inverse","1","1","2","¿Qué rasgo facial no tiene
 la Mona Lisa?","Cejas","Pómulos","","0","0","1","competitive","right","1.30321383476","1754.09059882","3.69678616524","1757.94604087","3.90744304657","1761.85354996","2.09255695343","1763.99667287","1765.74686289","1765.83201194","1768.83501291","0","1768.84872699","1775.12007785",""
"sujeto_c730bc55","1","3","3","67","1775.26661181","direct","4","1","3","¿Cuál es el país con 
mayor población?","Esados Unidos","China","right","0","0","1","competitive","right","1.92855095863","1777.19531894","3.07144904137","1780.45632982","2.49331402779","1782.94970798","3.50668597221","1786.50857401","1788.15453291","1788.22623491","1791.22924995","1","1791.24382782","1794.61116505",""
"sujeto_c730bc55","1","3","4","68","1794.74578595","inverse","1","1","1","La palabra dinosaurio significa","Lagarto Terrible","Lagarto Dragón","","1","1","0","competitive","right","2.13992595673","1796.88580704","2.86007404327","1799.91750598","4.19421315193","1804.11181188","1.80578684807","1805.95326686","1807.12355685","1807.20403194","1810.206985","1","1810.22134089","1813.08283782",""
"sujeto_c730bc55","1","3","5","69","1813.22220302","direct","2","1","3","¿Qué es el membrillero?","Arbol","Arbusto","","0","0","0","competitive","left","1.5115339756","1814.73381591","3.4884660244","1818.37670398","3.4460940361","1821.82286286","2.5539059639","1824.40981102","1826.36394382","1826.44511795","1829.44810891","0","1829.46266603","1835.92665291",""
"sujeto_c730bc55","1","3","6","70","1836.06379199","inverse","3","1","3","¿Alrededor de qué planeta orbita 
el satélite Europa?","Jupiter","Saturno","","1","1","1","competitive","left","1.56704807281","1837.63090801","3.43295192719","1841.22337484","4.26456189156","1845.48800087","1.73543810844","1847.27401996","1848.81882191","1848.89080381","1851.89379287","1","1851.90852189","1854.11372185",""
"sujeto_c730bc55","1","3","7","71","1854.26044893","direct","3","1","1","¿Donde fue el mundial de 
fútbol de 1954?","Suiza","Suecia","","1","1","1","individual","left","1.10455203056","1855.36507082","3.89544796944","1859.415169","3.2878510952","1862.70308185","2.7121489048","1865.46596098","1866.71857691","1866.76786685","1869.77084184","1","1869.78519487","1873.696944",""
"sujeto_c730bc55","1","3","8","72","1873.84921288","inverse","1","1","4","¿Cuál de los 7 enanitos
no tenía barba?","Bashful","Mudito","","1","1","0","competitive","right","1.2418589592","1875.09118104","3.7581410408","1879.00648093","4.22362399101","1883.23014593","1.77637600899","1885.05979896","1886.63990784","1886.72659087","1889.72958302","1","1889.74443293","1894.67351985",""
"sujeto_c730bc55","1","3","9","73","1894.82940602","direct","3","1","2","¿Cual red social es
mas utilizada mundialmente?","Instagram","Facebook","","1","1","0","individual","right","2.14078497887","1896.97026396","2.85921502113","1899.98727703","2.83695602417","1902.8242979","3.16304397583","1906.03721404","1907.9545989","1908.00543189","1911.00840783","1","1911.02383995","1913.9583149",""
"sujeto_c730bc55","1","3","10","74","1914.09191394","inverse","4","1","1","¿Cuándo se inició la copa
 América de fútbol?","1916","1923","","1","1","1","individual","left","2.45738220215","1916.54937482","2.54261779785","1919.26036501","3.66696405411","1922.92737103","2.33303594589","1925.31461883","1927.21208787","1927.2483809","1930.25132895","1","1930.26679587","1932.92293882",""
"sujeto_c730bc55","1","3","11","75","1933.06673193","direct","3","1","4","¿Cuántos presidentes de EEUU
han muerto asesinados?","3","4","","0","0","1","competitive","left","1.56465101242","1934.63142586","3.43534898758","1938.24043989","3.43294692039","1941.67342997","2.56705307961","1944.2908659","1945.77477384","1945.85886002","1948.86182094","0","1948.87613797","1952.52025104",""
"sujeto_c730bc55","1","3","12","76","1952.66035485","inverse","2","1","4","¿Cuántas veces participó EEUU
 en la copa América?","4","5","","0","0","1","competitive","right","1.11024689674","1953.77065992","3.88975310326","1957.816396","3.16010117531","1960.97653985","2.83989882469","1963.84997797","1965.29409599","1965.36817884","1968.37117696","0","1968.38578701","1974.50295091",""
"sujeto_c730bc55","1","3","13","77","1974.65379786","direct","4","1","1","¿Cuál de estos países 
no formaba la URSS?","Azeribayán","Afganistán","","0","0","1","individual","left","1.67783904076","1976.331707","3.32216095924","1979.81201982","3.83658909798","1983.64865088","2.16341090202","1985.86188102","1987.17497087","1987.21357584","1990.216506","0","1990.23129582","1998.21347189",""
"sujeto_c730bc55","1","3","14","78","1998.36365795","inverse","1","1","1","¿En qué año se inauguró
 el teatro Solís?","1867","1856","","0","0","0","competitive","right","1.40607213974","1999.76982284","3.59392786026","2003.54034305","3.27744698524","2006.81783986","2.72255301476","2009.57421589","2010.62989092","2010.70846891","2013.71146083","0","2013.72576404","2020.37359095",""
"sujeto_c730bc55","1","3","15","79","2020.52713585","direct","1","1","4","¿A qué velocidad vuela 
el avión más rápido?","3529","3874","","0","0","0","competitive","right","1.25769400597","2021.78487992","3.74230599403","2025.68526793","3.80460715294","2029.48993492","2.19539284706","2031.736696","2033.492203","2033.57063985","2036.573632","0","2036.58792186","2038.69821095",""
"sujeto_c730bc55","1","3","16","80","2038.83961582","inverse","3","1","4","¿De qué año es la primer 
película cinematográfica?","1897","1888","","0","0","0","competitive","left","1.20370411873","2040.04338789","3.79629588127","2044.02698398","4.41601419449","2048.44306898","1.58398580551","2050.077986","2051.21096182","2051.29538894","2054.29839301","0","2054.31255603","2059.72233295",""
"sujeto_c730bc55","1","3","17","81","2059.86365485","direct","2","1","3","¿Cuántos países 
tiene nuestro planeta?","191","194","","1","1","1","competitive","right","1.27148103714","2061.13518095","3.72851896286","2065.02200794","3.54809689522","2068.57017493","2.45190310478","2071.07338285","2072.43060493","2072.50759888","2075.50952482","1","2075.52534103","2078.76364684",""
"sujeto_c730bc55","1","3","18","82","2078.90963888","inverse","2","1","2","¿Cuántos habitantes
 tiene Buenos Aires?","2.9000.000","3650000","","0","0","0","competitive","right","1.17190289497","2080.08160901","3.82809710503","2084.08225894","3.28995585442","2087.37228894","2.71004414558","2090.13300991","2091.53022599","2091.61816692","2094.62111902","0","2094.63542104","2100.46482086",""
"sujeto_c730bc55","1","3","19","83","2100.60339999","direct","2","1","1","¿Cuántos kilos forman una tonelada?","1000","1500","left","1","1","1","individual","left","0.519944190979","2101.12345386","4.48005580902","2105.77409101","2.72025299072","2108.49439096","3.27974700928","2111.82648492","2113.71385002","2113.76039982","2116.76331902","1","2116.77783394","2122.73523688",""
"sujeto_c730bc55","1","3","20","84","2122.87936497","inverse","4","1","4","¿Cuántos estados tiene la 
República del Perú? ","24","23","","0","0","1","competitive","right","1.08111596107","2123.96055889","3.91888403893","2128.05542397","2.80805206299","2130.86353898","3.19194793701","2134.10570097","2135.12793088","2135.2068429","2138.20982695","0","2138.22452784","2143.16984081",""
"sujeto_c730bc55","1","3","21","85","2143.32593393","direct","3","1","3","¿En qué año nació Cristóbal Colón? ","1451","1447","","0","0","1","competitive","left","1.66160798073","2144.98761487","3.33839201927","2148.48287082","2.58220005035","2151.0651319","3.41779994965","2154.53316283","2156.3790729","2156.46751595","2159.47046995","0","2159.48526096","2163.71326184",""
"sujeto_c730bc55","1","3","22","86","2163.85408998","inverse","4","1","4","¿Cuánto mide la 
Montaña Aconcagua? ","6234","6962","","0","0","1","competitive","right","0.974619150162","2164.82880998","4.02538084984","2169.01041794","3.44029402733","2172.45078492","2.55970597267","2175.06042504","2176.34980488","2176.42866588","2179.43160796","0","2179.44602895","2186.62964296",""
"sujeto_c730bc55","1","3","23","87","2186.76364589","direct","2","1","4","¿Cuánto mide el punto
 más profundo del océano? ","12508","11003","","0","0","1","competitive","left","1.7902469635","2188.55396295","3.2097530365","2191.93881989","0.285006999969","2192.22389102","5.71499300003","2197.98656988","2199.23805285","2199.3231709","2202.32611585","0","2202.34041286","2206.54671788",""
"sujeto_c730bc55","1","3","24","88","2206.6918149","inverse","1","1","3","¿Cuántos álbumes ha publicado 
el cantante Jaime Roos? ","41","34","","0","0","1","competitive","right","1.15816688538","2207.85004902","3.84183311462","2211.84913397","3.13886499405","2214.98806286","2.86113500595","2217.89902997","2219.38887382","2219.46728897","2222.4703269","0","2222.48503304","2228.68119884",""
"sujeto_c730bc55","1","3","25","89","2228.81942201","direct","4","1","3","¿En qué año nació el 
ex-presidente Jorge Battle? ","1921","1927","","1","1","1","individual","left","2.15566802025","2230.97516489","2.84433197975","2233.9769969","4.18414497375","2238.16120481","1.81585502625","2240.0287559","2241.75940585","2241.81250787","2244.81486988","1","2244.83064485","2248.31592584",""
"sujeto_c730bc55","1","3","26","90","2248.465132","inverse","1","1","3","¿Cuántas presidencias 
constitucionales  hubo en Uruguay? ","41","42","","0","0","1","competitive","left","1.1351120472","2249.60032892","3.8648879528","2253.63706183","3.62317204475","2257.26029587","2.37682795525","2259.68813801","2260.89191985","2260.97232485","2263.97531104","0","2263.98967004","2269.77089596",""
"sujeto_c730bc55","1","3","27","91","2269.92509699","direct","1","1","2","¿Quién escribió mas sinfonías?","Mozart","Haydn","","1","1","0","competitive","left","1.29728102684","2271.22244692","3.70271897316","2275.09331799","3.00508999825","2278.09845591","2.99491000175","2281.14527798","2282.36279798","2282.44753599","2285.45050502","1","2285.464221","2289.21564102",""
"sujeto_c730bc55","1","3","28","92","2289.36629295","inverse","4","1","2","¿En qué año nació Michael Jackson?","1958","1953","","1","1","1","individual","left","1.44123697281","2290.80760098","3.55876302719","2294.52588391","3.04805994034","2297.57413387","2.95194005966","2300.57121491","2302.54938293","2302.58876204","2305.59174991","1","2305.60749888","2311.46983886",""
"sujeto_c730bc55","1","3","29","93","2311.60844302","direct","3","1","2","¿En qué año entró en vigencia 
la ley antitabaco en Uruguay?","2005","2006","","1","1","1","individual","right","3.11214613914","2314.72063398","1.88785386086","2316.78549099","4.36519503593","2321.15072894","1.63480496407","2322.838413","2324.43316388","2324.47189093","2327.47386384","1","2327.48934889","2332.82335091",""
"sujeto_c730bc55","1","3","30","94","2332.95818996","inverse","3","1","1","¿Cuándo se subió el 
primer video a youtube?","2004","2005","","0","0","1","individual","left","1.38954401016","2334.34782386","3.61045598984","2338.11459684","3.20018792152","2341.31485701","2.79981207848","2344.16527796","2345.47081184","2345.51683283","2348.51979899","0","2348.53419495","2356.28977895",""
"sujeto_c730bc55","1","3","31","95","2356.43554091","direct","2","1","1","¿Cuántos habitantes tiene India?","1200 millones","1300 millones","","0","0","0","competitive","left","2.0804271698","2358.51603389","2.9195728302","2361.59330988","3.52661895752","2365.11999393","2.47338104248","2367.64466786","2369.61430502","2369.69597602","2372.69890404","0","2372.71328783","2378.76082301",""
"sujeto_c730bc55","1","3","32","96","2378.89850593","inverse","4","1","2","¿A qué edad murió Bob Marley?","36","37","","0","0","1","individual","left","1.68752789497","2380.58610296","3.31247210503","2384.03803396","2.0790271759","2386.11710191","3.9209728241","2390.07132792","2391.96882987","2392.00605297","2395.00897384","0","2395.02446985","2398.12696695",""
"sujeto_c730bc55","1","4","1","97","2550.78901291","direct","2","1","1","¿Cuantos años dirigió la selección 
uruguaya Tabarez?","15 años","13 años","","0","0","0","individual","left","1.80118894577","2552.59026599","3.19881105423","2555.94290495","2.93433189392","2558.87729597","3.06566810608","2561.99799085","2563.18886304","2563.23230791","2566.23482585","0","2566.24978995","2573.31925488","2398.14196491"
"sujeto_c730bc55","1","4","2","98","2573.47144604","inverse","4","1","1","¿Cuantas teclas tiene un teclado 
de computadora generalmente? ","Entre 99 y 108","Entre 109 y 113","","1","1","1","individual","left","1.08193612099","2574.5534699","3.91806387901","2578.63819289","4.98022198677","2583.61845684","1.01977801323","2584.691468","2585.69418287","2585.74201488","2588.74481297","1","2588.761693","2591.13289285",""
"sujeto_c730bc55","1","4","3","99","2591.2804029","direct","1","1","1","¿Cuál Departamento tiene
 mayor superficie?","Río Negro","Soriano","","0","0","0","competitive","right","1.80808901787","2593.08856201","3.19191098213","2596.46543694","3.17906999588","2599.64454985","2.82093000412","2602.50247097","2604.21595788","2604.30252099","2607.30545902","0","2607.32217097","2611.64586186",""
"sujeto_c730bc55","1","4","4","100","2611.78859091","inverse","3","1","2","¿Cuál es el apellido de las 
hermanastras  de  cenicienta?","Tremaine","Truman","","0","0","1","individual","left","1.6169719696","2613.40563202","3.3830280304","2616.94252396","3.80510616302","2620.74767089","2.19489383698","2622.99487591","2624.86382604","2624.91447091","2627.9168489","0","2627.93213987","2630.62788391",""
"sujeto_c730bc55","1","4","5","101","2630.78264904","direct","4","1","4","¿Cuál película ganó un
 Oscar a mejor película?","Alto Impacto","Cache","","0","0","1","competitive","left","1.27814292908","2632.06083798","3.72185707092","2635.953619","3.60180401802","2639.55552197","2.39819598198","2642.00357604","2643.12292385","2643.20748782","2646.20982504","0","2646.22484398","2648.48942184",""
"sujeto_c730bc55","1","4","6","102","2648.62438083","inverse","1","1","3","¿A cuántos centímetros
equivale la medida pié?","25","30","","0","0","1","competitive","left","1.62152886391","2650.24597096","3.37847113609","2653.77926183","3.76465606689","2657.54398084","2.23534393311","2659.81628394","2660.85587096","2660.932621","2663.93341184","0","2663.95149684","2669.35243201",""
"sujeto_c730bc55","1","4","7","103","2669.49839783","direct","2","1","2","¿Qué departamento es mas grande?","Cerro Largo","Paysandú","","0","0","0","competitive","right","1.3666009903","2670.86505103","3.6333990097","2674.67378688","2.5882089138","2677.26203895","3.4117910862","2680.72448683","2682.3238349","2682.41146183","2685.41388702","0","2685.42895293","2689.53889489",""
"sujeto_c730bc55","1","4","8","104","2689.69649792","inverse","2","1","3","¿Quién pintó la Mona Lisa?","Picasso","Da Vinci","right","0","0","1","competitive","right","1.1666469574","2690.86318898","3.8333530426","2694.84879398","2.40639901161","2697.25523591","3.59360098839","2700.90285897","2702.50875092","2702.58864403","2705.59157991","1","2705.60609698","2707.76837301",""
"sujeto_c730bc55","1","4","9","105","2707.92170691","direct","4","1","3","¿Cuántos litros hay en un galon?","3.54","3.78","","1","1","1","competitive","right","1.92853093147","2709.85028696","3.07146906853","2713.10788083","3.64940595627","2716.75735188","2.35059404373","2719.16326094","2720.68110991","2720.76267195","2723.76503181","1","2723.78193188","2729.574229",""
"sujeto_c730bc55","1","4","10","106","2729.731076","inverse","4","1","1","¿Cuántas teclas tiene
 un piano moderno?","80","88","","0","0","1","individual","right","1.10730814934","2730.83845091","3.89269185066","2734.88870192","2.91570806503","2737.80446386","3.08429193497","2740.92478585","2741.93282199","2741.97391295","2744.97688198","0","2744.99261093","2751.79036283",""
"sujeto_c730bc55","1","4","11","107","2751.94542789","direct","4","1","3","¿Cuántos países hay en África?","54","62","","0","0","1","competitive","right","1.04016780853","2752.98564196","3.95983219147","2757.09799886","3.31060290337","2760.40864491","2.68939709663","2763.13636494","2764.82682991","2764.92075992","2767.92370105","0","2767.93851686","2775.74329305",""
"sujeto_c730bc55","1","4","12","108","2775.89170289","inverse","1","1","3","¿En qué siglo se crearon
 las primeras pistolas?","XV","XIII","","1","1","1","competitive","right","1.39907193184","2777.29085898","3.60092806816","2781.06037498","4.39943218231","2785.45987487","1.60056781769","2787.09847093","2789.04635596","2789.13384986","2792.13583493","1","2792.15151","2795.38384986",""
"sujeto_c730bc55","1","4","13","109","2795.53534389","direct","3","1","4","¿En qué año se estrenó 
la serie friends?","1994","1995","","0","0","1","competitive","left","1.13651800156","2796.67192984","3.86348199844","2800.70406294","3.41581583023","2804.11994386","2.58418416977","2806.74285293","2808.61820388","2808.69349599","2811.69583297","0","2811.71069002","2816.71584296",""
"sujeto_c730bc55","1","4","14","110","2816.86226892","inverse","3","1","4","¿En qué año nació Hitler?","1889","1887","","0","0","1","competitive","right","1.23479104042","2818.09712982","3.76520895958","2822.03386593","3.5661919117","2825.60011983","2.4338080883","2828.07009101","2829.18447304","2829.27013302","2832.27284288","0","2832.28919983","2837.31620097",""
"sujeto_c730bc55","1","4","15","111","2837.45624995","direct","1","1","4","¿Cuánto pesa un elefante Africano?","6000 kilos","5400 kilos","","0","0","0","competitive","left","1.33493900299","2838.79124284","3.66506099701","2842.64287186","3.36228895187","2846.00520301","2.63771104813","2848.68061495","2850.035882","2850.11431599","2853.11726785","0","2853.13254285","2859.83886003",""
"sujeto_c730bc55","1","4","16","112","2859.98586082","inverse","1","1","2","¿Qué porcentaje de 
la población es zurda?","10%","7%","","1","1","0","competitive","left","0.981437921524","2860.96734405","4.01856207848","2865.15487599","3.52347207069","2868.67839003","2.47652792931","2871.20900393","2872.45188999","2872.5407269","2875.54351997","1","2875.56181884","2881.54081488",""
"sujeto_c730bc55","1","4","17","113","2881.67969584","direct","1","1","2","¿En qué año se estrenó
Volver al futuro?","1984","1985","","0","0","1","competitive","left","1.56372904778","2883.24347091","3.43627095222","2886.84976602","2.81674695015","2889.66657591","3.18325304985","2892.90401101","2894.46585989","2894.55545497","2897.55785084","0","2897.57336402","2904.66384292",""
"sujeto_c730bc55","1","4","18","114","2904.82518697","inverse","3","1","2","¿Cuántos jugadores hay en un 
equipo de baseball?","9","8","","1","1","0","competitive","right","1.88902020454","2906.71434093","3.11097979546","2910.01053786","4.09710097313","2914.10770392","1.90289902687","2916.04953098","2917.66377902","2917.74914503","2920.75185585","1","2920.76808286","2925.74485183",""
"sujeto_c730bc55","1","4","19","115","2925.88625288","direct","2","1","1","¿Cuántos Oscar ganó
 la película titanic?","13","11","","1","1","1","individual","left","1.95182085037","2927.83815694","3.04817914963","2931.05867791","3.04515099525","2934.10389304","2.95484900475","2937.09323001","2938.39484096","2938.44460487","2941.44685483","1","2941.46335888","2946.06584597",""
"sujeto_c730bc55","1","4","20","116","2946.213305","inverse","4","1","4","¿En qué año comenzó
la segunda guerra mundial?","1939","1976","left","0","0","1","competitive","left","1.11265802383","2947.32603192","3.88734197617","2951.38079596","3.12116003036","2954.50199795","2.87883996964","2957.43536901","2959.23486495","2959.32257104","2962.32481098","1","2962.34022593","2966.32743192",""
"sujeto_c730bc55","1","4","21","117","2966.49066687","direct","2","1","4","¿Cuántos biomas hay en Uruguay?","5","4","","0","0","1","competitive","left","1.09645605087","2967.58717203","3.90354394913","2971.67696881","2.48913097382","2974.16616488","3.51086902618","2977.72918797","2979.52651286","2979.60015297","2982.60281181","0","2982.61697984","2988.86537886",""
"sujeto_c730bc55","1","4","22","118","2989.01878691","inverse","2","1","3","¿Cuándo murió Pablo Escobar?","1993","1997","","1","1","1","competitive","left","1.28646183014","2990.30532002","3.71353816986","2994.18896604","3.19129300117","2997.380301","2.80870699883","3000.22684693","3002.00885701","3002.09362102","3005.09660602","1","3005.11244488","3010.81581092",""
"sujeto_c730bc55","1","4","23","119","3010.9644649","direct","1","1","4","¿Qué serie ha ganado mas premios?","Friends","Murphy Brown","","1","1","0","competitive","left","1.06698489189","3012.03151798","3.93301510811","3016.11660504","3.05679988861","3019.17346787","2.94320011139","3022.16947103","3023.52124691","3023.60554385","3026.60781789","1","3026.62435699","3032.1859479",""
"sujeto_c730bc55","1","4","24","120","3032.34254003","inverse","4","1","2","¿Cuántas fichas tiene el dominó?","26","28","","1","1","1","individual","right","1.242000103","3033.58460593","3.757999897","3037.51215196","2.53444194794","3040.04669404","3.46555805206","3043.56587601","3044.621207","3044.6659019","3047.66882896","1","3047.68466282","3052.92684889",""
"sujeto_c730bc55","1","4","25","121","3053.08590984","direct","2","1","4","¿Cuántos son los dientes de leche?","20","25","","0","0","1","competitive","right","1.15289998055","3054.23887992","3.84710001945","3058.27220583","3.09353399277","3061.36579299","2.90646600723","3064.30942798","3066.01951003","3066.09375787","3069.09582186","0","3069.11280799","3071.25854301",""
"sujeto_c730bc55","1","4","26","122","3071.41188788","inverse","3","1","3","¿Cuántos gramos son una onza?","22","28","","0","0","1","competitive","right","1.25395393372","3072.66591501","3.74604606628","3076.5670979","3.22473883629","3079.79187703","2.77526116371","3082.61634302","3084.61085391","3084.689147","3087.69128585","0","3087.70528984","3093.99480891",""
"sujeto_c730bc55","1","4","27","123","3094.15585995","direct","3","1","1","¿Cuándo salió el primer album
 de los Beatles?","1963","1962","","1","1","1","individual","left","1.39614892006","3095.55205584","3.60385107994","3099.32587004","2.94813203812","3102.27406788","3.05186796188","3105.36483288","3106.52784085","3106.58114195","3109.58406997","1","3109.60024285","3113.37184095",""
"sujeto_c730bc55","1","4","28","124","3113.51771903","inverse","3","1","3","¿Quién fundó la empresa apple?","Carlos Slim","Steve Jobs","","1","1","1","competitive","right","1.0224070549","3114.54021192","3.9775929451","3118.67132783","2.89883303642","3121.57020497","3.10116696358","3124.72418499","3125.8388319","3125.92458391","3128.92758489","1","3128.94389987","3135.24083996",""
"sujeto_c730bc55","1","4","29","125","3135.39623404","direct","4","1","2","¿Cuántos municipios hay
 en Montevideo?","8","7","","1","1","1","individual","left","1.51761102676","3136.91391397","3.48238897324","3140.56550598","2.54080319405","3143.10637403","3.45919680595","3146.60335398","3148.51814985","3148.56997204","3151.57281685","1","3151.58913493","3153.67022681",""
"sujeto_c730bc55","1","4","30","126","3153.80531502","inverse","1","1","1","¿Cuántos kilómetros hay
 de Montevideo a Artigas?","632","599","","0","0","0","competitive","right","2.50508904457","3156.31048083","2.49491095543","3159.00743103","3.63946795464","3162.64697504","2.36053204536","3165.06083393","3166.54382181","3166.63064504","3169.63358402","0","3169.64807081","3175.70016694",""
"sujeto_c730bc55","1","4","31","127","3175.86612487","direct","2","1","2","¿En qué año nació 
Leonardo Da Vinci?","1452","1511","","1","1","0","competitive","right","1.32441186905","3177.1905899","3.67558813095","3181.03672385","3.47587108612","3184.51264","2.52412891388","3187.08793497","3188.94151688","3189.02438784","3192.02686501","1","3192.04362893","3195.19005299",""
"sujeto_c730bc55","1","4","32","128","3195.34320688","inverse","3","1","1","¿A qué continente
 pertenece el país Gabón?","Africa","Oceanía","","0","0","1","competitive","left","1.39348506927","3196.73673701","3.60651493073","3200.51094198","3.40074014664","3203.91176796","2.59925985336","3206.55116892","3208.36284804","3208.449965","3211.452806","0","3211.46890998","3216.70677495",""
