"code","nro_aplicante","nro_bloque","nro_trial_bloque","nro_trial_global","show_game_type","choice_order","rival","pay_individual","pay_competitive","question","answer_left_text","answer_right_text","correct_answer","outcome_individual","outcome_competitive","outcome_rival","game_type","answer","social_time","rt_game_type","feedback_delay","show_question","answer_time","rt_answer_global","feedback_delay_2","show_jitter","jitter_time","show_outcome","outcome_time","outcome_participant_real","show_final_jitter","second_jitter_time","inicio_descanso"
"sujeto_0040081","1","1","1","1","644.859802008","direct","3","1","4","¿Cuántos centímetros corresponden
al talle 36 del calzado?","23","24","","0","0","1","competitive","right","2.23172903061","647.091603041","2.76827096939","650.031147957","3.12633490562","653.157546997","2.87366509438","656.064941883","657.09326005","657.16593504","660.168915033","0","660.182807922","662.345330954",""
"sujeto_0040081","1","1","2","2","662.484416962","inverse","3","1","2","¿Cuántas metros mide la Intendencia
Municipal de Montevideo? ","84","78","","0","0","1","competitive","left","1.83915901184","664.323621035","3.16084098816","667.640241861","3.95625710487","671.596560001","2.04374289513","673.690924883","675.568943977","675.641820908","678.643881083","0","678.6589849","680.751777887",""
"sujeto_0040081","1","1","3","3","680.894140959","direct","1","1","3","¿Cuántas La Pasiva
 hay en uruguay?","15","11","","1","1","1","competitive","left","1.64035582542","682.534538984","3.35964417458","686.032971859","3.90652298927","689.939532995","2.09347701073","692.083431005","693.695113897","693.767323017","696.770325899","1","696.785548925","701.063862085",""
"sujeto_0040081","1","1","4","4","701.203177929","inverse","3","1","3","¿De que color es la camiseta de uruguay?","blanca","celeste","right","1","1","1","competitive","right","2.26538705826","703.468613863","2.73461294174","706.357656956","2.87490701675","709.232631922","3.12509298325","712.410563946","713.615339994","713.694990873","716.697956085","1","716.711907864","720.165823936",""
"sujeto_0040081","1","1","5","5","720.347244024","direct","2","1","1","¿Cuánto metros mide
la torre Eiffel?","333","324","","1","1","1","competitive","right","1.78737306595","722.13468504","3.21262693405","725.519662857","2.82789301872","728.34759593","3.17210698128","731.553083897","733.074445963","733.154993057","736.157971859","1","736.172227859","743.2078619",""
"sujeto_0040081","1","1","6","6","743.339848042","inverse","3","1","4","¿Cuantas ciudades existen
 en todo el uruguay?","63","72","","0","0","1","competitive","left","3.0487101078","746.388607025","1.9512898922","748.492982864","3.56154108047","752.05459094","2.43845891953","754.531820059","755.586638927","755.666297913","758.669292927","0","758.683446884","766.310026884",""
"sujeto_0040081","1","1","7","7","766.434993982","direct","1","1","1","¿Cuantos estados tiene África?","52","54","","1","1","0","competitive","left","1.43358612061","767.868643999","3.56641387939","771.593257904","3.41529989243","775.008620024","2.58470010757","777.643941879","779.507974863","779.577538013","782.580486059","1","782.595730066","788.356776953",""
"sujeto_0040081","1","1","8","8","788.497324944","inverse","4","1","4","¿En qué año nació
 Stephen Hawking?","1952","1942","","0","0","1","competitive","right","2.33327102661","790.830659866","2.66672897339","793.686362982","4.48421382904","798.170644045","1.51578617096","799.722560883","801.166837931","801.23958087","804.242536068","0","804.257474899","810.356827974",""
"sujeto_0040081","1","1","9","9","810.49237299","direct","2","1","3","¿Cuánto años tenía Artigas
 cuando se fue a Paraguay?","56","57","","1","1","1","competitive","left","1.05726289749","811.549685001","3.94273710251","815.631684065","4.28786993027","819.91959095","1.71213006973","821.683336973","823.232858896","823.31786108","826.320844889","1","826.334761858","832.382063866",""
"sujeto_0040081","1","1","10","10","832.519747972","inverse","1","1","2","¿Cuantos milímetros 
mide una hoja A2?","420x592","420x594","","0","0","1","competitive","right","1.38791513443","833.907718897","3.61208486557","837.660109997","3.96053195","841.620682001","2.03946805","843.694576025","845.262988091","845.345427036","848.348419905","0","848.362561941","855.436196089",""
"sujeto_0040081","1","1","11","11","855.564598083","direct","3","1","3","¿Cuál es la menor temperatura 
registrada en Uruguay?","-5.4","-7.4","","0","0","1","competitive","right","1.11607503891","856.680742025","3.88392496109","860.722372055","3.95629405975","864.67870903","2.04370594025","866.773388863","868.455430031","868.524076939","871.527060032","0","871.54122591","875.274496078",""
"sujeto_0040081","1","1","12","12","875.410377026","inverse","2","1","2","¿Cuantos años hace que 
se fundó facebook?","18","17","","0","0","0","competitive","left","1.67530298233","877.085723877","3.32469701767","880.566654921","4.65295886993","885.219654083","1.34704113007","886.616940975","887.989677906","888.06793189","891.070874929","0","891.084802866","893.859446049",""
"sujeto_0040081","1","1","13","13","893.986269951","direct","1","1","4","¿Cuál animal es más
 pesado en promedio?","Rinoceronte","Hipopotamo","","0","0","0","competitive","left","0.896333932877","894.882669926","4.10366606712","899.205064058","5.05560302734","904.260727882","0.944396972656","905.242044926","906.321264982","906.391973019","909.394959927","0","909.409071922","913.250077009",""
"sujeto_0040081","1","1","14","14","913.394911051","inverse","1","1","2","¿Qué personaje de dragon ball 
murió más veces?","Chaoz","Krillin","","1","1","0","competitive","right","1.59870696068","914.993682861","3.40129303932","918.552380085","4.09324097633","922.64565897","1.90675902367","924.586574078","926.043891907","926.120903015","929.123847008","1","929.137940884","936.910870075",""
"sujeto_0040081","1","1","15","15","937.073045015","direct","3","1","2","La universidad de oxford. 
existe desde:","1096","1249","","1","1","0","competitive","left","1.19963312149","938.272742987","3.80036687851","942.214817047","4.53282999992","946.747684956","1.46717000008","948.265244961","949.31404686","949.382507086","952.385475874","1","952.399626017","959.087811947",""
"sujeto_0040081","1","1","16","16","959.234165907","inverse","3","1","1","¿Qué escritor latino ganó antes
 el premio nobel?"," García Marquez","Neruda","","0","0","1","competitive","right","1.49346780777","960.727704048","3.50653219223","964.375051022","4.0316131115","968.406734943","1.9683868885","970.426277876","972.166260004","972.244514942","975.247488022","0","975.26154089","978.722060919",""
"sujeto_0040081","1","1","17","17","978.896921873","direct","4","1","3","¿Cuántos dientes tiene un
 tiburón blanco?","6000","3000","","0","0","1","competitive","left","1.24177002907","980.138755083","3.75822997093","984.049954891","4.0266828537","988.076696873","1.9733171463","990.085835934","991.124808073","991.203711987","994.206716061","0","994.220665932","999.027865887",""
"sujeto_0040081","1","1","18","18","999.15553689","inverse","4","1","1","¿Cuánto mide el paralelo Ecuador?","40.000km","70.000km","","0","0","1","competitive","left","1.04815387726","1000.20377707","3.95184612274","1004.31268096","4.04999494553","1008.36273599","1.95000505447","1010.36366701","1012.31972194","1012.39816499","1015.40109587","0","1015.41527009","1019.01783991",""
"sujeto_0040081","1","1","19","19","1019.18432307","direct","4","1","2","¿Cuál fue el primer libro 
de Stephen King?","Carrie","The Stand","","1","1","1","competitive","left","1.0933740139","1020.27773905","3.9066259861","1024.34009695","3.9195690155","1028.25970697","2.0804309845","1030.39087796","1032.13492393","1032.20879006","1035.21171308","1","1035.22578287","1039.70021296",""
"sujeto_0040081","1","1","20","20","1039.82719398","inverse","2","1","3","¿Qué civilización practicaba
 la momificación?","Grecia","Egipto","right","0","0","1","competitive","right","1.37757182121","1041.20481086","3.62242817879","1044.98320198","3.52752113342","1048.51076698","2.47247886658","1051.01759791","1052.95689487","1053.03584599","1056.03880787","1","1056.05362391","1060.28241205",""
"sujeto_0040081","1","1","21","21","1060.42139196","direct","4","1","4","¿Cuántos millones de visitas
 recibe google por minuto?","3.0","4.5","","0","0","1","competitive","right","0.971374988556","1061.3928349","4.02862501144","1065.60740209","3.44534897804","1069.05281186","2.55465102196","1071.64325786","1073.15810299","1073.22761607","1076.22785687","0","1076.24492693","1083.36758399",""
"sujeto_0040081","1","1","22","22","1083.49693203","inverse","1","1","3","La máquina de fax. se inventó en:","1843","1960","","0","0","1","competitive","left","0.996858119965","1084.49389696","4.00314188004","1088.67260695","2.74415802956","1091.41680598","3.25584197044","1094.706604","1095.94783092","1096.02482295","1099.02778792","0","1099.04208708","1102.27839088",""
"sujeto_0040081","1","1","23","23","1102.41017389","direct","2","1","4","En la verdadera historia de los
 300 espartanos. habían:","300 soldados","4300 soldados","","1","1","1","competitive","","0.776620864868","1103.18686509","4.22337913513","1107.56545305","6","1113.56558394","0","1113.58080697","1114.84199095","1114.91775608","1117.92067504","0","1117.93576002","1121.73755789",""
"sujeto_0040081","1","1","24","24","1121.86992407","inverse","1","1","4","¿Cuántos milímetros crece
 el pelo por día?","0.4","0.04","","0","0","0","competitive","right","0.796846151352","1122.66683388","4.20315384865","1127.02308989","3.25166702271","1130.27479887","2.74833297729","1133.074368","1134.83509493","1134.90999389","1137.91188407","0","1137.9270649","1144.66215491",""
"sujeto_0040081","1","1","25","25","1144.79529786","direct","4","1","1","¿Cuánto mide la baldosa gris 
clásica de Montevideo?","22x22 cm.","20x20 cm.","","1","1","1","competitive","right","1.09447813034","1145.88987803","3.90552186966","1149.96823907","4.50257301331","1154.47087288","1.49742698669","1156.0205729","1158.01582289","1158.08759308","1161.09058094","1","1161.10573888","1166.64788198",""
"sujeto_0040081","1","1","26","26","1166.77436304","inverse","2","1","2","¿Cuántas películas de rápidos
 y furiosos hay?","10","11","","1","1","0","competitive","left","0.820379018784","1167.59478903","4.17962098122","1171.94814587","2.76650691032","1174.71468806","3.23349308968","1177.99888706","1179.35588098","1179.43422008","1182.43720603","1","1182.45141602","1184.48521686",""
"sujeto_0040081","1","1","27","27","1184.63806605","direct","3","1","1","¿Cuántos masters 1000
 ganó Del Potro?","1","2","","1","1","1","competitive","right","2.41871404648","1187.0568459","2.58128595352","1189.79202604","3.86576700211","1193.65785408","2.13423299789","1195.82609797","1197.58065605","1197.66088295","1200.66386199","1","1200.67776394","1208.07186103",""
"sujeto_0040081","1","1","28","28","1208.21239305","inverse","2","1","4","¿Cuántos meses dura el 
embarazo de una leona?","3 meses","4 meses","","0","0","1","competitive","right","1.0134100914","1209.22584891","3.9865899086","1213.36789703","4.16885018349","1217.53678393","1.83114981651","1219.42133093","1220.53183389","1220.60539389","1223.60838294","0","1223.62230992","1230.34472895",""
"sujeto_0040081","1","1","29","29","1230.47437096","direct","1","1","1","¿En qué año fue creado
 el sandwich?","1762","1653","","1","1","0","competitive","left","1.02845788002","1231.50290608","3.97154211998","1235.62912393","3.72568082809","1239.35484505","2.27431917191","1241.6649189","1243.26344991","1243.33274889","1246.33567286","1","1246.34976006","1249.82040691",""
"sujeto_0040081","1","1","30","30","1249.96846294","inverse","4","1","2","El nombre de la moneda de Vietnam es:","Dinar","Dong","","0","0","1","competitive","right","1.39842581749","1251.3669579","3.60157418251","1255.12515497","3.5686879158","1258.69390607","2.4313120842","1261.17644691","1262.60791087","1262.69359088","1265.69658089","0","1265.71080995","1271.87924409",""
"sujeto_0040081","1","1","31","31","1272.02952695","direct","2","1","1","¿cuantos aleteos puede dar 
un colibrí por segundo?","120","50","","0","0","0","competitive","left","0.914297819138","1272.94389105","4.08570218086","1277.18592787","3.23087906837","1280.41684699","2.76912093163","1283.23666286","1284.96901894","1285.03876901","1288.04170108","0","1288.05567789","1292.26796508",""
"sujeto_0040081","1","1","32","32","1292.39107609","inverse","4","1","3","¿Qué altura promedio tienen
 los hombres uruguayos?","1.73 m","1.72 m","","1","1","1","competitive","left","0.81885099411","1293.21003604","4.18114900589","1297.56209493","3.56172895432","1301.12386489","2.43827104568","1303.59696198","1304.85939097","1304.94894791","1307.95192695","1","1307.96592808","1312.44186687",""
"sujeto_0040081","1","2","1","33","1689.36273503","direct","1","1","1","¿En qué año nació 
el actor Bradd Pitt?","1967","1963","","1","1","1","competitive","right","0.80433511734","1690.16716695","4.19566488266","1694.51585889","3.67816495895","1698.19408488","2.32183504105","1700.55224299","1701.64786601","1701.71997786","1704.72293806","1","1704.73705697","1710.66389298","1312.45321298"
"sujeto_0040081","1","2","2","34","1710.80553603","inverse","2","1","1","¿Cual es el segundo 
monte más alto?","Kanchenjunga","K2","","1","1","1","competitive","right","1.04753518105","1711.85318303","3.95246481895","1715.96270609","3.96731901169","1719.93008709","2.03268098831","1722.01338291","1723.46581793","1723.54744196","1726.54792309","1","1726.56510305","1729.99498987",""
"sujeto_0040081","1","2","3","35","1730.13347292","direct","3","1","1","¿Cuándo finalizó la construcción
 del Palacio Legislativo?","1925","1917","","0","0","1","competitive","left","1.59147286415","1731.72498107","3.40852713585","1735.27268887","3.52836203575","1738.80109286","2.47163796425","1741.30684495","1742.94788504","1743.02416992","1746.02714086","0","1746.04231405","1751.73986793",""
"sujeto_0040081","1","2","4","36","1751.87759805","inverse","3","1","3","¿Cuántos integrantes tenía
 en su inicio  el cuarteto de nos?","3","4","","1","1","1","competitive","left","0.878532171249","1752.75617599","4.12146782875","1757.03383708","4.13827800751","1761.17217588","1.86172199249","1763.08496404","1764.21802092","1764.302706","1767.3056879","1","1767.31966805","1772.96947289",""
"sujeto_0040081","1","2","5","37","1773.12128806","direct","2","1","3","¿Qué valor tiene el número pi?","3.14","4.18","left","0","0","1","competitive","left","1.08685898781","1774.20825505","3.91314101219","1778.276685","2.94645595551","1781.22318196","3.05354404449","1784.31117392","1785.76536894","1785.84556508","1788.84790707","1","1788.86296606","1795.78394389",""
"sujeto_0040081","1","2","6","38","1795.91490006","inverse","2","1","2","¿Cuál es la esperanza de vida
 en Uruguay?","75","77","","1","1","0","competitive","right","1.15020394325","1797.06517291","3.84979605675","1801.07381392","3.4302380085","1804.50409007","2.5697619915","1807.12352395","1808.77588797","1808.85880208","1811.86178708","1","1811.87596893","1818.33580899",""
"sujeto_0040081","1","2","7","39","1818.5144949","direct","1","1","2","¿Cuantos pisos tiene la torre 
de las comunicaciones?","26","32","","1","1","0","competitive","left","1.06562590599","1819.58016396","3.93437409401","1823.66799498","3.41403007507","1827.08206105","2.58596992493","1829.71835303","1831.54708695","1831.61937189","1834.62231207","1","1834.63743997","1836.78365493",""
"sujeto_0040081","1","2","8","40","1836.92276287","inverse","2","1","4","¿En qué país sudamericano 
no hay McDonalds?","Bolivia","Venezuela","","0","0","1","competitive","left","1.13038611412","1838.05321693","3.86961388588","1842.07781696","5.23023796082","1847.30809808","0.769762039185","1848.12852192","1849.43791389","1849.51202798","1852.51498699","0","1852.52969408","1858.88940406",""
"sujeto_0040081","1","2","9","41","1859.0309279","direct","3","1","1","¿En qué año empieza
 la Edad Media?","476","512","","1","1","1","competitive","right","1.18221402168","1860.21318603","3.81778597832","1864.18689108","3.48428893089","1867.67124605","2.51571106911","1870.23880887","1871.642555","1871.72343898","1874.72642303","1","1874.74126601","1877.72982788",""
"sujeto_0040081","1","2","10","42","1877.89262009","inverse","3","1","4","¿Hace cuántos años surgió
 el ser humano?","200mil","300mil","","0","0","0","competitive","right","1.00157308578","1878.89426303","3.99842691422","1883.04825687","4.64488792419","1887.69318891","1.35511207581","1889.08325291","1890.96930599","1891.05104089","1894.05401206","0","1894.06822586","1897.37870288",""
"sujeto_0040081","1","2","11","43","1897.51996493","direct","3","1","4","¿Cuántas cuadras tiene
 actualmente 18 de julio? ","36","33","","0","0","1","competitive","right","1.0942428112","1898.61427689","3.9057571888","1902.67528391","3.94091296196","1906.61626601","2.05908703804","1908.70907402","1910.41132498","1910.49304295","1913.49590206","0","1913.51097202","1918.23725891",""
"sujeto_0040081","1","2","12","44","1918.37939787","inverse","1","1","4","¿Qué juego de equipo se 
considera mas rápido?","Lacrosse","Badminton","","0","0","0","competitive","left","0.872772932053","1919.25227094","4.12722706795","1923.53554201","3.17066407204","1926.70626688","2.82933592796","1929.58606291","1930.82915187","1930.90442491","1933.90740395","0","1933.92230797","1941.91585994",""
"sujeto_0040081","1","2","13","45","1942.05665493","direct","1","1","3","¿Qué promedio de edad 
vive una jirafa? ","25","20","","0","0","1","competitive","right","0.957649946213","1943.014359","4.04235005379","1947.21126795","4.35490584373","1951.56624603","1.64509415627","1953.26401496","1955.02554297","1955.09903407","1958.10200095","0","1958.1163919","1964.07180786",""
"sujeto_0040081","1","2","14","46","1964.20131493","inverse","1","1","2","¿Cuántos grandes lagos hay?","7","5","","0","0","1","competitive","left","0.682969808578","1964.88432789","4.31703019142","1969.35950589","3.68871498108","1973.04828286","2.31128501892","1975.41054702","1976.70270109","1976.77820301","1979.78117204","0","1979.79546094","1987.61683607",""
"sujeto_0040081","1","2","15","47","1987.74657989","direct","3","1","2","¿Cuántos discos de estudio
 grabó Johhny Cash? ","54","43","","1","1","0","competitive","right","0.854645013809","1988.60127091","4.14535498619","1992.90513086","3.81996703148","1996.72515893","2.18003296852","1998.95567107","2000.23431993","2000.30633903","2003.30788994","1","2003.32405186","2009.97497392",""
"sujeto_0040081","1","2","16","48","2010.1091249","inverse","4","1","1","¿Cuántos barrios tiene
 Montevideo? ","71","62","","0","0","1","competitive","right","0.759099960327","2010.86826897","4.24090003967","2015.26630998","3.49693703651","2018.76330686","2.50306296349","2021.30069804","2022.30776906","2022.38482594","2025.38784099","0","2025.40167189","2030.85988402",""
"sujeto_0040081","1","2","17","49","2031.0037179","direct","3","1","3","¿Qué edad tiene Homero Simpson?","36","42","","0","0","1","competitive","left","0.818465948105","2031.82222795","4.1815340519","2036.15931296","3.08178496361","2039.24115992","2.91821503639","2042.19381499","2043.56985402","2043.64563894","2046.64861989","0","2046.66256404","2051.05131698",""
"sujeto_0040081","1","2","18","50","2051.19796801","inverse","4","1","2","¿Cuántos países con monarquía 
hay en europa actualmente? ","6","10","","1","1","1","competitive","right","0.696278095245","2051.89434505","4.30372190475","2056.3873899","4.41284298897","2060.80027986","1.58715701103","2062.42291403","2063.86119008","2063.93905091","2066.94203091","1","2066.95735002","2073.11412787",""
"sujeto_0040081","1","2","19","51","2073.27480698","direct","2","1","3","¿Cuántos capítulos de
 Friends existen? ","236","228","","1","1","1","competitive","left","0.851475954056","2074.12635994","4.14852404594","2078.41603398","2.92319083214","2081.33927202","3.07680916786","2084.46577287","2085.77134299","2085.85058308","2088.85355496","1","2088.8687489","2091.24387097",""
"sujeto_0040081","1","2","20","52","2091.38706994","inverse","1","1","3","¿Cuántas óperas compuso Mozart? ","27","22","","1","1","1","competitive","left","1.11214399338","2092.49927807","3.88785600662","2096.54184103","3.65834999084","2100.20025802","2.34165000916","2102.57633996","2103.86787701","2103.94388795","2106.94686699","1","2106.96085095","2114.27232695",""
"sujeto_0040081","1","2","21","53","2114.41225505","direct","4","1","3","¿Cuántos mundiales de fútbol 
femenino ha realizado FIFA? ","9","7","","1","1","1","competitive","right","0.820022106171","2115.23234892","4.17997789383","2119.57013607","3.72011494637","2123.29031205","2.27988505363","2125.62108588","2126.86479902","2126.939116","2129.94207406","1","2129.95608592","2136.05852985",""
"sujeto_0040081","1","2","22","54","2136.20799994","inverse","3","1","2","¿Cuál es la temperatura 
media anual en Montevideo? ","17.5","16.3","","0","0","1","competitive","right","0.75860786438","2136.966676","4.24139213562","2141.3812089","4.35703802109","2145.73828793","1.64296197891","2147.4159019","2149.35445189","2149.43327689","2152.43583798","0","2152.451015","2159.02050304",""
"sujeto_0040081","1","2","23","55","2159.15293908","direct","2","1","2","¿En qué año se estrenó el
 videojuego The Sims? ","2000","2002","","0","0","0","competitive","right","0.816331148148","2159.96931696","4.18366885185","2164.31036687","3.28392100334","2167.59435201","2.71607899666","2170.36069489","2172.22268796","2172.29472208","2175.29581499","0","2175.31304002","2182.70668793",""
"sujeto_0040081","1","2","24","56","2182.83094001","inverse","2","1","1","¿Cuál es la canción con 
mas covers? ","Yesterday","Stand by me","","0","0","0","competitive","left","0.609364032745","2183.44037294","4.39063596725","2187.98899007","4.25429916382","2192.2433579","1.74570083618","2194.03987288","2195.43843889","2195.50695992","2198.50993991","0","2198.52517605","2202.69601989",""
"sujeto_0040081","1","2","25","57","2202.82680202","direct","1","1","4","¿Cuánto duró la guerra
 de los 100 años?","116","123","","0","0","0","competitive","left","0.772510051727","2203.59938788","4.22748994827","2207.98194408","3.95230007172","2211.93430305","2.04769992828","2214.03334093","2215.51415992","2215.58466005","2218.58763695","0","2218.60162401","2220.9213779",""
"sujeto_0040081","1","2","26","58","2221.07111287","inverse","4","1","4","¿Qué color tiene la  bandera de Brasil?","Amarillo","Naranja","left","0","0","1","competitive","left","0.763183116913","2221.83434105","4.23681688309","2226.25814009","2.80519104004","2229.06339288","3.19480895996","2232.30912805","2233.87566996","2233.96060991","2236.96356797","1","2236.97783899","2240.01063991",""
"sujeto_0040081","1","2","27","59","2240.16249895","direct","4","1","3","¿Qué carabela de 
Colon no volvió del viaje?","Santa María","La pinta","","0","0","1","competitive","left","0.882859945297","2241.04543591","4.1171400547","2245.31806993","4.96729302406","2250.28540492","1.03270697594","2251.36911988","2252.86015987","2252.93686104","2255.93984604","0","2255.95395303","2258.05188704",""
"sujeto_0040081","1","2","28","60","2258.22311807","inverse","4","1","4","¿Cuántos huesos tiene
 un adulto humano?","217","206","","0","0","1","competitive","right","0.770293951035","2258.99348187","4.22970604897","2263.393677","2.52165484428","2265.91537189","3.47834515572","2269.44487786","2270.7159059","2270.79589295","2273.79887891","0","2273.81373787","2281.65143394",""
"sujeto_0040081","1","2","29","61","2281.78148508","direct","1","1","1","¿Qué país africano fue 
fundado por esclavos?","Liberia","Chad","","0","0","0","competitive","right","0.969880104065","2282.75143099","4.03011989594","2286.93649697","4.30386281013","2291.24040699","1.69613718987","2292.98899603","2294.98062587","2295.056777","2298.0596869","0","2298.07394695","2306.06388092",""
"sujeto_0040081","1","2","30","62","2306.24248886","inverse","4","1","2","¿A cuánto asciende la cima
 del monte Everest?","7.990 mts","8.848 mts","","0","0","1","competitive","left","0.692851066589","2306.93540502","4.30714893341","2311.40116906","4.42816615105","2315.82937407","1.57183384895","2317.45317507","2318.63799906","2318.71997309","2321.7229569","0","2321.738065","2328.92211008",""
"sujeto_0040081","1","2","31","63","2329.07291293","direct","4","1","1","¿Cuál es el país mas chico?","Sealand","Luxemburgo","","1","1","1","competitive","left","1.06644701958","2330.13943386","3.93355298042","2334.23073006","3.03960394859","2337.27039504","2.96039605141","2340.28148794","2342.14385891","2342.21644306","2345.2193749","1","2345.23357391","2348.35587001",""
"sujeto_0040081","1","2","32","64","2348.48533201","inverse","2","1","4","¿Cuántas pirámides hay en Egipto?","10000","11000","","1","1","1","competitive","left","0.81905913353","2349.30446601","4.18094086647","2353.62411308","3.99624204636","2357.6203959","2.00375795364","2359.65836906","2360.69191289","2360.75939107","2363.76234698","1","2363.77610207","2368.88518",""
"sujeto_0040081","1","3","1","65","2481.32533908","direct","2","1","2","¿Cuál es el quinto país con 
mas extensión?","Canadá","Brasil","","1","1","0","competitive","right","0.962122917175","2482.28750587","4.03787708282","2486.47322989","3.37321615219","2489.84649086","2.62678384781","2492.50813103","2493.84140897","2493.92634392","2496.92930698","1","2496.94363308","2504.67001486","2368.89628792"
"sujeto_0040081","1","3","2","66","2504.79516387","inverse","1","1","2","¿Qué rasgo facial no tiene
 la Mona Lisa?","Cejas","Pómulos","","0","0","1","competitive","left","0.491379976273","2505.28661203","4.50862002373","2509.95430899","4.7551279068","2514.7094779","1.2448720932","2516.00613594","2517.75654793","2517.83982396","2520.84280705","0","2520.85703301","2527.12834907",""
"sujeto_0040081","1","3","3","67","2527.308424","direct","4","1","3","¿Cuál es el país con 
mayor población?","Esados Unidos","China","right","0","0","1","competitive","right","0.840090990067","2528.14858508","4.15990900993","2532.46540594","3.5460729599","2536.01151991","2.4539270401","2538.51682091","2540.16278601","2540.23449206","2543.23580909","1","2543.25217104","2546.61949801",""
"sujeto_0040081","1","3","4","68","2546.75384998","inverse","1","1","1","La palabra dinosaurio significa","Lagarto Terrible","Lagarto Dragón","","1","1","0","competitive","right","0.836689949036","2547.59061289","4.16331005096","2551.89231086","4.46509408951","2556.35746193","1.53490591049","2557.94398689","2559.11424708","2559.19528008","2562.1982789","1","2562.21221209","2565.07186699",""
"sujeto_0040081","1","3","5","69","2565.21413994","direct","2","1","3","¿Qué es el membrillero?","Arbol","Arbusto","","0","0","0","competitive","right","1.34437298775","2566.55857897","3.65562701225","2570.36512899","3.93239784241","2574.29759407","2.06760215759","2576.40074086","2578.35486197","2578.43602395","2581.43900895","0","2581.45316887","2587.91717005",""
"sujeto_0040081","1","3","6","70","2588.05507898","inverse","3","1","3","¿Alrededor de qué planeta orbita 
el satélite Europa?","Jupiter","Saturno","","1","1","1","competitive","left","0.671452999115","2588.72659802","4.32854700089","2593.21398807","4.46354603767","2597.67757487","1.53645396233","2599.26484108","2600.80962086","2600.883039","2603.883883","1","2603.90011787","2606.10388088",""
"sujeto_0040081","1","3","7","71","2606.25136304","direct","3","1","1","¿Donde fue el mundial de 
fútbol de 1954?","Suiza","Suecia","","1","1","1","competitive","left","0.988121986389","2607.23958588","4.01187801361","2611.40646601","4.34908819199","2615.75559497","1.65091180801","2617.45771098","2618.71032691","2618.79231596","2621.79531193","1","2621.80932307","2625.72109699",""
"sujeto_0040081","1","3","8","72","2625.86134696","inverse","1","1","4","¿Cuál de los 7 enanitos
no tenía barba?","Bashful","Mudito","","1","1","0","competitive","right","0.712209939957","2626.57360101","4.28779006004","2631.0166049","4.31595993042","2635.33267593","1.68404006958","2637.06796098","2638.64808798","2638.71837306","2641.72134686","1","2641.73637009","2646.66544104",""
"sujeto_0040081","1","3","9","73","2646.80491304","direct","3","1","2","¿Cual red social es
mas utilizada mundialmente?","Instagram","Facebook","","1","1","0","competitive","left","0.880702018738","2647.68566203","4.11929798126","2651.96055698","2.80702400208","2654.76764894","3.19297599792","2658.01082397","2659.92822886","2660.01289701","2663.01588297","1","2663.03016806","2665.96466804",""
"sujeto_0040081","1","3","10","74","2666.09915805","inverse","4","1","1","¿Cuándo se inició la copa
 América de fútbol?","1916","1923","","1","1","1","competitive","right","0.755341053009","2666.85454297","4.24465894699","2671.25425792","3.58724689484","2674.84154797","2.41275310516","2677.30463791","2679.20209289","2679.29036903","2682.29335403","1","2682.30756688","2684.96368289",""
"sujeto_0040081","1","3","11","75","2685.09226608","direct","3","1","4","¿Cuántos presidentes de EEUU
han muerto asesinados?","3","4","","0","0","1","competitive","left","0.778312921524","2685.87064886","4.22168707848","2690.24734688","3.1902410984","2693.43762898","2.8097589016","2696.29793596","2697.78185892","2697.86555696","2700.86852407","0","2700.88314199","2704.52725506",""
"sujeto_0040081","1","3","12","76","2704.66891289","inverse","2","1","4","¿Cuántas veces participó EEUU
 en la copa América?","4","5","","0","0","1","competitive","left","0.71572303772","2705.38470507","4.28427696228","2709.82078385","4.28882408142","2714.1096499","1.71117591858","2715.87314892","2717.31722403","2717.39120603","2720.39418507","0","2720.40844798","2726.52557492",""
"sujeto_0040081","1","3","13","77","2726.66024709","direct","4","1","1","¿Cuál de estos países 
no formaba la URSS?","Azeribayán","Afganistán","","0","0","1","competitive","left","0.746760129929","2727.40705895","4.25323987007","2731.81880999","3.93882799149","2735.75770593","2.06117200851","2737.87030792","2739.18335891","2739.25462008","2742.25760293","0","2742.27087903","2750.25301695",""
"sujeto_0040081","1","3","14","78","2750.38925791","inverse","1","1","1","¿En qué año se inauguró
 el teatro Solís?","1867","1856","","0","0","0","competitive","left","0.637358903885","2751.02668595","4.36264109612","2755.5475359","4.68007802963","2760.22768688","1.31992197037","2761.59905005","2762.6553669","2762.73323298","2765.73622108","0","2765.75029898","2772.39811301",""
"sujeto_0040081","1","3","15","79","2772.53537798","direct","1","1","4","¿A qué velocidad vuela 
el avión más rápido?","3529","3874","","0","0","0","competitive","left","0.817295789719","2773.352741","4.18270421028","2777.69239902","4.20818305016","2781.90064192","1.79181694984","2783.72677708","2785.48232007","2785.56103206","2788.563977","0","2788.57894087","2790.68921995",""
"sujeto_0040081","1","3","16","80","2790.81390691","inverse","3","1","4","¿De qué año es la primer 
película cinematográfica?","1897","1888","","0","0","0","competitive","right","0.522717952728","2791.3367579","4.47728204727","2795.99905396","4.93651890755","2800.93564487","1.06348109245","2802.05210686","2803.18507791","2803.26884508","2806.27180004","0","2806.28610492","2811.6958859",""
"sujeto_0040081","1","3","17","81","2811.82062507","direct","2","1","3","¿Cuántos países 
tiene nuestro planeta?","191","194","","1","1","1","competitive","right","1.75205016136","2813.572721","3.24794983864","2816.9946599","3.98600196838","2820.98070288","2.01399803162","2823.04699707","2824.40421987","2824.4813869","2827.483886","1","2827.49903202","2830.73733401",""
"sujeto_0040081","1","3","18","82","2830.88378596","inverse","2","1","2","¿Cuántos habitantes
 tiene Buenos Aires?","2.9000.000","3650000","","0","0","0","competitive","","0.741806030273","2831.62563396","4.25819396973","2836.03869486","6","2842.03880501","0","2842.05403209","2843.45126796","2843.52477503","2846.52777004","0","2846.54169297","2852.37109089",""
"sujeto_0040081","1","3","19","83","2852.51023507","direct","2","1","1","¿Cuántos kilos forman una tonelada?","1000","1500","left","1","1","1","competitive","right","1.50643396378","2854.01673293","3.49356603622","2857.66736889","3.71823000908","2861.38565707","2.28176999092","2863.71781301","2865.60509896","2865.68574405","2868.68873501","0","2868.70367408","2874.66109204",""
"sujeto_0040081","1","3","20","84","2874.80516696","inverse","4","1","4","¿Cuántos estados tiene la 
República del Perú? ","24","23","","0","0","1","competitive","right","0.75517988205","2875.56039596","4.24482011795","2879.97528791","2.85637998581","2882.83172989","3.14362001419","2886.02787209","2887.05005002","2887.1287539","2890.13172793","0","2890.14589","2895.08787203",""
"sujeto_0040081","1","3","21","85","2895.24822903","direct","3","1","3","¿En qué año nació Cristóbal Colón? ","1451","1447","","0","0","1","competitive","left","0.519494056702","2895.76782489","4.4805059433","2900.42230201","3.13136219978","2903.55373287","2.86863780022","2906.456002","2908.30190802","2908.37455606","2911.37581587","0","2911.39198709","2915.61995602",""
"sujeto_0040081","1","3","22","86","2915.76036906","inverse","4","1","4","¿Cuánto mide la 
Montaña Aconcagua? ","6234","6962","","0","0","1","competitive","left","0.790298938751","2916.5507319","4.20970106125","2920.93232298","3.60334897041","2924.53571892","2.39665102959","2926.98360896","2928.27190304","2928.35177588","2931.354774","0","2931.36883187","2938.55186796",""
"sujeto_0040081","1","3","23","87","2938.68714786","direct","2","1","4","¿Cuánto mide el punto
 más profundo del océano? ","12508","11003","","0","0","1","competitive","left","0.666516065598","2939.35370898","4.3334839344","2943.86150193","4.37017798424","2948.23172498","1.62982201576","2949.91287398","2951.163831","2951.24674392","2954.24972796","0","2954.26370788","2958.47002292",""
"sujeto_0040081","1","3","24","88","2958.59899306","inverse","1","1","3","¿Cuántos álbumes ha publicado 
el cantante Jaime Roos? ","41","34","","0","0","1","competitive","left","0.834728956223","2959.43378687","4.16527104378","2963.7712419","3.66147708893","2967.43276405","2.33852291107","2969.80535889","2971.29518294","2971.373312","2974.37622786","0","2974.390522","2980.58666086",""
"sujeto_0040081","1","3","25","89","2980.72589087","direct","4","1","3","¿En qué año nació el 
ex-presidente Jorge Battle? ","1921","1927","","1","1","1","competitive","right","0.706813097","2981.43277001","4.293186903","2985.88305497","3.53169584274","2989.41481495","2.46830415726","2991.93386698","2993.66451001","2993.73491907","2996.73789597","1","2996.75214791","3000.238204",""
"sujeto_0040081","1","3","26","90","3000.37055087","inverse","1","1","3","¿Cuántas presidencias 
constitucionales  hubo en Uruguay? ","41","42","","0","0","1","competitive","left","0.721267938614","3001.09192801","4.27873206139","3005.55973196","3.29995203018","3008.85972905","2.70004796982","3011.61036706","3012.81413698","3012.89520288","3015.89819098","0","3015.91231489","3021.69586205",""
"sujeto_0040081","1","3","27","91","3021.83001494","direct","1","1","2","¿Quién escribió mas sinfonías?","Mozart","Haydn","","1","1","0","competitive","left","0.756770849228","3022.58685398","4.24322915077","3027.00184393","3.56791901588","3030.56980991","2.43208098412","3033.05409503","3034.27154088","3034.35569286","3037.35867405","1","3037.37276101","3041.12418103",""
"sujeto_0040081","1","3","28","92","3041.25797391","inverse","4","1","2","¿En qué año nació Michael Jackson?","1958","1953","","1","1","1","competitive","left","0.715795040131","3041.97383809","4.28420495987","3046.43084908","4.00688099861","3050.43780088","1.99311900139","3052.46509004","3054.443326","3054.516119","3057.5190959","1","3057.53333092","3063.39563107",""
"sujeto_0040081","1","3","29","93","3063.53513694","direct","3","1","2","¿En qué año entró en vigencia 
la ley antitabaco en Uruguay?","2005","2006","","1","1","1","competitive","left","0.692658901215","3064.227844","4.30734109879","3068.69213104","4.82666015625","3073.51883101","1.17333984375","3074.72746992","3076.32223105","3076.39382696","3079.39677787","1","3079.411973","3084.74596691",""
"sujeto_0040081","1","3","30","94","3084.87934303","inverse","3","1","1","¿Cuándo se subió el 
primer video a youtube?","2004","2005","","0","0","1","competitive","left","0.822481155396","3085.70190287","4.1775188446","3090.03599501","4.1787481308","3094.21481395","1.8212518692","3096.0880549","3097.39370298","3097.47196007","3100.47495794","0","3100.48908186","3108.24466801",""
"sujeto_0040081","1","3","31","95","3108.39035106","direct","2","1","1","¿Cuántos habitantes tiene India?","1200 millones","1300 millones","","0","0","0","competitive","right","0.809427976608","3109.19988298","4.19057202339","3113.54892898","3.525867939","3117.07485986","2.474132061","3119.58273196","3121.55230498","3121.63416004","3124.63713789","0","3124.652143","3130.69964099",""
"sujeto_0040081","1","3","32","96","3130.88707209","inverse","4","1","2","¿A qué edad murió Bob Marley?","36","37","","0","0","1","competitive","left","0.913724899292","3131.80089498","4.08627510071","3136.07365704","3.82812905312","3139.90182686","2.17187094688","3142.1096909","3144.00755286","3144.09473491","3147.09767008","0","3147.11185002","3150.21431899",""
"sujeto_0040081","1","4","1","97","3275.21391106","direct","2","1","1","¿Cuantos años dirigió la selección 
uruguaya Tabarez?","15 años","13 años","","0","0","0","competitive","left","0.696979045868","3275.91095304","4.30302095413","3280.36474586","3.76513600349","3284.12992787","2.23486399651","3286.4168539","3287.60801387","3287.6848619","3290.68783402","0","3290.70184994","3297.77388191","3150.22595"
"sujeto_0040081","1","4","2","98","3297.92007995","inverse","4","1","1","¿Cuantas teclas tiene un teclado 
de computadora generalmente? ","Entre 99 y 108","Entre 109 y 113","","1","1","1","competitive","left","0.732823848724","3298.65298295","4.26717615128","3303.07891798","4.67287778854","3307.75186205","1.32712221146","3309.13160396","3310.13434196","3310.21497202","3313.21795893","1","3313.23223591","3315.60368395",""
"sujeto_0040081","1","4","3","99","3315.73383498","direct","1","1","1","¿Cuál Departamento tiene
 mayor superficie?","Río Negro","Soriano","","0","0","0","competitive","left","0.770056009293","3316.50393701","4.22994399071","3320.88909507","3.00284194946","3323.89201093","2.99715805054","3326.93940997","3328.65182209","3328.72421503","3331.72720098","0","3331.74141788","3336.067487",""
"sujeto_0040081","1","4","4","100","3336.21030092","inverse","3","1","2","¿Cuál es el apellido de las 
hermanastras  de  cenicienta?","Tremaine","Truman","","0","0","1","competitive","right","0.609658956528","3336.82002687","4.39034104347","3341.36628008","3.94258713722","3345.30890608","2.05741286278","3347.40035987","3349.26988506","3349.35140204","3352.35186195","0","3352.36876607","3355.06384706",""
"sujeto_0040081","1","4","5","101","3355.20465493","direct","4","1","4","¿Cuál película ganó un
 Oscar a mejor película?","Alto Impacto","Cache","","0","0","1","competitive","left","0.740326881409","3355.945086","4.25967311859","3360.39258194","4.05629992485","3364.44895005","1.94370007515","3366.44299793","3367.56235409","3367.64468789","3370.6476779","0","3370.66174388","3372.92637491",""
"sujeto_0040081","1","4","6","102","3373.08038497","inverse","1","1","3","¿A cuántos centímetros
equivale la medida pié?","25","30","","0","0","1","competitive","left","0.607558012009","3373.68798709","4.39244198799","3378.23492694","3.44795203209","3381.68291807","2.55204796791","3384.28595901","3385.32597303","3385.40342402","3388.40639305","0","3388.42063498","3393.82160902",""
"sujeto_0040081","1","4","7","103","3393.95521688","direct","2","1","2","¿Qué departamento es mas grande?","Cerro Largo","Paysandú","","0","0","0","competitive","left","0.736778020859","3394.69207001","4.26322197914","3399.11178708","3.56010007858","3402.67193198","2.43989992142","3405.14603186","3406.74578309","3406.83058095","3409.833565","0","3409.84762597","3413.95759702",""
"sujeto_0040081","1","4","8","104","3414.1000669","inverse","2","1","3","¿Quién pintó la Mona Lisa?","Picasso","Da Vinci","right","0","0","1","competitive","right","0.979886054993","3415.08005595","4.02011394501","3419.2699759","2.15494990349","3421.42496705","3.84505009651","3425.32068801","3426.92656207","3427.00708508","3430.01005888","1","3430.0243659","3432.18670392",""
"sujeto_0040081","1","4","9","105","3432.32558608","direct","4","1","3","¿Cuántos litros hay en un galon?","3.54","3.78","","1","1","1","competitive","left","1.1628279686","3433.48848796","3.8371720314","3437.48148203","2.98943018913","3440.47097492","3.01056981087","3443.53301406","3445.05083609","3445.13418698","3448.13713598","1","3448.15134192","3453.93982601",""
"sujeto_0040081","1","4","10","106","3454.0868659","inverse","4","1","1","¿Cuántas teclas tiene
 un piano moderno?","80","88","","0","0","1","competitive","left","0.709151983261","3454.79606295","4.29084801674","3459.24348807","3.6143860817","3462.85791206","2.3856139183","3465.29365802","3466.30213499","3466.37875891","3469.38176894","0","3469.39570594","3476.19348788",""
"sujeto_0040081","1","4","11","107","3476.33050489","direct","4","1","3","¿Cuántos países hay en África?","54","62","","0","0","1","competitive","right","0.716461896896","3477.04703999","4.2835381031","3481.48693895","4.52803182602","3486.01501393","1.47196817398","3487.52326608","3489.21378398","3489.28974009","3492.29272699","0","3492.30760098","3500.11187696",""
"sujeto_0040081","1","4","12","108","3500.25950003","inverse","1","1","3","¿En qué siglo se crearon
 las primeras pistolas?","XV","XIII","","1","1","1","competitive","left","1.64648509026","3501.90603089","3.35351490974","3505.41704607","4.15497899055","3509.572088","1.84502100945","3511.46848202","3513.41640997","3513.48544288","3516.48842406","1","3516.50362587","3519.73584199",""
"sujeto_0040081","1","4","13","109","3519.88875508","direct","3","1","4","¿En qué año se estrenó 
la serie friends?","1994","1995","","0","0","1","competitive","left","0.643448114395","3520.53227687","4.3565518856","3525.04308486","3.36590194702","3528.40904689","2.63409805298","3531.09449792","3532.96982098","3533.0457859","3536.04876494","0","3536.06297994","3541.06785703",""
"sujeto_0040081","1","4","14","110","3541.2141819","inverse","3","1","4","¿En qué año nació Hitler?","1889","1887","","0","0","1","competitive","right","0.63883805275","3541.85309005","4.36116194725","3546.37106586","3.9029750824","3550.27410388","2.0970249176","3552.42302895","3553.537431","3553.6076529","3556.60784507","0","3556.62384605","3561.65082192",""
"sujeto_0040081","1","4","15","111","3561.79309201","direct","1","1","4","¿Cuánto pesa un elefante Africano?","6000 kilos","5400 kilos","","0","0","0","competitive","left","0.72195315361","3562.51512504","4.27804684639","3566.94801807","3.43890500069","3570.38698196","2.56109499931","3572.99963593","3574.35556006","3574.43441892","3577.43740702","0","3577.45133591","3584.15840006",""
"sujeto_0040081","1","4","16","112","3584.302634","inverse","1","1","2","¿Qué porcentaje de 
la población es zurda?","10%","7%","","1","1","0","competitive","right","1.26947522163","3585.57217598","3.73052477837","3589.46073103","2.90730905533","3592.36810088","3.09269094467","3595.51096797","3596.75408292","3596.82906103","3599.83185101","1","3599.84689403","3605.82663107",""
"sujeto_0040081","1","4","17","113","3605.94825196","direct","1","1","2","¿En qué año se estrenó
Volver al futuro?","1984","1985","","0","0","1","competitive","left","0.7357878685","3606.68411589","4.2642121315","3611.13870907","3.76430392265","3614.90307903","2.23569607735","3617.18915892","3618.75097203","3618.82377696","3621.82677007","0","3621.84098601","3628.93243599",""
"sujeto_0040081","1","4","18","114","3629.05887294","inverse","3","1","2","¿Cuántos jugadores hay en un 
equipo de baseball?","9","8","","1","1","0","competitive","left","0.68724489212","3629.74618602","4.31275510788","3634.21652889","4.25250506401","3638.46907997","1.74749493599","3640.26819992","3641.88248205","3641.9693799","3644.972363","1","3644.98658991","3649.96385598",""
"sujeto_0040081","1","4","19","115","3650.10445309","direct","2","1","1","¿Cuántos Oscar ganó
 la película titanic?","13","11","","1","1","1","competitive","right","1.16759109497","3651.27211809","3.83240890503","3655.27810907","3.20090007782","3658.47906899","2.79909992218","3661.32853389","3662.63057709","3662.71280289","3665.71581292","1","3665.73081493","3670.33347392",""
"sujeto_0040081","1","4","20","116","3670.46554804","inverse","4","1","4","¿En qué año comenzó
la segunda guerra mundial?","1939","1976","left","0","0","1","competitive","left","0.847540140152","3671.31315804","4.15245985985","3675.6219089","2.76912093163","3678.39106989","3.23087906837","3681.67159295","3683.47140193","3683.55707502","3686.55985689","1","3686.57392097","3690.55990601",""
"sujeto_0040081","1","4","21","117","3690.69211888","direct","2","1","4","¿Cuántos biomas hay en Uruguay?","5","4","","0","0","1","competitive","left","0.696042060852","3691.38823891","4.30395793915","3695.84768605","2.75538516045","3698.60313296","3.24461483955","3701.89890003","3703.69586992","3703.76714087","3706.77012587","0","3706.78435802","3713.03377509",""
"sujeto_0040081","1","4","22","118","3713.17013192","inverse","2","1","3","¿Cuándo murió Pablo Escobar?","1993","1997","","1","1","1","competitive","left","2.74393606186","3715.91411209","2.25606393814","3718.32611299","3.40401387215","3721.73018789","2.59598612785","3724.37770987","3726.15984893","3726.22976589","3729.23274302","1","3729.24696589","3734.95063305",""
"sujeto_0040081","1","4","23","119","3735.09771991","direct","1","1","4","¿Qué serie ha ganado mas premios?","Friends","Murphy Brown","","1","1","0","competitive","left","0.821971893311","3735.91982508","4.17802810669","3740.25475502","3.09236598015","3743.34716105","2.90763401985","3746.28821301","3747.64059591","3747.72288299","3750.72588396","1","3750.73997307","3756.29992604",""
"sujeto_0040081","1","4","24","120","3756.44197607","inverse","4","1","2","¿Cuántas fichas tiene el dominó?","26","28","","1","1","1","competitive","right","0.722675085068","3757.16470194","4.27732491493","3761.59642601","3.83668899536","3765.43316507","2.16331100464","3767.64834905","3768.70366788","3768.78259301","3771.78559089","1","3771.79984403","3777.04293799",""
"sujeto_0040081","1","4","25","121","3777.18494201","direct","2","1","4","¿Cuántos son los dientes de leche?","20","25","","0","0","1","competitive","left","0.726147174835","3777.91113305","4.27385282516","3782.32630396","3.75578093529","3786.08213186","2.24421906471","3788.3772049","3790.0874989","3790.16153598","3793.1645329","0","3793.17874408","3795.32445693",""
"sujeto_0040081","1","4","26","122","3795.48113704","inverse","3","1","3","¿Cuántos gramos son una onza?","22","28","","0","0","1","competitive","left","1.00601601601","3796.48719692","3.99398398399","3800.63573408","3.27937912941","3803.91515088","2.72062087059","3806.66969395","3808.66452694","3808.73793697","3811.74093795","0","3811.75501394","3818.04527307",""
"sujeto_0040081","1","4","27","123","3818.17363501","direct","3","1","1","¿Cuándo salió el primer album
 de los Beatles?","1963","1962","","1","1","1","competitive","left","0.52956199646","3818.70326495","4.47043800354","3823.33014107","3.85503005981","3827.18521404","2.14496994019","3829.381603","3830.54524088","3830.61672902","3833.61971593","1","3833.63371587","3837.40578198",""
"sujeto_0040081","1","4","28","124","3837.53557801","inverse","3","1","3","¿Quién fundó la empresa apple?","Carlos Slim","Steve Jobs","","1","1","1","competitive","right","0.757580041885","3838.29323101","4.24241995811","3842.687783","4.63236403465","3847.32019305","1.36763596535","3848.74087","3849.855546","3849.94187903","3852.94489598","1","3852.9580369","3859.25590086",""
"sujeto_0040081","1","4","29","125","3859.42656207","direct","4","1","2","¿Cuántos municipios hay
 en Montevideo?","8","7","","1","1","1","competitive","right","0.730587005615","3860.15722203","4.26941299438","3864.58476186","4.28841209412","3868.87323499","1.71158790588","3870.63720894","3872.55186987","3872.63749409","3875.64047194","1","3875.6546979","3877.73586297",""
"sujeto_0040081","1","4","30","126","3877.87373996","inverse","1","1","1","¿Cuántos kilómetros hay
 de Montevideo a Artigas?","632","599","","0","0","0","competitive","left","0.835494041443","3878.70935297","4.16450595856","3883.04495406","4.38222694397","3887.42724395","1.61777305603","3889.09609509","3890.5792439","3890.66396904","3893.66691804","0","3893.68090987","3899.73300099",""
"sujeto_0040081","1","4","31","127","3899.86584592","direct","2","1","2","¿En qué año nació 
Leonardo Da Vinci?","1452","1511","","1","1","0","competitive","right","0.720307826996","3900.58622694","4.279692173","3905.02121496","4.5899720192","3909.61123109","1.4100279808","3911.05690908","3912.91051698","3912.99139309","3915.99436402","1","3916.00930405","3919.15571499",""
"sujeto_0040081","1","4","32","128","3919.29271102","inverse","3","1","1","¿A qué continente
 pertenece el país Gabón?","Africa","Oceanía","","0","0","1","competitive","right","0.736515045166","3920.02926993","4.26348495483","3924.44935107","3.61680197716","3928.06622291","2.38319802284","3930.50005507","3932.31170487","3932.38525009","3935.38822603","0","3935.40234995","3940.64024997",""
