"code","nro_aplicante","nro_bloque","nro_trial_bloque","nro_trial_global","show_game_type","choice_order","rival","pay_individual","pay_competitive","question","answer_left_text","answer_right_text","correct_answer","outcome_individual","outcome_competitive","outcome_rival","game_type","answer","social_time","rt_game_type","feedback_delay","show_question","answer_time","rt_answer_global","feedback_delay_2","show_jitter","jitter_time","show_outcome","outcome_time","outcome_participant_real","show_final_jitter","second_jitter_time","inicio_descanso"
"sujeto_74a044c9","1","1","1","1","54.2317159176","direct","3","1","4","¿Cuántos centímetros corresponden
al talle 36 del calzado?","23","24","","0","0","1","competitive","right","2.72056293488","56.9523398876","2.27943706512","59.4045078754","5.38889098167","64.7934429646","0.611109018326","65.4591639042","66.48741889","66.559981823","69.5629889965","0","69.576679945","71.7382059097",""
"sujeto_74a044c9","1","1","2","2","71.8932459354","inverse","3","1","2","¿Cuántas metros mide la Intendencia
Municipal de Montevideo? ","84","78","","0","0","1","competitive","","1.6402258873","73.5335378647","3.3597741127","77.0502169132","6","83.0503568649","0","83.0662539005","84.9443399906","85.0187728405","88.0192689896","0","88.0368900299","90.1296539307",""
"sujeto_74a044c9","1","1","3","3","90.2876360416","direct","1","1","3","¿Cuántas La Pasiva
 hay en uruguay?","15","11","","1","1","1","competitive","right","1.97697997093","92.2646808624","3.02302002907","95.4428088665","3.37981390953","98.8226618767","2.62018609047","101.477401018","103.089072943","103.17897892","106.181303024","1","106.196542978","110.474853992",""
"sujeto_74a044c9","1","1","4","4","110.614636898","inverse","3","1","3","¿De que color es la camiseta de uruguay?","blanca","celeste","right","1","1","1","competitive","right","1.79311084747","112.407789946","3.20688915253","115.769737005","3.57298707962","119.342764854","2.42701292038","121.821816921","123.026278973","123.106462955","126.109428883","1","126.1238029","129.576361895",""
"sujeto_74a044c9","1","1","5","5","129.708462","direct","2","1","1","¿Cuánto metros mide
la torre Eiffel?","333","324","","1","1","1","competitive","left","1.51546692848","131.22399497","3.48453307152","134.880987883","3.55798006058","138.439007998","2.44201993942","140.930816889","142.452216864","142.532913923","145.535874844","1","145.549438","152.586138964",""
"sujeto_74a044c9","1","1","6","6","152.734871864","inverse","3","1","4","¿Cuantas ciudades existen
 en todo el uruguay?","63","72","","0","0","1","competitive","left","1.57925200462","154.314216852","3.42074799538","157.89267087","4.07744288445","161.970160007","1.92255711555","163.927253962","164.982065916","165.061338902","168.064338923","0","168.077860832","175.700345039",""
"sujeto_74a044c9","1","1","7","7","175.846189976","direct","1","1","1","¿Cuantos estados tiene África?","52","54","","1","1","0","competitive","right","2.19113707542","178.037369013","2.80886292458","181.004099846","3.75524687767","184.759413004","2.24475312233","187.055966854","188.919962883","188.989939928","191.992915869","1","192.008466959","197.769474983",""
"sujeto_74a044c9","1","1","8","8","197.925397873","inverse","4","1","4","¿En qué año nació
 Stephen Hawking?","1952","1942","","0","0","1","competitive","left","1.2921359539","199.217603922","3.7078640461","203.099799871","2.51775789261","205.617622852","3.48224210739","209.149133921","210.59345293","210.667480946","213.670445919","0","213.685659885","219.779270887",""
"sujeto_74a044c9","1","1","9","9","219.92037487","direct","2","1","3","¿Cuánto años tenía Artigas
 cuando se fue a Paraguay?","56","57","","1","1","1","competitive","right","1.81526207924","221.735694885","3.18473792076","225.092732906","4.3800508976","229.472821951","1.6199491024","231.144867897","232.694388866","232.778615952","235.781616926","1","235.796339989","241.843658924",""
"sujeto_74a044c9","1","1","10","10","241.981226921","inverse","1","1","2","¿Cuantos milímetros 
mide una hoja A2?","420x592","420x594","","0","0","1","competitive","right","1.00474786758","242.986040831","3.99525213242","247.139058828","5.23393392563","252.373038054","0.766066074371","253.186549902","254.754966021","254.837422848","257.840415001","0","257.854884863","264.928529024",""
"sujeto_74a044c9","1","1","11","11","265.073007822","direct","3","1","3","¿Cuál es la menor temperatura 
registrada en Uruguay?","-5.4","-7.4","","0","0","1","competitive","right","1.34817004204","266.421232939","3.65182995796","270.234459877","3.87763786316","274.112160921","2.12236213684","276.268348932","277.950402975","278.035861015","281.038797855","0","281.053336859","284.786639929",""
"sujeto_74a044c9","1","1","12","12","284.921527863","inverse","2","1","2","¿Cuantos años hace que 
se fundó facebook?","18","17","","0","0","0","competitive","left","1.6437060833","286.565289974","3.3562939167","290.078176975","4.96515607834","295.043392897","1.03484392166","296.113677979","297.486378908","297.563755035","300.566252947","0","300.581539869","303.356202841",""
"sujeto_74a044c9","1","1","13","13","303.516433954","direct","1","1","4","¿Cuál animal es más
 pesado en promedio?","Rinoceronte","Hipopotamo","","0","0","0","competitive","left","2.4640648365","305.980562925","2.5359351635","308.667198896","4.27436184883","312.941622972","1.72563815117","314.719740868","315.798984051","315.870465994","318.873436928","0","318.887994051","322.729003906",""
"sujeto_74a044c9","1","1","14","14","322.922543049","inverse","1","1","2","¿Qué personaje de dragon ball 
murió más veces?","Chaoz","Krillin","","1","1","0","competitive","right","2.62012410164","325.542767048","2.37987589836","328.097630024","3.1450419426","331.242712975","2.8549580574","334.132182837","335.590010881","335.666471004","338.669484854","1","338.684536934","346.457484007",""
"sujeto_74a044c9","1","1","15","15","346.586503029","direct","3","1","2","La universidad de oxford. 
existe desde:","1096","1249","","1","1","0","competitive","left","1.43432807922","348.020874977","3.56567192078","351.744441986","4.29148697853","356.035969019","1.70851302147","357.777775049","358.826593876","358.912289858","361.915282011","1","361.929708004","368.620566845",""
"sujeto_74a044c9","1","1","16","16","368.764878035","inverse","3","1","1","¿Qué escritor latino ganó antes
 el premio nobel?"," García Marquez","Neruda","","0","0","1","competitive","right","1.28913402557","370.054077864","3.71086597443","373.922734976","4.44227218628","378.365051031","1.55772781372","379.955862045","381.695868969","381.77389884","384.776891947","0","384.791191816","388.251723051",""
"sujeto_74a044c9","1","1","17","17","388.393863916","direct","4","1","3","¿Cuántos dientes tiene un
 tiburón blanco?","6000","3000","","0","0","1","competitive","left","1.47524499893","389.86917901","3.52475500107","393.547430038","3.22870993614","396.77619791","2.77129006386","399.598430872","400.637397051","400.715845823","403.718858957","0","403.73347497","408.542255878",""
"sujeto_74a044c9","1","1","18","18","408.685036898","inverse","4","1","1","¿Cuánto mide el paralelo Ecuador?","40.000km","70.000km","","0","0","1","competitive","right","1.75325202942","410.438330889","3.24674797058","413.859755039","3.57352209091","417.433320045","2.42647790909","419.910722017","421.866817951","421.94550705","424.948489904","0","424.963027954","428.565270901",""
"sujeto_74a044c9","1","1","19","19","428.714913845","direct","4","1","2","¿Cuál fue el primer libro 
de Stephen King?","Carrie","The Stand","","1","1","1","competitive","right","1.29546809196","430.010447025","3.70453190804","433.87022686","4.41827297211","438.288539886","1.58172702789","439.921335936","441.665396929","441.738468885","444.741390944","1","444.756748915","449.231189013",""
"sujeto_74a044c9","1","1","20","20","449.391629934","inverse","2","1","3","¿Qué civilización practicaba
 la momificación?","Grecia","Egipto","right","0","0","1","competitive","right","2.42095398903","451.812644958","2.57904601097","454.580667973","2.62991118431","457.210618973","3.37008881569","460.630548","462.569816828","462.648808956","465.651787043","1","465.666404963","469.895198822",""
"sujeto_74a044c9","1","1","21","21","470.03480196","direct","4","1","4","¿Cuántos millones de visitas
 recibe google por minuto?","3.0","4.5","","0","0","1","competitive","right","0.978948831558","471.013802052","4.02105116844","475.207620859","4.63312792778","479.840791941","1.36687207222","481.259106874","482.773982048","482.859915972","485.862907887","0","485.877681971","493.00036788",""
"sujeto_74a044c9","1","1","22","22","493.129185915","inverse","1","1","3","La máquina de fax. se inventó en:","1843","1960","","0","0","1","competitive","left","1.03469491005","494.163949966","3.96530508995","498.287098885","4.28987002373","502.57703805","1.71012997627","504.338320971","505.580428839","505.654981852","508.657934904","0","508.672693014","511.908977032",""
"sujeto_74a044c9","1","1","23","23","512.041396856","direct","2","1","4","En la verdadera historia de los
 300 espartanos. habían:","300 soldados","4300 soldados","","1","1","1","competitive","right","1.49267792702","513.534139872","3.50732207298","517.196990013","5.05105113983","522.248078823","0.948948860168","523.248433828","524.509660006","524.581925869","527.584930897","1","527.599133015","531.400939941",""
"sujeto_74a044c9","1","1","24","24","531.534095049","inverse","1","1","4","¿Cuántos milímetros crece
 el pelo por día?","0.4","0.04","","0","0","0","competitive","left","1.37402391434","532.908210993","3.62597608566","536.688194036","4.35103607178","541.039289951","1.64896392822","542.739626884","544.500257015","544.573426962","547.576355934","0","547.591805935","554.326839924",""
"sujeto_74a044c9","1","1","25","25","554.476433992","direct","4","1","1","¿Cuánto mide la baldosa gris 
clásica de Montevideo?","22x22 cm.","20x20 cm.","","1","1","1","competitive","right","1.09494519234","555.571444988","3.90505480766","559.635289907","4.97708702087","564.612437963","1.02291297913","565.687032938","567.68227005","567.754312992","570.757295847","1","570.77200985","576.314790964",""
"sujeto_74a044c9","1","1","26","26","576.456938028","inverse","2","1","2","¿Cuántas películas de rápidos
 y furiosos hay?","10","11","","1","1","0","competitive","right","0.970558166504","577.427559853","4.0294418335","581.613324881","3.090239048","584.703621864","2.909760952","587.664671898","589.022665977","589.098752975","592.101691008","1","592.116042852","594.150710821",""
"sujeto_74a044c9","1","1","27","27","594.301223993","direct","3","1","1","¿Cuántos masters 1000
 ganó Del Potro?","1","2","","1","1","1","competitive","left","1.45147705078","595.752745867","3.54852294922","599.471916914","4.90271997452","604.374675035","1.09728002548","605.524478912","607.279085875","607.358453035","610.361407042","1","610.375789881","617.772135973",""
"sujeto_74a044c9","1","1","28","28","617.910994053","inverse","2","1","4","¿Cuántos meses dura el 
embarazo de una leona?","3 meses","4 meses","","0","0","1","competitive","right","1.79580807686","619.706845999","3.20419192314","623.084875822","4.92398405075","628.008920908","1.07601594925","629.11784482","630.22825098","630.302125931","633.304265976","0","633.318861961","640.041329861",""
"sujeto_74a044c9","1","1","29","29","640.204131842","direct","1","1","1","¿En qué año fue creado
 el sandwich?","1762","1653","","1","1","0","competitive","right","1.48583102226","641.690003872","3.51416897774","645.346473932","3.45059680939","648.797111034","2.54940319061","651.397964954","652.99652791","653.082175016","656.084252834","1","656.09984684","659.570472956",""
"sujeto_74a044c9","1","1","30","30","659.701910019","inverse","4","1","2","El nombre de la moneda de Vietnam es:","Dinar","Dong","","0","0","1","competitive","right","1.30029392242","661.002281904","3.69970607758","664.873350859","4.59583592415","669.469238043","1.40416407585","670.908512831","672.340283871","672.425369024","675.428316832","0","675.442965031","681.611229897",""
"sujeto_74a044c9","1","1","31","31","681.744464874","direct","2","1","1","¿cuantos aleteos puede dar 
un colibrí por segundo?","120","50","","0","0","0","competitive","right","1.84488606453","683.589396","3.15511393547","686.918872833","5.10447502136","692.023389816","0.895524978638","692.970640898","694.702262878","694.788022041","697.791007996","0","697.805395842","702.017688036",""
"sujeto_74a044c9","1","1","32","32","702.174273968","inverse","4","1","3","¿Qué altura promedio tienen
 los hombres uruguayos?","1.73 m","1.72 m","","1","1","1","competitive","left","3.10363602638","705.277951956","1.89636397362","707.344281912","4.10125398636","711.445576906","1.89874601364","713.395562887","714.658000946","714.729513884","717.732453823","1","717.746958017","722.22290802",""
"sujeto_74a044c9","1","2","1","33","871.263761997","direct","1","1","1","¿En qué año nació 
el actor Bradd Pitt?","1967","1963","","1","1","1","competitive","left","1.91512298584","873.178947926","3.08487701416","876.41603899","4.34689807892","880.762976885","1.65310192108","882.452450037","883.548313856","883.619177818","886.622184038","1","886.636977911","892.56457901","722.237689972"
"sujeto_74a044c9","1","2","2","34","892.705363989","inverse","2","1","1","¿Cual es el segundo 
monte más alto?","Kanchenjunga","K2","","1","1","1","competitive","left","1.44067120552","894.146077871","3.55932879448","897.862535954","5.0045747757","902.867168903","0.995425224304","903.913417816","905.365245819","905.447790861","908.450777054","1","908.46545887","911.895362854",""
"sujeto_74a044c9","1","2","3","35","912.034521818","direct","3","1","1","¿Cuándo finalizó la construcción
 del Palacio Legislativo?","1925","1917","","0","0","1","individual","left","2.58868312836","914.623270988","2.41131687164","917.204933882","4.43529200554","921.640283823","1.56470799446","923.257393837","924.899106026","924.941501856","927.942052841","0","927.959545851","933.657142878",""
"sujeto_74a044c9","1","2","4","36","933.810605049","inverse","3","1","3","¿Cuántos integrantes tenía
 en su inicio  el cuarteto de nos?","3","4","","1","1","1","competitive","left","1.18681502342","934.997462034","3.81318497658","938.982637882","4.01078891754","942.993485928","1.98921108246","945.017591","946.15069294","946.235879898","949.238869905","1","949.252833843","954.902653933",""
"sujeto_74a044c9","1","2","5","37","955.05449295","direct","2","1","3","¿Qué valor tiene el número pi?","3.14","4.18","left","0","0","1","competitive","left","1.55403995514","956.608583927","3.44596004486","960.195219994","2.24036598206","962.435652971","3.75963401794","966.245257854","967.699470997","967.780329943","970.783249855","1","970.797559023","977.718305826",""
"sujeto_74a044c9","1","2","6","38","977.848712921","inverse","2","1","2","¿Cuál es la esperanza de vida
 en Uruguay?","75","77","","1","1","0","competitive","right","2.33203792572","980.180814981","2.66796207428","983.005208015","4.26855111122","987.273804903","1.73144888878","989.057677031","990.711498022","990.792948961","993.795935869","1","993.809625864","1000.26980305",""
"sujeto_74a044c9","1","2","7","39","1000.41416287","direct","1","1","2","¿Cuantos pisos tiene la torre 
de las comunicaciones?","26","32","","1","1","0","individual","left","3.63976693153","1004.05399299","1.36023306847","1005.551651","5.69027209282","1011.24195695","0.309727907181","1011.60445094","1013.43322182","1013.47137785","1016.47432399","1","1016.48880792","1018.6349659",""
"sujeto_74a044c9","1","2","8","40","1018.7730279","inverse","2","1","4","¿En qué país sudamericano 
no hay McDonalds?","Bolivia","Venezuela","","0","0","1","competitive","left","1.31407594681","1020.0871489","3.68592405319","1023.94359684","4.2405090332","1028.18414688","1.7594909668","1029.99634099","1031.305722","1031.38032484","1034.38330889","0","1034.39759398","1040.75731182",""
"sujeto_74a044c9","1","2","9","41","1040.91580892","direct","3","1","1","¿En qué año empieza
 la Edad Media?","476","512","","1","1","1","competitive","left","1.19947290421","1042.11534691","3.80052709579","1046.07127595","4.00407481194","1050.07541299","1.99592518806","1052.12232804","1053.5260849","1053.60648799","1056.60947204","1","1056.62409592","1059.61264682",""
"sujeto_74a044c9","1","2","10","42","1059.75906086","inverse","3","1","4","¿Hace cuántos años surgió
 el ser humano?","200mil","300mil","","0","0","0","competitive","left","1.9913649559","1061.75049686","3.0086350441","1064.9161489","5.08831095695","1070.00452304","0.911689043045","1070.96863794","1072.85327387","1072.93523002","1075.93824482","0","1075.95282793","1079.26332188",""
"sujeto_74a044c9","1","2","11","43","1079.40483904","direct","3","1","4","¿Cuántas cuadras tiene
 actualmente 18 de julio? ","36","33","","0","0","1","competitive","right","1.50877594948","1080.91368103","3.49122405052","1084.55938482","3.840239048","1088.39968586","2.159760952","1090.61096001","1092.31322694","1092.39564586","1095.39857602","0","1095.41296601","1100.13927698",""
"sujeto_74a044c9","1","2","12","44","1100.28082299","inverse","1","1","4","¿Qué juego de equipo se 
considera mas rápido?","Lacrosse","Badminton","","0","0","0","competitive","right","1.58089900017","1101.86178589","3.41910099983","1105.43708801","4.28472709656","1109.72185683","1.71527290344","1111.487988","1112.73110485","1112.8054049","1115.80840182","0","1115.82282686","1123.81798291",""
"sujeto_74a044c9","1","2","13","45","1123.95725489","direct","1","1","3","¿Qué promedio de edad 
vive una jirafa? ","25","20","","0","0","1","competitive","right","3.50268101692","1127.46000004","1.49731898308","1129.09900284","4.32603406906","1133.42509604","1.67396593094","1135.15044785","1136.91189194","1136.98504901","1139.985291","0","1140.00258803","1145.95826483",""
"sujeto_74a044c9","1","2","14","46","1146.1041379","inverse","1","1","2","¿Cuántos grandes lagos hay?","7","5","","0","0","1","competitive","right","1.46598601341","1147.57018495","3.53401398659","1151.26107597","3.89016795158","1155.15130591","2.10983204842","1157.31251788","1158.60462999","1158.679919","1161.68293595","0","1161.69759083","1169.51902103",""
"sujeto_74a044c9","1","2","15","47","1169.66598201","direct","3","1","2","¿Cuántos discos de estudio
 grabó Johhny Cash? ","54","43","","1","1","0","competitive","right","1.81733298302","1171.48335791","3.18266701698","1174.83888388","3.87142491341","1178.7103529","2.12857508659","1180.89145184","1182.17010999","1182.2426939","1185.24568295","1","1185.26023984","1191.91120601",""
"sujeto_74a044c9","1","2","16","48","1192.06122494","inverse","4","1","1","¿Cuántos barrios tiene
 Montevideo? ","71","62","","0","0","1","competitive","right","1.83924078941","1193.90050387","3.16075921059","1197.23544502","3.39315414429","1200.62866688","2.60684585571","1203.26840901","1204.27545404","1204.35348988","1207.35641384","0","1207.37061787","1212.83223891",""
"sujeto_74a044c9","1","2","17","49","1212.97373891","direct","3","1","3","¿Qué edad tiene Homero Simpson?","36","42","","0","0","1","competitive","left","2.46594500542","1215.43973303","2.53405499458","1218.1455009","2.74922394753","1220.89478588","3.25077605247","1224.19566989","1225.57127285","1225.64746094","1228.65043283","0","1228.66412497","1233.05286098",""
"sujeto_74a044c9","1","2","18","50","1233.21587992","inverse","4","1","2","¿Cuántos países con monarquía 
hay en europa actualmente? ","6","10","","1","1","1","competitive","left","1.1299469471","1234.34587002","3.8700530529","1238.37367702","3.77622103691","1242.14993787","2.22377896309","1244.40792203","1245.84624696","1245.92574","1248.92873096","1","1248.94264889","1255.09947705",""
"sujeto_74a044c9","1","2","19","51","1255.24476004","direct","2","1","3","¿Cuántos capítulos de
 Friends existen? ","236","228","","1","1","1","competitive","left","1.13526701927","1256.38007498","3.86473298073","1260.40150595","4.14554786682","1264.54709387","1.85445213318","1266.43626785","1267.74187589","1267.82010484","1270.82306099","1","1270.83751702","1273.21309805",""
"sujeto_74a044c9","1","2","20","52","1273.37368393","inverse","1","1","3","¿Cuántas óperas compuso Mozart? ","27","22","","1","1","1","competitive","right","1.63349199295","1275.00725293","3.36650800705","1278.5281179","3.04111886024","1281.56927586","2.95888113976","1284.57765698","1285.86979389","1285.94612384","1288.94909596","1","1288.96343994","1296.27491903",""
"sujeto_74a044c9","1","2","21","53","1296.41522193","direct","4","1","3","¿Cuántos mundiales de fútbol 
femenino ha realizado FIFA? ","9","7","","1","1","1","competitive","left","1.188174963","1297.60344195","3.811825037","1301.57255387","5.75287294388","1307.32549","0.247127056122","1307.62356091","1308.86729288","1308.93980503","1311.94273186","1","1311.95777297","1318.06027699",""
"sujeto_74a044c9","1","2","22","54","1318.21002102","inverse","3","1","2","¿Cuál es la temperatura 
media anual en Montevideo? ","17.5","16.3","","0","0","1","competitive","right","0.867501974106","1319.07758784","4.13249802589","1323.36759996","4.85302495956","1328.22068501","1.14697504044","1329.41909885","1331.35767603","1331.43649197","1334.43950796","0","1334.45235896","1341.02050686",""
"sujeto_74a044c9","1","2","23","55","1341.17092705","direct","2","1","2","¿En qué año se estrenó el
 videojuego The Sims? ","2000","2002","","0","0","0","competitive","left","2.68387198448","1343.85486698","2.31612801552","1346.32879591","4.58205485344","1350.91091084","1.41794514656","1352.36553001","1354.22760296","1354.29955387","1357.302531","0","1357.31722498","1364.71081305",""
"sujeto_74a044c9","1","2","24","56","1364.85131788","inverse","2","1","1","¿Cuál es la canción con 
mas covers? ","Yesterday","Stand by me","","0","0","0","competitive","right","2.23665380478","1367.08803582","2.76334619522","1370.00970793","5.11132407188","1375.12109303","0.888675928116","1376.04405499","1377.44144893","1377.52771592","1380.53070784","0","1380.54596186","1384.71681094",""
"sujeto_74a044c9","1","2","25","57","1384.86447787","direct","1","1","4","¿Cuánto duró la guerra
 de los 100 años?","116","123","","0","0","0","individual","left","1.72363591194","1386.58818984","3.27636408806","1390.02030897","3.49387311935","1393.51422501","2.50612688065","1396.07070589","1397.55155683","1397.58808899","1400.59105802","0","1400.60637903","1402.92614388",""
"sujeto_74a044c9","1","2","26","58","1403.07476401","inverse","4","1","4","¿Qué color tiene la  bandera de Brasil?","Amarillo","Naranja","left","0","0","1","competitive","left","1.54358315468","1404.618397","3.45641684532","1408.22879291","3.32049489021","1411.54932785","2.67950510979","1414.27906799","1415.84561086","1415.93053699","1418.93353796","1","1418.94819403","1421.9788239",""
"sujeto_74a044c9","1","2","27","59","1422.13335085","direct","4","1","3","¿Qué carabela de 
Colon no volvió del viaje?","Santa María","La pinta","","0","0","1","competitive","right","1.53805208206","1423.67144489","3.46194791794","1427.28913093","4.21135210991","1431.50054193","1.78864789009","1433.34003401","1434.83109593","1434.90790796","1437.910887","0","1437.92512703","1440.02430701",""
"sujeto_74a044c9","1","2","28","60","1440.17755103","inverse","4","1","4","¿Cuántos huesos tiene
 un adulto humano?","217","206","","0","0","1","competitive","right","1.97005915642","1442.14768791","3.02994084358","1445.34666896","3.15999507904","1448.50672984","2.84000492096","1451.37976885","1452.65080786","1452.73122787","1455.73421192","0","1455.74892402","1463.58661103",""
"sujeto_74a044c9","1","2","29","61","1463.73417187","direct","1","1","1","¿Qué país africano fue 
fundado por esclavos?","Liberia","Chad","","0","0","0","competitive","right","3.58963394165","1467.32386994","1.41036605835","1468.894279","3.69562005997","1472.58996105","2.30437994003","1474.94218087","1476.93383789","1477.01066899","1480.01365089","0","1480.02889085","1488.01733899",""
"sujeto_74a044c9","1","2","30","62","1488.16339302","inverse","4","1","2","¿A cuánto asciende la cima
 del monte Everest?","7.990 mts","8.848 mts","","0","0","1","competitive","right","2.76668095589","1490.93014002","2.23331904411","1493.339926","4.53114414215","1497.87111282","1.46885585785","1499.39164686","1500.57648182","1500.65983391","1503.66287684","0","1503.67667484","1510.86073399",""
"sujeto_74a044c9","1","2","31","63","1511.01142001","direct","4","1","1","¿Cuál es el país mas chico?","Sealand","Luxemburgo","","1","1","1","competitive","left","2.42081999779","1513.43228602","2.57918000221","1516.18618894","3.12209391594","1519.30832386","2.87790608406","1522.23609495","1524.09962702","1524.18803501","1527.19105101","1","1527.20552897","1530.3272419",""
"sujeto_74a044c9","1","2","32","64","1530.45681596","inverse","2","1","4","¿Cuántas pirámides hay en Egipto?","10000","11000","","1","1","1","competitive","right","1.17951989174","1531.63640094","3.82048010826","1535.61290598","3.58354616165","1539.196491","2.41645383835","1541.66306186","1542.69661498","1542.78091788","1545.78324389","1","1545.79860592","1550.90763903",""
"sujeto_74a044c9","1","3","1","65","1720.47107792","direct","2","1","2","¿Cuál es el quinto país con 
mas extensión?","Canadá","Brasil","","1","1","0","competitive","right","1.12798023224","1721.59912205","3.87201976776","1725.62631202","3.18977308273","1728.81614304","2.81022691727","1731.67791796","1733.01029682","1733.09584498","1736.09884691","1","1736.11338687","1743.83977294","1550.92245603"
"sujeto_74a044c9","1","3","2","66","1743.98123288","inverse","1","1","2","¿Qué rasgo facial no tiene
 la Mona Lisa?","Cejas","Pómulos","","0","0","1","competitive","left","0.948018074036","1744.92930198","4.05198192596","1749.14077187","3.45953893661","1752.60034895","2.54046106339","1755.17164683","1756.92209697","1757.00636983","1760.00931382","0","1760.023175","1766.28928304",""
"sujeto_74a044c9","1","3","3","67","1766.4416399","direct","4","1","3","¿Cuál es el país con 
mayor población?","Esados Unidos","China","right","0","0","1","competitive","right","1.03280305862","1767.47448802","3.96719694138","1771.60223198","3.34927415848","1774.95156503","2.65072584152","1777.65356588","1779.29956985","1779.37158895","1782.37457991","1","1782.38807702","1785.755409",""
"sujeto_74a044c9","1","3","4","68","1785.90674591","inverse","1","1","1","La palabra dinosaurio significa","Lagarto Terrible","Lagarto Dragón","","1","1","0","competitive","","1.58582401276","1787.49264598","3.41417598724","1791.06275296","6","1797.06287789","0","1797.07762885","1798.24795103","1798.33093691","1801.33328795","0","1801.34856486","1804.21039605",""
"sujeto_74a044c9","1","3","5","69","1804.35064101","direct","2","1","3","¿Qué es el membrillero?","Arbol","Arbusto","","0","0","0","competitive","right","0.853603124619","1805.20428801","4.14639687538","1809.5050869","3.75668787956","1813.26184392","2.24331212044","1815.55397987","1817.508075","1817.58878398","1820.59175086","0","1820.60633302","1827.07035685",""
"sujeto_74a044c9","1","3","6","70","1827.22454691","inverse","3","1","3","¿Alrededor de qué planeta orbita 
el satélite Europa?","Jupiter","Saturno","","1","1","1","competitive","left","2.36643099785","1829.59102201","2.63356900215","1832.38136983","4.15961098671","1836.54102087","1.84038901329","1838.4356029","1839.98041987","1840.05323792","1843.05621791","1","1843.07095885","1845.27610183",""
"sujeto_74a044c9","1","3","7","71","1845.42328787","direct","3","1","1","¿Donde fue el mundial de 
fútbol de 1954?","Suiza","Suecia","","1","1","1","competitive","left","1.43581390381","1846.85917902","3.56418609619","1850.59354305","4.380671978","1854.97427583","1.619328022","1856.64456797","1857.89719296","1857.97926688","1860.98225403","1","1860.99653602","1864.90826201",""
"sujeto_74a044c9","1","3","8","72","1865.04844189","inverse","1","1","4","¿Cuál de los 7 enanitos
no tenía barba?","Bashful","Mudito","","1","1","0","competitive","left","1.38581705093","1866.43432283","3.61418294907","1870.20224786","4.18008589745","1874.38239384","1.81991410255","1876.25334096","1877.8332479","1877.90425086","1880.90721989","1","1880.92177701","1885.850878",""
"sujeto_74a044c9","1","3","9","73","1885.98986483","direct","3","1","2","¿Cual red social es
mas utilizada mundialmente?","Instagram","Facebook","","1","1","0","competitive","right","1.69064092636","1887.68055201","3.30935907364","1891.14827704","3.99725103378","1895.14558983","2.00274896622","1897.2000289","1899.11737394","1899.20115995","1902.20418","1","1902.21843505","1905.15131998",""
"sujeto_74a044c9","1","3","10","74","1905.28603792","inverse","4","1","1","¿Cuándo se inició la copa
 América de fútbol?","1916","1923","","1","1","1","competitive","left","2.92457699776","1908.21068001","2.07542300224","1910.45783091","3.36784696579","1913.82571793","2.63215303421","1916.50904489","1918.40648985","1918.49445486","1921.49742985","1","1921.51177597","1924.167907",""
"sujeto_74a044c9","1","3","11","75","1924.31315899","direct","3","1","4","¿Cuántos presidentes de EEUU
han muerto asesinados?","3","4","","0","0","1","competitive","left","1.95868086815","1926.27192688","3.04131913185","1929.48353982","4.07931995392","1933.56292295","1.92068004608","1935.53132987","1937.01529193","1937.09949994","1940.10247684","0","1940.11684489","1943.76096201",""
"sujeto_74a044c9","1","3","12","76","1943.90238404","inverse","2","1","4","¿Cuántas veces participó EEUU
 en la copa América?","4","5","","0","0","1","competitive","right","1.67852592468","1945.58097601","3.32147407532","1949.06247187","4.2164940834","1953.27902699","1.7835059166","1955.11304688","1956.55715704","1956.63098001","1959.63394785","0","1959.6484139","1965.76559782",""
"sujeto_74a044c9","1","3","13","77","1965.91652799","direct","4","1","1","¿Cuál de estos países 
no formaba la URSS?","Azeribayán","Afganistán","","0","0","1","competitive","right","1.49668192863","1967.41325593","3.50331807137","1971.07320905","3.31396889687","1974.38724494","2.68603110313","1977.12449288","1978.43754387","1978.52503395","1981.52803493","0","1981.54260087","1989.52476096",""
"sujeto_74a044c9","1","3","14","78","1989.67787385","inverse","1","1","1","¿En qué año se inauguró
 el teatro Solís?","1867","1856","","0","0","0","competitive","right","1.57450795174","1991.25244403","3.42549204826","1994.83621287","4.48421406746","1999.32049704","1.51578593254","2000.886868","2001.94319701","2002.02158189","2005.02456784","0","2005.03884888","2011.68666887",""
"sujeto_74a044c9","1","3","15","79","2011.82314992","direct","1","1","4","¿A qué velocidad vuela 
el avión más rápido?","3529","3874","","0","0","0","competitive","right","2.41536521912","2014.23855901","2.58463478088","2017.0130229","4.52153897285","2021.53460193","1.47846102715","2023.06642485","2024.82195282","2024.89984989","2027.90097404","0","2027.91742492","2030.02765393",""
"sujeto_74a044c9","1","3","16","80","2030.16873288","inverse","3","1","4","¿De qué año es la primer 
película cinematográfica?","1897","1888","","0","0","0","competitive","right","2.06798505783","2032.23676085","2.93201494217","2035.32401085","1.8117609024","2037.13583493","4.1882390976","2041.35716701","2042.490201","2042.57587194","2045.57879686","0","2045.59338498","2051.00319386",""
"sujeto_74a044c9","1","3","17","81","2051.14470387","direct","2","1","3","¿Cuántos países 
tiene nuestro planeta?","191","194","","1","1","1","competitive","left","1.48121595383","2052.62596488","3.51878404617","2056.31868196","3.70132613182","2060.02006888","2.29867386818","2062.36869097","2063.72588491","2063.80335593","2066.80633998","1","2066.82076192","2070.05907393",""
"sujeto_74a044c9","1","3","18","82","2070.20594788","inverse","2","1","2","¿Cuántos habitantes
 tiene Buenos Aires?","2.9000.000","3650000","","0","0","0","competitive","right","2.0221259594","2072.22811794","2.9778740406","2075.37710905","3.43495702744","2078.81210589","2.56504297256","2081.42917299","2082.82639694","2082.89698005","2085.89997387","0","2085.9142909","2091.74368",""
"sujeto_74a044c9","1","3","19","83","2091.88276696","direct","2","1","1","¿Cuántos kilos forman una tonelada?","1000","1500","left","1","1","1","competitive","left","1.29046821594","2093.17329788","3.70953178406","2097.03583097","2.96245908737","2099.998353","3.03754091263","2103.07060695","2104.95796585","2105.039747","2108.04273391","1","2108.0574789","2114.01491785",""
"sujeto_74a044c9","1","3","20","84","2114.16026282","inverse","4","1","4","¿Cuántos estados tiene la 
República del Perú? ","24","23","","0","0","1","competitive","right","1.27315497398","2115.43346095","3.72684502602","2119.33459401","3.49479818344","2122.82942605","2.50520181656","2125.36793494","2126.39009905","2126.46920085","2129.47220993","0","2129.48684788","2134.43220592",""
"sujeto_74a044c9","1","3","21","85","2134.58780003","direct","3","1","3","¿En qué año nació Cristóbal Colón? ","1451","1447","","0","0","1","competitive","right","1.43680596352","2136.02464986","3.56319403648","2139.76166987","3.50396203995","2143.26569104","2.49603796005","2145.81214595","2147.65805197","2147.72986102","2150.73280382","0","2150.74732995","2154.97533083",""
"sujeto_74a044c9","1","3","22","86","2155.11649203","inverse","4","1","4","¿Cuánto mide la 
Montaña Aconcagua? ","6234","6962","","0","0","1","competitive","left","2.48329210281","2157.59984803","2.51670789719","2160.28926492","4.1965508461","2164.48587584","1.8034491539","2166.32389402","2167.61323786","2167.69096994","2170.6939559","0","2170.70866704","2177.89232183",""
"sujeto_74a044c9","1","3","23","87","2178.04370093","direct","2","1","4","¿Cuánto mide el punto
 más profundo del océano? ","12508","11003","","0","0","1","competitive","left","1.09832286835","2179.14210582","3.90167713165","2183.21256495","3.85044980049","2187.06308198","2.14955019951","2189.26592994","2190.51745296","2190.60033584","2193.6033299","0","2193.61693096","2197.82321191",""
"sujeto_74a044c9","1","3","24","88","2197.96884489","inverse","1","1","3","¿Cuántos álbumes ha publicado 
el cantante Jaime Roos? ","41","34","","0","0","1","competitive","right","1.03735804558","2199.00624704","3.96264195442","2203.1444459","4.86172199249","2208.006217","1.13827800751","2209.17943287","2210.66929698","2210.74698496","2213.75000691","0","2213.76472688","2219.96088004",""
"sujeto_74a044c9","1","3","25","89","2220.09896803","direct","4","1","3","¿En qué año nació el 
ex-presidente Jorge Battle? ","1921","1927","","1","1","1","competitive","left","1.99943304062","2222.09844589","3.00056695938","2225.25617504","4.42422699928","2229.6804409","1.57577300072","2231.29151583","2233.02222991","2233.105407","2236.10836196","1","2236.12267804","2239.60873199",""
"sujeto_74a044c9","1","3","26","90","2239.74105","inverse","1","1","3","¿Cuántas presidencias 
constitucionales  hubo en Uruguay? ","41","42","","0","0","1","competitive","left","2.62355208397","2242.36465597","2.37644791603","2244.91669393","4.40988397598","2249.32661986","1.59011602402","2250.94896483","2252.15272784","2252.23364186","2255.23660398","0","2255.25128984","2261.03493905",""
"sujeto_74a044c9","1","3","27","91","2261.16954803","direct","1","1","2","¿Quién escribió mas sinfonías?","Mozart","Haydn","","1","1","0","competitive","left","2.28017401695","2263.4497869","2.71982598305","2266.34423399","2.7924861908","2269.13678098","3.2075138092","2272.39233589","2273.60981703","2273.69426084","2276.69623899","1","2276.7118299","2280.46325183",""
"sujeto_74a044c9","1","3","28","92","2280.61375594","inverse","4","1","2","¿En qué año nació Michael Jackson?","1958","1953","","1","1","1","competitive","left","2.56215286255","2283.17600894","2.43784713745","2285.80211997","3.23280501366","2289.03498602","2.76719498634","2291.83735704","2293.81560493","2293.90447688","2296.90726995","1","2296.92183089","2302.78415895",""
"sujeto_74a044c9","1","3","29","93","2302.92288303","direct","3","1","2","¿En qué año entró en vigencia 
la ley antitabaco en Uruguay?","2005","2006","","1","1","1","competitive","left","0.971171140671","2303.89410305","4.02882885933","2308.09937501","4.02579712868","2312.12522292","1.97420287132","2314.13352585","2315.7282989","2315.80233002","2318.80528402","1","2318.81968284","2324.15369391",""
"sujeto_74a044c9","1","3","30","94","2324.30358982","inverse","3","1","1","¿Cuándo se subió el 
primer video a youtube?","2004","2005","","0","0","1","individual","right","3.18465590477","2327.48828983","1.81534409523","2329.47620487","3.81608986855","2333.29233289","2.18391013145","2335.51212502","2336.81781483","2336.86321497","2339.866189","0","2339.88050389","2347.63428283",""
"sujeto_74a044c9","1","3","31","95","2347.78172684","direct","2","1","1","¿Cuántos habitantes tiene India?","1200 millones","1300 millones","","0","0","0","competitive","right","1.55674004555","2349.33853102","3.44325995445","2352.93800402","3.44944596291","2356.38751101","2.55055403709","2358.99045086","2360.96008301","2361.0418179","2364.04479384","0","2364.05910397","2370.10660386",""
"sujeto_74a044c9","1","3","32","96","2370.26063704","inverse","4","1","2","¿A qué edad murió Bob Marley?","36","37","","0","0","1","competitive","left","1.51602602005","2371.77671003","3.48397397995","2375.41892195","4.54481291771","2379.96377802","1.45518708229","2381.45307899","2383.35094786","2383.43691087","2386.43990493","0","2386.45446491","2389.55693197",""
"sujeto_74a044c9","1","4","1","97","2510.44906497","direct","2","1","1","¿Cuantos años dirigió la selección 
uruguaya Tabarez?","15 años","13 años","","0","0","0","competitive","left","1.53134298325","2511.98044896","3.46865701675","2515.60979891","3.73767900467","2519.34753799","2.26232099533","2521.66072989","2522.85189104","2522.92841101","2525.93139505","0","2525.94595098","2533.01798487","2389.572083"
"sujeto_74a044c9","1","4","2","98","2533.16487789","inverse","4","1","1","¿Cuantas teclas tiene un teclado 
de computadora generalmente? ","Entre 99 y 108","Entre 109 y 113","","1","1","1","individual","left","1.1149790287","2534.27995205","3.8850209713","2538.32172394","5.04323220253","2543.364995","0.95676779747","2544.37336993","2545.37611604","2545.42293286","2548.42588782","1","2548.44053483","2550.81197",""
"sujeto_74a044c9","1","4","3","99","2550.95985293","direct","1","1","1","¿Cuál Departamento tiene
 mayor superficie?","Río Negro","Soriano","","0","0","0","competitive","left","1.18533587456","2552.14523888","3.81466412544","2556.13039184","3.28194403648","2559.41237593","2.71805596352","2562.18144488","2563.89490485","2563.96505404","2566.96803594","0","2566.98336887","2571.30738091",""
"sujeto_74a044c9","1","4","4","100","2571.45225787","inverse","3","1","2","¿Cuál es el apellido de las 
hermanastras  de  cenicienta?","Tremaine","Truman","","0","0","1","competitive","right","2.20435404778","2573.65667605","2.79564595222","2576.6258409","4.17180299759","2580.79768705","1.82819700241","2582.67471099","2584.54424787","2584.62609982","2587.629107","0","2587.64292097","2590.33887696",""
"sujeto_74a044c9","1","4","5","101","2590.49446988","direct","4","1","4","¿Cuál película ganó un
 Oscar a mejor película?","Alto Impacto","Cache","","0","0","1","competitive","left","1.37145495415","2591.86599898","3.62854504585","2595.66883588","4.28218793869","2599.95108986","1.71781206131","2601.720366","2602.83893204","2602.92060494","2605.92360497","0","2605.93836689","2608.20225096",""
"sujeto_74a044c9","1","4","6","102","2608.33997989","inverse","1","1","3","¿A cuántos centímetros
equivale la medida pié?","25","30","","0","0","1","competitive","left","1.45627593994","2609.79629993","3.54372406006","2613.49513698","5.71426320076","2619.20944285","0.28573679924","2619.54322195","2620.58322382","2620.66035295","2623.66331983","0","2623.67781496","2629.07878685",""
"sujeto_74a044c9","1","4","7","103","2629.22853088","direct","2","1","2","¿Qué departamento es mas grande?","Cerro Largo","Paysandú","","0","0","0","competitive","left","1.08697605133","2630.31556487","3.91302394867","2634.40469098","2.90504217148","2637.309798","3.09495782852","2640.45576286","2642.05553198","2642.14028001","2645.141361","0","2645.15804696","2649.26802182",""
"sujeto_74a044c9","1","4","8","104","2649.40982199","inverse","2","1","3","¿Quién pintó la Mona Lisa?","Picasso","Da Vinci","right","0","0","1","competitive","right","0.966113090515","2650.375983","4.03388690948","2654.58397985","3.22813510895","2657.8122139","2.77186489105","2660.63378692","2662.23964095","2662.31914902","2665.32210994","1","2665.33680105","2667.49909401",""
"sujeto_74a044c9","1","4","9","105","2667.65519905","direct","4","1","3","¿Cuántos litros hay en un galon?","3.54","3.78","","1","1","1","competitive","right","1.17109012604","2668.82635403","3.82890987396","2672.82687688","2.72644901276","2675.55336595","3.27355098724","2678.86008191","2680.37794399","2680.46225905","2683.46525192","1","2683.47950101","2689.27124596",""
"sujeto_74a044c9","1","4","10","106","2689.41440201","inverse","4","1","1","¿Cuántas teclas tiene
 un piano moderno?","80","88","","0","0","1","competitive","left","1.92693018913","2691.34139585","3.07306981087","2694.5881319","3.42156791687","2698.00976396","2.57843208313","2700.63986683","2701.64835405","2701.72451305","2704.72749901","0","2704.74186182","2711.53962588",""
"sujeto_74a044c9","1","4","11","107","2711.6798389","direct","4","1","3","¿Cuántos países hay en África?","54","62","","0","0","1","competitive","right","1.28417801857","2712.96406388","3.71582198143","2716.84998989","2.56912779808","2719.41916895","3.43087220192","2722.90083194","2724.59140086","2724.66935587","2727.67234492","0","2727.68714094","2735.49195695",""
"sujeto_74a044c9","1","4","12","108","2735.6380899","inverse","1","1","3","¿En qué siglo se crearon
 las primeras pistolas?","XV","XIII","","1","1","1","competitive","right","2.32233095169","2737.960464","2.67766904831","2740.79606199","4.00349497795","2744.79961705","1.99650502205","2746.84742904","2748.79535294","2748.88256097","2751.88552189","1","2751.90020895","2755.133322",""
"sujeto_74a044c9","1","4","13","109","2755.26880193","direct","3","1","4","¿En qué año se estrenó 
la serie friends?","1994","1995","","0","0","1","competitive","right","1.43097782135","2756.69984388","3.56902217865","2760.42322493","4.02064919472","2764.44391298","1.97935080528","2766.47452688","2768.34924483","2768.42591095","2771.42887187","0","2771.44000697","2776.44608092",""
"sujeto_74a044c9","1","4","14","110","2776.59041786","inverse","3","1","4","¿En qué año nació Hitler?","1889","1887","","0","0","1","competitive","right","1.21870994568","2777.80924082","3.78129005432","2781.75023794","2.99194097519","2784.74222803","3.00805902481","2787.80193782","2788.91629004","2788.98658586","2791.98952699","0","2792.00426984","2797.03123903",""
"sujeto_74a044c9","1","4","15","111","2797.17164087","direct","1","1","4","¿Cuánto pesa un elefante Africano?","6000 kilos","5400 kilos","","0","0","0","competitive","right","1.15381407738","2798.32550001","3.84618592262","2802.34528995","4.60027885437","2806.94561005","1.39972114563","2808.39694595","2809.75286889","2809.83097291","2812.83395886","0","2812.84868288","2819.55573487",""
"sujeto_74a044c9","1","4","16","112","2819.70013499","inverse","1","1","2","¿Qué porcentaje de 
la población es zurda?","10%","7%","","1","1","0","individual","right","2.01071715355","2821.71091795","2.98928284645","2824.85745597","3.73843002319","2828.59592795","2.26156997681","2830.90946388","2832.15258098","2832.2083869","2835.21137595","1","2835.22504783","2841.20482492",""
"sujeto_74a044c9","1","4","17","113","2841.34395099","direct","1","1","2","¿En qué año se estrenó
Volver al futuro?","1984","1985","","0","0","1","competitive","right","3.09624004364","2844.44026685","1.90375995636","2846.5001719","4.10403490067","2850.60424399","1.89596509933","2852.55368805","2854.11549783","2854.18787503","2857.19084001","0","2857.20644498","2864.29789805",""
"sujeto_74a044c9","1","4","18","114","2864.44040203","inverse","3","1","2","¿Cuántos jugadores hay en un 
equipo de baseball?","9","8","","1","1","0","competitive","right","1.99711298943","2866.43759584","3.00288701057","2869.61462593","2.99394893646","2872.60861588","3.00605106354","2875.66545105","2877.27971292","2877.36710882","2880.37010384","1","2880.38445282","2885.36166883",""
"sujeto_74a044c9","1","4","19","115","2885.50292397","direct","2","1","1","¿Cuántos Oscar ganó
 la película titanic?","13","11","","1","1","1","competitive","right","1.67895698547","2887.18192601","3.32104301453","2890.65878987","3.69016885757","2894.34900188","2.30983114243","2896.70698786","2898.00906086","2898.09196901","2901.09492302","1","2901.10854387","2905.71122694",""
"sujeto_74a044c9","1","4","20","116","2905.84311604","inverse","4","1","4","¿En qué año comenzó
la segunda guerra mundial?","1939","1976","left","0","0","1","competitive","left","1.05706596375","2906.90026593","3.94293403625","2911.00254893","4.36359190941","2915.36621785","1.63640809059","2917.05480385","2918.85465002","2918.93837905","2921.94136786","1","2921.95594788","2925.943115",""
"sujeto_74a044c9","1","4","21","117","2926.09070301","direct","2","1","4","¿Cuántos biomas hay en Uruguay?","5","4","","0","0","1","competitive","left","1.03275513649","2927.12353802","3.96724486351","2931.26371884","2.35480284691","2933.61857986","3.64519715309","2937.31352305","2939.11088896","2939.19897604","2942.20193696","0","2942.21739697","2948.46675491",""
"sujeto_74a044c9","1","4","22","118","2948.61791682","inverse","2","1","3","¿Cuándo murió Pablo Escobar?","1993","1997","","1","1","1","competitive","right","1.95893788338","2950.57693005","3.04106211662","2953.7751379","3.19270682335","2956.96788692","2.80729317665","2959.82717705","2961.61003184","2961.69555902","2964.69849896","1","2964.71293592","2970.41661",""
"sujeto_74a044c9","1","4","23","119","2970.56433582","direct","1","1","4","¿Qué serie ha ganado mas premios?","Friends","Murphy Brown","","1","1","0","competitive","left","1.20975995064","2971.77414703","3.79024004936","2975.74944496","3.84077692032","2979.59028292","2.15922307968","2981.78489399","2983.13732386","2983.21948695","2986.22247291","1","2986.23699498","2991.7986269",""
"sujeto_74a044c9","1","4","24","120","2991.93803096","inverse","4","1","2","¿Cuántas fichas tiene el dominó?","26","28","","1","1","1","competitive","right","1.36533904076","2993.30344105","3.63466095924","2997.11518097","4.48634910583","3001.60158896","1.51365089417","3003.16682482","3004.22214484","3004.30129504","3007.30429602","1","3007.31799984","3012.56110692",""
"sujeto_74a044c9","1","4","25","121","3012.70478988","direct","2","1","4","¿Cuántos son los dientes de leche?","20","25","","0","0","1","competitive","left","1.41685795784","3014.12169099","3.58314204216","3017.87649703","3.30622315407","3021.18278003","2.69377684593","3023.92720985","3025.63762498","3025.7115519","3028.71456504","0","3028.72904682","3030.87473893",""
"sujeto_74a044c9","1","4","26","122","3031.01465201","inverse","3","1","3","¿Cuántos gramos son una onza?","22","28","","0","0","1","competitive","left","1.67137312889","3032.68609691","3.32862687111","3036.16900682","2.5549659729","3038.72403193","3.4450340271","3042.2191689","3044.21397185","3044.28755188","3047.29051805","0","3047.30486703","3053.59506083",""
"sujeto_74a044c9","1","4","27","123","3053.7398169","direct","3","1","1","¿Cuándo salió el primer album
 de los Beatles?","1963","1962","","1","1","1","competitive","left","2.55648493767","3056.29637194","2.44351506233","3058.93180084","3.09059309959","3062.02245402","2.90940690041","3064.97918797","3066.14283705","3066.23138285","3069.23431683","1","3069.24881291","3073.02031898",""
"sujeto_74a044c9","1","4","28","124","3073.15157795","inverse","3","1","3","¿Quién fundó la empresa apple?","Carlos Slim","Steve Jobs","","1","1","1","competitive","right","1.7470061779","3074.89862704","3.2529938221","3078.30673194","3.20892095566","3081.51569891","2.79107904434","3084.35991693","3085.47456789","3085.56054592","3088.56352401","1","3088.57821298","3094.87608194",""
"sujeto_74a044c9","1","4","29","125","3095.01278305","direct","4","1","2","¿Cuántos municipios hay
 en Montevideo?","8","7","","1","1","1","competitive","right","1.32806611061","3096.34089398","3.67193388939","3100.1691699","4.92184400558","3105.09106183","1.07815599442","3106.22065902","3108.13544297","3108.22205997","3111.22504902","1","3111.23934698","3113.32043195",""
"sujeto_74a044c9","1","4","30","126","3113.45619202","inverse","1","1","1","¿Cuántos kilómetros hay
 de Montevideo a Artigas?","632","599","","0","0","0","competitive","left","1.50894808769","3114.96521592","3.49105191231","3118.61065102","3.24651217461","3121.85720682","2.75348782539","3124.6597929","3126.14294791","3126.22780395","3129.23078799","0","3129.24545884","3135.29758501",""
"sujeto_74a044c9","1","4","31","127","3135.43122792","direct","2","1","2","¿En qué año nació 
Leonardo Da Vinci?","1452","1511","","1","1","0","competitive","left","1.94823503494","3137.37951899","3.05176496506","3140.60602188","3.51041889191","3144.11650491","2.48958110809","3146.64199305","3148.49561691","3148.576828","3151.57981205","1","3151.59438205","3154.74079895",""
"sujeto_74a044c9","1","4","32","128","3155.09587383","inverse","3","1","1","¿A qué continente
 pertenece el país Gabón?","Africa","Oceanía","","0","0","1","competitive","left","1.82976913452","3156.92568684","3.17023086548","3160.25157905","2.93314599991","3163.18476391","3.06685400009","3166.30181694","3168.11329389","3168.20394802","3171.20689893","0","3171.22174597","3176.45967484",""
