"code","nro_aplicante","nro_bloque","nro_trial_bloque","nro_trial_global","show_game_type","choice_order","rival","pay_individual","pay_competitive","question","answer_left_text","answer_right_text","correct_answer","outcome_individual","outcome_competitive","outcome_rival","game_type","answer","social_time","rt_game_type","feedback_delay","show_question","answer_time","rt_answer_global","feedback_delay_2","show_jitter","jitter_time","show_outcome","outcome_time","outcome_participant_real","show_final_jitter","second_jitter_time","inicio_descanso"
"sujeto_0039609","1","1","1","1","760.370397091","direct","3","1","4","¿Cuántos centímetros corresponden
al talle 36 del calzado?","23","24","","0","0","1","competitive","right","2.47189903259","762.842355013","2.52810096741","765.556755066","4.2995660305","769.856389999","1.7004339695","771.592507124","772.620799065","772.693422079","775.696393013","0","775.710210085","777.872744083",""
"sujeto_0039609","1","1","2","2","778.011927128","inverse","3","1","2","¿Cuántas metros mide la Intendencia
Municipal de Montevideo? ","84","78","","0","0","1","competitive","right","2.83739614487","780.849367142","2.16260385513","783.180875063","5.10741496086","788.288330078","0.892585039139","789.235302925","791.113332033","791.18591094","794.188877106","0","794.203093052","796.295854092",""
"sujeto_0039609","1","1","3","3","796.439357042","direct","1","1","3","¿Cuántas La Pasiva
 hay en uruguay?","15","11","","1","1","1","competitive","left","2.58692193031","799.02632308","2.41307806969","801.59355402","3.20774888992","804.801362991","2.79225111008","807.64431715","809.255980015","809.32861495","812.331589937","1","812.346670151","816.624993086",""
"sujeto_0039609","1","1","4","4","816.764310122","inverse","3","1","3","¿De que color es la camiseta de uruguay?","blanca","celeste","right","1","1","1","competitive","right","1.56399512291","818.328374147","3.43600487709","821.920248032","2.39601898193","824.316327095","3.60398101807","827.953525066","829.158107996","829.238978148","832.241939068","1","832.257003069","835.709892035",""
"sujeto_0039609","1","1","5","5","835.857805014","direct","2","1","1","¿Cuánto metros mide
la torre Eiffel?","333","324","","1","1","1","individual","right","1.88154292107","837.739417076","3.11845707893","841.047361135","2.77594614029","843.823346138","3.22405385971","847.097460985","848.618858099","848.665580988","851.668551922","1","851.682533026","858.718192101",""
"sujeto_0039609","1","1","6","6","858.851246119","inverse","3","1","4","¿Cuantas ciudades existen
 en todo el uruguay?","63","72","","0","0","1","competitive","left","1.43598413467","860.287286997","3.56401586533","864.008991003","4.46130800247","868.470340014","1.53869199753","870.043152094","871.097940922","871.177649021","874.178189039","0","874.194715977","881.821306944",""
"sujeto_0039609","1","1","7","7","881.946171045","direct","1","1","1","¿Cuantos estados tiene África?","52","54","","1","1","0","individual","left","1.51011896133","883.456331968","3.48988103867","887.087625027","4.4126470089","891.500338078","1.5873529911","893.121191978","894.985187054","895.022836924","898.025810957","1","898.039685965","903.800706148",""
"sujeto_0039609","1","1","8","8","903.942058086","inverse","4","1","4","¿En qué año nació
 Stephen Hawking?","1952","1942","","0","0","1","competitive","right","1.48317217827","905.425287962","3.51682782173","909.082340956","3.1389400959","912.221324921","2.8610599041","915.132571936","916.576880932","916.650663137","919.653653145","0","919.667717934","925.767081022",""
"sujeto_0039609","1","1","9","9","925.919049978","direct","2","1","3","¿Cuánto años tenía Artigas
 cuando se fue a Paraguay?","56","57","","1","1","1","competitive","right","3.48022198677","929.399315119","1.51977801323","931.073333979","4.25188207626","935.325273037","1.74811792374","937.127222061","938.676713943","938.74424696","941.747204065","1","941.762547016","947.809854984",""
"sujeto_0039609","1","1","10","10","947.947129965","inverse","1","1","2","¿Cuantos milímetros 
mide una hoja A2?","420x592","420x594","","0","0","1","individual","right","1.73322200775","949.68039608","3.26677799225","953.105535984","4.51174497604","957.617321014","1.48825502396","959.138837099","960.707240105","960.756994963","963.758181095","0","963.774439096","970.846188068",""
"sujeto_0039609","1","1","11","11","970.992172003","direct","3","1","3","¿Cuál es la menor temperatura 
registrada en Uruguay?","-5.4","-7.4","","0","0","1","competitive","right","1.7860250473","972.778253078","3.2139749527","976.16674304","3.45256686211","979.619379044","2.54743313789","982.217340946","983.899387121","983.984736919","986.987728119","0","987.003054142","990.736351013",""
"sujeto_0039609","1","1","12","12","990.870711088","inverse","2","1","2","¿Cuantos años hace que 
se fundó facebook?","18","17","","0","0","0","individual","left","3.2476170063","994.118375063","1.7523829937","996.02661705","3.93569898605","999.962376118","2.06430101395","1002.07772708","1003.45047498","1003.49595714","1006.49892306","0","1006.51306796","1009.28770494",""
"sujeto_0039609","1","1","13","13","1009.43094015","direct","1","1","4","¿Cuál animal es más
 pesado en promedio?","Rinoceronte","Hipopotamo","","0","0","0","competitive","left","1.75338697433","1011.18437314","3.24661302567","1014.63666606","3.36759376526","1018.00430107","2.63240623474","1020.68653703","1021.76578212","1021.83840513","1024.84140015","0","1024.85549307","1028.69649506",""
"sujeto_0039609","1","1","14","14","1028.84014392","inverse","1","1","2","¿Qué personaje de dragon ball 
murió más veces?","Chaoz","Krillin","","1","1","0","competitive","right","2.7731730938","1031.61336207","2.2268269062","1033.99690008","3.65645003319","1037.65339708","2.34354996681","1040.04771709","1041.50554299","1041.58232808","1044.58530903","1","1044.59846997","1052.37140107",""
"sujeto_0039609","1","1","15","15","1052.51755404","direct","3","1","2","La universidad de oxford. 
existe desde:","1096","1249","","1","1","0","competitive","left","1.59075593948","1054.10835409","3.40924406052","1057.6585381","2.69071507454","1060.34930897","3.30928492546","1063.70926905","1064.75810504","1064.82700896","1067.82999611","1","1067.84395695","1074.53481793",""
"sujeto_0039609","1","1","16","16","1074.66306996","inverse","3","1","1","¿Qué escritor latino ganó antes
 el premio nobel?"," García Marquez","Neruda","","0","0","1","individual","right","1.59826397896","1076.2613821","3.40173602104","1079.8201611","3.27408099174","1083.09429812","2.72591900826","1085.86960006","1087.60961699","1087.65455508","1090.6575191","0","1090.67164898","1094.13216114",""
"sujeto_0039609","1","1","17","17","1094.27334094","direct","4","1","3","¿Cuántos dientes tiene un
 tiburón blanco?","6000","3000","","0","0","1","competitive","left","1.79194307327","1096.06532598","3.20805692673","1099.43059897","2.84874486923","1102.27940392","3.15125513077","1105.48039198","1106.51938915","1106.59830594","1109.60128093","0","1109.61555195","1114.42519712",""
"sujeto_0039609","1","1","18","18","1114.56781602","inverse","4","1","1","¿Cuánto mide el paralelo Ecuador?","40.000km","70.000km","","0","0","1","individual","right","1.45951795578","1116.02737594","3.54048204422","1119.72321892","3.59608697891","1123.31936693","2.40391302109","1125.75688004","1127.71300793","1127.759233","1130.76217103","0","1130.77653909","1134.37818408",""
"sujeto_0039609","1","1","19","19","1134.52857113","direct","4","1","2","¿Cuál fue el primer libro 
de Stephen King?","Carrie","The Stand","","1","1","1","individual","left","2.02772903442","1136.55637002","2.97227096558","1139.68434501","3.48595786095","1143.17034101","2.51404213905","1145.73491001","1147.4781661","1147.51973009","1150.52269506","1","1150.536659","1155.01017594",""
"sujeto_0039609","1","1","20","20","1155.15482998","inverse","2","1","3","¿Qué civilización practicaba
 la momificación?","Grecia","Egipto","right","0","0","1","competitive","right","1.33551287651","1156.49040604","3.66448712349","1160.30831599","2.9279358387","1163.23631001","3.0720641613","1166.34305406","1168.28236103","1168.36166692","1171.36465192","1","1171.37875295","1175.60753798",""
"sujeto_0039609","1","1","21","21","1175.74744296","direct","4","1","4","¿Cuántos millones de visitas
 recibe google por minuto?","3.0","4.5","","0","0","1","competitive","right","1.33289504051","1177.08038092","3.66710495949","1180.90499115","3.5913131237","1184.49637008","2.4086868763","1186.93919206","1188.45406199","1188.52310395","1191.52612805","0","1191.54147696","1198.66413212",""
"sujeto_0039609","1","1","22","22","1198.79264593","inverse","1","1","3","La máquina de fax. se inventó en:","1843","1960","","0","0","1","competitive","right","2.15365791321","1200.946347","2.84634208679","1203.96602893","4.08327007294","1208.049335","1.91672992706","1210.00115395","1211.24319911","1211.31909013","1214.32212996","0","1214.33643794","1217.57017493",""
"sujeto_0039609","1","1","23","23","1217.70448112","direct","2","1","4","En la verdadera historia de los
 300 espartanos. habían:","300 soldados","4300 soldados","","1","1","1","competitive","right","1.26487612724","1218.96942115","3.73512387276","1222.86047411","4.36682891846","1227.22736192","1.63317108154","1228.91115594","1230.17232013","1230.24554205","1233.24619508","1","1233.263273","1237.06219292",""
"sujeto_0039609","1","1","24","24","1237.19747996","inverse","1","1","4","¿Cuántos milímetros crece
 el pelo por día?","0.4","0.04","","0","0","0","competitive","right","2.66287708282","1239.86039996","2.33712291718","1242.36526895","3.34298491478","1245.70829415","2.65701508522","1248.40211606","1250.16215706","1250.23725796","1253.24017811","0","1253.25421906","1259.98925209",""
"sujeto_0039609","1","1","25","25","1260.13904095","direct","4","1","1","¿Cuánto mide la baldosa gris 
clásica de Montevideo?","22x22 cm.","20x20 cm.","","1","1","1","individual","left","1.4863140583","1261.62541699","3.5136859417","1265.29894495","4.65741801262","1269.95640397","1.34258198738","1271.33277607","1273.32806015","1273.3672471","1276.37018514","1","1276.38433504","1281.92714715",""
"sujeto_0039609","1","1","26","26","1282.0696981","inverse","2","1","2","¿Cuántas películas de rápidos
 y furiosos hay?","10","11","","1","1","0","competitive","left","1.75764799118","1283.82740593","3.24235200882","1287.21005011","2.6053071022","1289.8154161","3.3946928978","1293.26041007","1294.61810398","1294.69563603","1297.69859409","1","1297.71294808","1299.746171",""
"sujeto_0039609","1","1","27","27","1299.88143897","direct","3","1","1","¿Cuántos masters 1000
 ganó Del Potro?","1","2","","1","1","1","individual","right","1.25789499283","1301.13937807","3.74210500717","1305.01909995","3.88220310211","1308.90134501","2.11779689789","1311.07035899","1312.82497597","1312.87070298","1315.87364507","1","1315.88870311","1323.28508592",""
"sujeto_0039609","1","1","28","28","1323.42316508","inverse","2","1","4","¿Cuántos meses dura el 
embarazo de una leona?","3 meses","4 meses","","0","0","1","competitive","right","1.71719098091","1325.14042211","3.28280901909","1328.58137512","4.00795292854","1332.58937001","1.99204707146","1334.63268209","1335.74375415","1335.81655312","1338.81818199","0","1338.83349895","1345.55597711",""
"sujeto_0039609","1","1","29","29","1345.68544197","direct","1","1","1","¿En qué año fue creado
 el sandwich?","1762","1653","","1","1","0","individual","left","1.47590589523","1347.16139412","3.52409410477","1350.82603097","3.60729002953","1354.43336511","2.39270997047","1356.87715793","1358.47572613","1358.51147914","1361.51444793","1","1361.52847695","1364.99911594",""
"sujeto_0039609","1","1","30","30","1365.14711308","inverse","4","1","2","El nombre de la moneda de Vietnam es:","Dinar","Dong","","0","0","1","competitive","right","1.41019511223","1366.55735207","3.58980488777","1370.28652501","3.63778996468","1373.92435503","2.36221003532","1376.33662605","1377.76862597","1377.8380971","1380.84107304","0","1380.85517001","1387.02359605",""
"sujeto_0039609","1","1","31","31","1387.190341","direct","2","1","1","¿cuantos aleteos puede dar 
un colibrí por segundo?","120","50","","0","0","0","individual","left","2.29495191574","1389.485358","2.70504808426","1392.34632993","3.54695391655","1395.89334393","2.45304608345","1398.38147593","1400.1138711","1400.16639495","1403.16936398","0","1403.18339515","1407.39567304",""
"sujeto_0039609","1","1","32","32","1407.55220795","inverse","4","1","3","¿Qué altura promedio tienen
 los hombres uruguayos?","1.73 m","1.72 m","","1","1","1","competitive","right","1.6941139698","1409.24637008","3.3058860302","1412.70858312","3.44075918198","1416.14938593","2.55924081802","1418.75865293","1420.021106","1420.09299707","1423.09417915","1","1423.1105001","1427.58615494",""
"sujeto_0039609","1","2","1","33","1547.94229794","direct","1","1","1","¿En qué año nació 
el actor Bradd Pitt?","1967","1963","","1","1","1","individual","right","1.99404811859","1549.936409","3.00595188141","1553.09721804","2.06614780426","1555.16340709","3.93385219574","1559.14444113","1560.24027395","1560.27966213","1563.28263712","1","1563.29691315","1569.22450495","1427.60064197"
"sujeto_0039609","1","2","2","34","1569.36567092","inverse","2","1","1","¿Cual es el segundo 
monte más alto?","Kanchenjunga","K2","","1","1","1","individual","right","1.50963997841","1570.8753531","3.49036002159","1574.52438092","3.07100510597","1577.59542608","2.92899489403","1580.57472301","1582.02716613","1582.07675004","1585.07822013","1","1585.09353209","1588.522192",""
"sujeto_0039609","1","2","3","35","1588.66146398","direct","3","1","1","¿Cuándo finalizó la construcción
 del Palacio Legislativo?","1925","1917","","0","0","1","individual","left","1.45691394806","1590.11844206","3.54308605194","1593.81752992","2.48887705803","1596.30646515","3.51112294197","1599.86791611","1601.50962305","1601.55346012","1604.55639911","0","1604.5707531","1610.26829195",""
"sujeto_0039609","1","2","4","36","1610.40557814","inverse","3","1","3","¿Cuántos integrantes tenía
 en su inicio  el cuarteto de nos?","3","4","","1","1","1","competitive","right","1.46979212761","1611.87543297","3.53020787239","1615.54397011","3.6704120636","1619.21444297","2.3295879364","1621.59638309","1622.72947192","1622.79715204","1625.80014706","1","1625.81509709","1631.46491313",""
"sujeto_0039609","1","2","5","37","1631.59916592","direct","2","1","3","¿Qué valor tiene el número pi?","3.14","4.18","left","0","0","1","competitive","left","1.67118597031","1633.27041411","3.32881402969","1636.75438309","2.20092916489","1638.95537114","3.79907083511","1642.80603313","1644.26022911","1644.34145308","1647.34219694","1","1647.35841703","1654.2781961",""
"sujeto_0039609","1","2","6","38","1654.427109","inverse","2","1","2","¿Cuál es la esperanza de vida
 en Uruguay?","75","77","","1","1","0","competitive","right","1.6312789917","1656.05843306","3.3687210083","1659.58533311","2.53302192688","1662.11841512","3.46697807312","1665.63485909","1667.28864503","1667.37000513","1670.37018514","1","1670.387609","1676.85062814",""
"sujeto_0039609","1","2","7","39","1676.98885608","direct","1","1","2","¿Cuantos pisos tiene la torre 
de las comunicaciones?","26","32","","1","1","0","competitive","right","1.28150010109","1678.27039814","3.71849989891","1682.13030696","3.44699692726","1685.57736015","2.55300307274","1688.18058801","1690.00933313","1690.08118796","1693.08216596","1","1693.09925795","1695.24541998",""
"sujeto_0039609","1","2","8","40","1695.384583","inverse","2","1","4","¿En qué país sudamericano 
no hay McDonalds?","Bolivia","Venezuela","","0","0","1","competitive","left","1.64978694916","1697.03443313","3.35021305084","1700.53726411","2.08914613724","1702.62647414","3.91085386276","1706.587708","1707.89709711","1707.97329903","1710.97423005","0","1710.990484","1717.3501811",""
"sujeto_0039609","1","2","9","41","1717.49179912","direct","3","1","1","¿En qué año empieza
 la Edad Media?","476","512","","1","1","1","individual","right","2.37469005585","1719.86655807","2.62530994415","1722.65078592","3.22455906868","1725.87540412","2.77544093132","1728.70191813","1730.10564995","1730.15252304","1733.15418005","1","1733.170187","1736.15823007",""
"sujeto_0039609","1","2","10","42","1736.30500507","inverse","3","1","4","¿Hace cuántos años surgió
 el ser humano?","200mil","300mil","","0","0","0","individual","right","1.75037407875","1738.05544114","3.24962592125","1741.45895815","3.19439792633","1744.65339494","2.80560207367","1747.49398804","1749.38003397","1749.42946506","1752.43242407","0","1752.44746494","1755.75792813",""
"sujeto_0039609","1","2","11","43","1755.89777899","direct","3","1","4","¿Cuántas cuadras tiene
 actualmente 18 de julio? ","36","33","","0","0","1","individual","left","1.51263093948","1757.41048098","3.48736906052","1761.05370593","3.35967803001","1764.41345096","2.64032196999","1767.08790803","1768.79017997","1768.83878398","1771.84173894","0","1771.85690498","1776.58318114",""
"sujeto_0039609","1","2","12","44","1776.72451615","inverse","1","1","4","¿Qué juego de equipo se 
considera mas rápido?","Lacrosse","Badminton","","0","0","0","competitive","right","1.57686710358","1778.30142713","3.42313289642","1781.88043404","4.45889496803","1786.3393681","1.54110503197","1787.91347814","1789.15654993","1789.23127007","1792.23425508","0","1792.24827409","1800.24342608",""
"sujeto_0039609","1","2","13","45","1800.40008307","direct","1","1","3","¿Qué promedio de edad 
vive una jirafa? ","25","20","","0","0","1","competitive","right","1.48825311661","1801.8883791","3.51174688339","1805.54291511","3.21447205544","1808.7574501","2.78552794456","1811.57678294","1813.33817101","1813.41216397","1816.41423011","0","1816.429492","1822.38519597",""
"sujeto_0039609","1","2","14","46","1822.53069496","inverse","1","1","2","¿Cuántos grandes lagos hay?","7","5","","0","0","1","competitive","left","1.96770906448","1824.49846697","3.03229093552","1827.67133212","2.98196315765","1830.65335393","3.01803684235","1833.70564198","1834.99777412","1835.07269907","1838.07423401","0","1838.09072995","1845.91213799",""
"sujeto_0039609","1","2","15","47","1846.05901814","direct","3","1","2","¿Cuántos discos de estudio
 grabó Johhny Cash? ","54","43","","1","1","0","competitive","right","1.90136909485","1847.96043611","3.09863090515","1851.2320981","3.28632712364","1854.51848412","2.71367287636","1857.2835331","1858.56219912","1858.63520598","1861.63820696","1","1861.65335298","1868.30421305",""
"sujeto_0039609","1","2","16","48","1868.43766499","inverse","4","1","1","¿Cuántos barrios tiene
 Montevideo? ","71","62","","0","0","1","individual","right","1.42178893089","1869.85949993","3.57821106911","1873.59452605","2.61490988731","1876.20949602","3.38509011269","1879.62779999","1880.63487315","1880.68024802","1883.68221092","0","1883.69722009","1889.159235",""
"sujeto_0039609","1","2","17","49","1889.29853606","direct","3","1","3","¿Qué edad tiene Homero Simpson?","36","42","","0","0","1","competitive","right","1.75186681747","1891.05044603","3.24813318253","1894.45454597","2.5508389473","1897.00542498","3.4491610527","1900.50549197","1901.88153315","1901.957443","1904.96042705","0","1904.97546196","1909.36419511",""
"sujeto_0039609","1","2","18","50","1909.52674794","inverse","4","1","2","¿Cuántos países con monarquía 
hay en europa actualmente? ","6","10","","1","1","1","individual","left","1.9566180706","1911.48341012","3.0433819294","1914.66634798","3.59900593758","1918.26539397","2.40099406242","1920.71756697","1922.15584803","1922.20145512","1925.20442104","1","1925.21868515","1931.37549806",""
"sujeto_0039609","1","2","19","51","1931.52010202","direct","2","1","3","¿Cuántos capítulos de
 Friends existen? ","236","228","","1","1","1","competitive","left","1.55429887772","1933.0744431","3.44570112228","1936.67587113","3.18955802917","1939.86548901","2.81044197083","1942.72770095","1944.03325295","1944.11287093","1947.11585593","1","1947.12982798","1949.50546908",""
"sujeto_0039609","1","2","20","52","1949.64852715","inverse","1","1","3","¿Cuántas óperas compuso Mozart? ","27","22","","1","1","1","competitive","left","1.767827034","1951.41641712","3.232172966","1954.80567598","3.01059389114","1957.81632304","2.98940610886","1960.834517","1962.12618613","1962.20308709","1965.20613503","1","1965.22019696","1972.53166699",""
"sujeto_0039609","1","2","21","53","1972.67163992","direct","4","1","3","¿Cuántos mundiales de fútbol 
femenino ha realizado FIFA? ","9","7","","1","1","1","competitive","right","1.81777095795","1974.48947692","3.18222904205","1977.83193302","4.54644584656","1982.37844014","1.45355415344","1983.88050508","1985.12419605","1985.19900298","1988.20198202","1","1988.21639895","1994.31886196",""
"sujeto_0039609","1","2","22","54","1994.45142698","inverse","3","1","2","¿Cuál es la temperatura 
media anual en Montevideo? ","17.5","16.3","","0","0","1","competitive","left","2.20701599121","1996.65848398","2.79298400879","1999.6266861","3.75866508484","2003.38539004","2.24133491516","2005.67720413","2007.61581206","2007.695292","2010.6982491","0","2010.71231198","2017.28185201",""
"sujeto_0039609","1","2","23","55","2017.43055105","direct","2","1","2","¿En qué año se estrenó el
 videojuego The Sims? ","2000","2002","","0","0","0","competitive","left","2.15387797356","2019.58454108","2.84612202644","2022.60473204","3.2946460247","2025.89942193","2.7053539753","2028.63895297","2030.50097513","2030.57324314","2033.57420897","0","2033.59118795","2040.98484397",""
"sujeto_0039609","1","2","24","56","2041.12548709","inverse","2","1","1","¿Cuál es la canción con 
mas covers? ","Yesterday","Stand by me","","0","0","0","individual","left","1.52695608139","2042.65251207","3.47304391861","2046.28403592","2.47632098198","2048.76040006","3.52367901802","2052.333565","2053.73209906","2053.76930809","2056.77225614","0","2056.78618813","2060.95702815",""
"sujeto_0039609","1","2","25","57","2061.08758903","direct","1","1","4","¿Cuánto duró la guerra
 de los 100 años?","116","123","","0","0","0","individual","left","1.4218378067","2062.50949407","3.5781621933","2066.24171805","3.07671880722","2069.31847811","2.92328119278","2072.27590609","2073.75674605","2073.79443002","2076.79740715","0","2076.81231403","2079.13210392",""
"sujeto_0039609","1","2","26","58","2079.26301312","inverse","4","1","4","¿Qué color tiene la  bandera de Brasil?","Amarillo","Naranja","left","0","0","1","individual","left","2.63637208939","2081.89943314","2.36362791061","2084.41934109","2.53407812119","2086.95348001","3.46592187881","2090.47004914","2092.03659296","2092.07240605","2095.0753541","1","2095.08985209","2098.12264204",""
"sujeto_0039609","1","2","27","59","2098.25784707","direct","4","1","3","¿Qué carabela de 
Colon no volvió del viaje?","Santa María","La pinta","","0","0","1","competitive","left","2.15647721291","2100.4143641","2.84352278709","2103.42900109","3.97738718987","2107.40643311","2.02261281013","2109.46470308","2110.95576","2111.03194594","2114.03418803","0","2114.04939914","2116.14886808",""
"sujeto_0039609","1","2","28","60","2116.30093813","inverse","4","1","4","¿Cuántos huesos tiene
 un adulto humano?","217","206","","0","0","1","individual","left","1.11451816559","2117.4155221","3.88548183441","2121.46907115","2.65632987022","2124.1254611","3.34367012978","2127.5208621","2128.79189897","2128.83861208","2131.84158707","0","2131.85710192","2139.6948061",""
"sujeto_0039609","1","2","29","61","2139.84170008","direct","1","1","1","¿Qué país africano fue 
fundado por esclavos?","Liberia","Chad","","0","0","0","individual","right","1.09275317192","2140.93449998","3.90724682808","2145.00128913","3.94910001755","2148.95043302","2.05089998245","2151.05233097","2153.04398298","2153.08613014","2156.08909798","0","2156.10370803","2164.09414005",""
"sujeto_0039609","1","2","30","62","2164.23872995","inverse","4","1","2","¿A cuánto asciende la cima
 del monte Everest?","7.990 mts","8.848 mts","","0","0","1","competitive","right","2.56967902184","2166.80847502","2.43032097816","2169.41309214","3.32033801079","2172.73349905","2.67966198921","2175.46421814","2176.6490891","2176.73221898","2179.73521304","0","2179.74943209","2186.93347597",""
"sujeto_0039609","1","2","31","63","2187.06827402","direct","4","1","1","¿Cuál es el país mas chico?","Sealand","Luxemburgo","","1","1","1","individual","left","1.17514395714","2188.24347997","3.82485604286","2192.22557497","2.48687696457","2194.71251011","3.51312303543","2198.27593708","2200.138134","2200.17769003","2203.18066001","1","2203.19451499","2206.31420898",""
"sujeto_0039609","1","2","32","64","2206.44699097","inverse","2","1","4","¿Cuántas pirámides hay en Egipto?","10000","11000","","1","1","1","individual","right","1.20649003983","2207.653548","3.79350996017","2211.60220313","2.36024093628","2213.96248412","3.63975906372","2217.65254712","2218.68615198","2218.72105312","2221.72220612","1","2221.73830509","2226.847363",""
"sujeto_0039609","1","3","1","65","2338.16231799","direct","2","1","2","¿Cuál es el quinto país con 
mas extensión?","Canadá","Brasil","","1","1","0","competitive","right","1.64209699631","2339.80445695","3.35790300369","2343.32004094","2.95336890221","2346.27347493","3.04663109779","2349.37029099","2350.70353508","2350.77121997","2353.77420902","1","2353.78959298","2361.51597214","2226.86222792"
"sujeto_0039609","1","3","2","66","2361.64002895","inverse","1","1","2","¿Qué rasgo facial no tiene
 la Mona Lisa?","Cejas","Pómulos","","0","0","1","competitive","left","1.43532395363","2363.07540894","3.56467604637","2366.78201008","3.01142501831","2369.79347706","2.98857498169","2372.81591797","2374.56618595","2374.63413095","2377.63710904","0","2377.65127397","2383.92261195",""
"sujeto_0039609","1","3","3","67","2384.06972694","direct","4","1","3","¿Cuál es el país con 
mayor población?","Esados Unidos","China","right","0","0","1","competitive","right","2.30372691154","2386.37351608","2.69627308846","2389.22797203","2.37244987488","2391.60046005","3.62755012512","2395.27749515","2396.92351103","2396.99587703","2399.99886012","1","2400.01311898","2403.38045096",""
"sujeto_0039609","1","3","4","68","2403.51455808","inverse","1","1","1","La palabra dinosaurio significa","Lagarto Terrible","Lagarto Dragón","","1","1","0","individual","right","1.18894696236","2404.70358396","3.81105303764","2408.66818094","4.56819987297","2413.23643804","1.43180012703","2414.72005701","2415.89037895","2415.937783","2418.93819404","1","2418.95549512","2421.81729603",""
"sujeto_0039609","1","3","5","69","2421.95704508","direct","2","1","3","¿Qué es el membrillero?","Arbol","Arbusto","","0","0","0","competitive","left","1.66938710213","2423.62649393","3.33061289787","2427.11325002","3.56907296181","2430.68236399","2.43092703819","2433.16325307","2435.11737299","2435.19790506","2438.20086312","0","2438.215137","2444.67916012",""
"sujeto_0039609","1","3","6","70","2444.83366799","inverse","3","1","3","¿Alrededor de qué planeta orbita 
el satélite Europa?","Jupiter","Saturno","","1","1","1","competitive","left","2.11874485016","2446.95245695","2.88125514984","2450.00666499","3.61370301247","2453.6204071","2.38629698753","2456.04286814","2457.58767295","2457.65970302","2460.66268611","1","2460.67820406","2462.88221192",""
"sujeto_0039609","1","3","7","71","2463.02987194","direct","3","1","1","¿Donde fue el mundial de 
fútbol de 1954?","Suiza","Suecia","","1","1","1","individual","left","1.26756596565","2464.29748511","3.73243403435","2468.18396997","3.2654569149","2471.44949508","2.7345430851","2474.23456097","2475.48717093","2475.53527713","2478.53823996","1","2478.55330205","2482.46222401",""
"sujeto_0039609","1","3","8","72","2482.60414004","inverse","1","1","4","¿Cuál de los 7 enanitos
no tenía barba?","Bashful","Mudito","","1","1","0","individual","left","2.16332983971","2484.76751208","2.83667016029","2487.77610898","2.46731996536","2490.24346995","3.53268003464","2493.82575297","2495.40589809","2495.44483304","2498.44779897","1","2498.46188402","2503.39097595",""
"sujeto_0039609","1","3","9","73","2503.53013992","direct","3","1","2","¿Cual red social es
mas utilizada mundialmente?","Instagram","Facebook","","1","1","0","competitive","right","1.37232613564","2504.90251112","3.62767386436","2508.67184615","2.39157390594","2511.06346107","3.60842609406","2514.72215414","2516.63950706","2516.70725393","2519.71022511","1","2519.72455907","2522.65821099",""
"sujeto_0039609","1","3","10","74","2522.80993199","inverse","4","1","1","¿Cuándo se inició la copa
 América de fútbol?","1916","1923","","1","1","1","individual","right","1.10948801041","2523.91948414","3.89051198959","2527.98120093","3.31022906303","2531.2914741","2.68977093697","2534.01496911","2535.91241312","2535.94979596","2538.95275211","1","2538.96768403","2541.62381005",""
"sujeto_0039609","1","3","11","75","2541.75221896","direct","3","1","4","¿Cuántos presidentes de EEUU
han muerto asesinados?","3","4","","0","0","1","individual","right","1.36721205711","2543.11947513","3.63278794289","2546.90455699","2.09390687943","2548.99853015","3.90609312057","2552.93958092","2554.42350793","2554.47431302","2557.47726512","0","2557.49243903","2561.13422298",""
"sujeto_0039609","1","3","12","76","2561.27733898","inverse","2","1","4","¿Cuántas veces participó EEUU
 en la copa América?","4","5","","0","0","1","competitive","left","1.50914692879","2562.78653407","3.49085307121","2566.41831803","3.38314080238","2569.80152607","2.61685919762","2572.46908092","2573.91320395","2573.986866","2576.98985195","0","2577.0040431","2583.12122393",""
"sujeto_0039609","1","3","13","77","2583.28893995","direct","4","1","1","¿Cuál de estos países 
no formaba la URSS?","Azeribayán","Afganistán","","0","0","1","individual","right","1.48353004456","2584.77251506","3.51646995544","2588.4629631","4.6123611927","2593.07537913","1.3876388073","2594.51444411","2595.82752299","2595.86387897","2598.86683798","0","2598.88203502","2606.86419606",""
"sujeto_0039609","1","3","14","78","2607.00035906","inverse","1","1","1","¿En qué año se inauguró
 el teatro Solís?","1867","1856","","0","0","0","individual","left","1.18408179283","2608.184484","3.81591820717","2612.15847707","3.18995308876","2615.34849811","2.81004691124","2618.20915413","2619.26545215","2619.30974793","2622.31022501","0","2622.32724214","2628.97506404",""
"sujeto_0039609","1","3","15","79","2629.11207199","direct","1","1","4","¿A qué velocidad vuela 
el avión más rápido?","3529","3874","","0","0","0","individual","right","2.20941209793","2631.32152915","2.79058790207","2634.26993394","4.25251889229","2638.52249312","1.74748110771","2640.32130408","2642.076823","2642.12126899","2645.12221909","0","2645.13891101","2647.24918914",""
"sujeto_0039609","1","3","16","80","2647.40787506","inverse","3","1","4","¿De qué año es la primer 
película cinematográfica?","1897","1888","","0","0","0","competitive","right","1.89860200882","2649.30652714","3.10139799118","2652.56009912","3.34727907181","2655.90741801","2.65272092819","2658.59511995","2659.72811508","2659.79692507","2662.79990911","0","2662.81388402","2668.22365212",""
"sujeto_0039609","1","3","17","81","2668.3656981","direct","2","1","3","¿Cuántos países 
tiene nuestro planeta?","191","194","","1","1","1","competitive","right","1.02578210831","2669.39152408","3.97421789169","2673.52323103","2.52216291428","2676.04543304","3.47783708572","2679.57332015","2680.93054605","2681.00813103","2684.01113009","1","2684.02637696","2687.2621851",""
"sujeto_0039609","1","3","18","82","2687.39421296","inverse","2","1","2","¿Cuántos habitantes
 tiene Buenos Aires?","2.9000.000","3650000","","0","0","0","competitive","left","1.10522603989","2688.49951601","3.89477396011","2692.56617713","4.00327801704","2696.56951308","1.99672198296","2698.61713815","2700.01438212","2700.08458304","2703.08756208","0","2703.10159206","2708.93098807",""
"sujeto_0039609","1","3","19","83","2709.10351396","direct","2","1","1","¿Cuántos kilos forman una tonelada?","1000","1500","left","1","1","1","individual","left","1.11998295784","2710.22356415","3.88001704216","2714.24424195","3.06719994545","2717.31150293","2.93280005455","2720.29513192","2722.18248796","2722.22996807","2725.23294497","1","2725.24704814","2731.20222592",""
"sujeto_0039609","1","3","20","84","2731.34822893","inverse","4","1","4","¿Cuántos estados tiene la 
República del Perú? ","24","23","","0","0","1","individual","right","1.69814991951","2733.04641795","3.30185008049","2736.50454402","3.23091483116","2739.73549914","2.76908516884","2742.53952312","2743.56167102","2743.60770512","2746.61021209","0","2746.62475014","2751.56620097",""
"sujeto_0039609","1","3","21","85","2751.69307709","direct","3","1","3","¿En qué año nació Cristóbal Colón? ","1451","1447","","0","0","1","competitive","right","1.3762819767","2753.06939697","3.6237180233","2756.83302593","3.54543304443","2760.37852001","2.45456695557","2762.86635303","2764.71226406","2764.78449297","2767.78620505","0","2767.80225611","2772.03021407",""
"sujeto_0039609","1","3","22","86","2772.18746805","inverse","4","1","4","¿Cuánto mide la 
Montaña Aconcagua? ","6234","6962","","0","0","1","individual","left","1.3549861908","2773.54249501","3.6450138092","2777.32603312","3.6064119339","2780.93250608","2.3935880661","2783.37730598","2784.66661906","2784.71192193","2787.71490908","0","2787.72901702","2794.91260695",""
"sujeto_0039609","1","3","23","87","2795.04677105","direct","2","1","4","¿Cuánto mide el punto
 más profundo del océano? ","12508","11003","","0","0","1","competitive","left","1.9147040844","2796.96152401","3.0852959156","2800.22082114","3.69262695312","2803.91349792","2.30737304688","2806.25594807","2807.50744796","2807.59079003","2810.5937171","0","2810.60825205","2814.81449199",""
"sujeto_0039609","1","3","24","88","2814.97579813","inverse","1","1","3","¿Cuántos álbumes ha publicado 
el cantante Jaime Roos? ","41","34","","0","0","1","competitive","left","1.0716149807","2816.04747701","3.9283850193","2820.11438394","3.17802500725","2823.29244494","2.82197499275","2826.14841795","2827.63819504","2827.71725893","2830.72023106","0","2830.73431611","2836.92622614",""
"sujeto_0039609","1","3","25","89","2837.06948495","direct","4","1","3","¿En qué año nació el 
ex-presidente Jorge Battle? ","1921","1927","","1","1","1","competitive","left","1.01397395134","2838.08352113","3.98602604866","2842.22667193","4.07772994041","2846.30444098","1.92227005959","2848.26098204","2849.991678","2850.07843208","2853.08139706","1","2853.09653592","2856.58258796",""
"sujeto_0039609","1","3","26","90","2856.71387792","inverse","1","1","3","¿Cuántas presidencias 
constitucionales  hubo en Uruguay? ","41","42","","0","0","1","competitive","left","1.01664495468","2857.73059201","3.98335504532","2861.86876202","3.75163507462","2865.62045693","2.24836492538","2867.92049313","2869.12417293","2869.2056911","2872.20867801","0","2872.22267294","2878.00629401",""
"sujeto_0039609","1","3","27","91","2878.17381501","direct","1","1","2","¿Quién escribió mas sinfonías?","Mozart","Haydn","","1","1","0","competitive","left","0.997723817825","2879.17162204","4.00227618217","2883.3306911","2.37471318245","2885.705441","3.62528681755","2889.38073397","2890.59822392","2890.66619492","2893.669173","1","2893.68327808","2897.43470597",""
"sujeto_0039609","1","3","28","92","2897.58501506","inverse","4","1","2","¿En qué año nació Michael Jackson?","1958","1953","","1","1","1","competitive","left","1.1014418602","2898.68653011","3.8985581398","2902.75764608","3.30380415916","2906.06148911","2.69619584084","2908.80848598","2910.78672314","2910.85999703","2913.86297202","1","2913.87734103","2919.73966503",""
"sujeto_0039609","1","3","29","93","2919.89145207","direct","3","1","2","¿En qué año entró en vigencia 
la ley antitabaco en Uruguay?","2005","2006","","1","1","1","competitive","right","1.0979681015","2920.98948503","3.9020318985","2925.05261493","3.33883309364","2928.39150906","2.66116690636","2931.10283613","2932.69757199","2932.77144194","2935.77421308","1","2935.78830194","2941.12221193",""
"sujeto_0039609","1","3","30","94","2941.25700903","inverse","3","1","1","¿Cuándo se subió el 
primer video a youtube?","2004","2005","","0","0","1","individual","right","1.77935791016","2943.03640699","3.22064208984","2946.4141891","2.67326378822","2949.08752203","3.32673621178","2952.46381807","2953.76948595","2953.81590605","2956.81887913","0","2956.83330894","2964.58620906",""
"sujeto_0039609","1","3","31","95","2964.71700692","direct","2","1","1","¿Cuántos habitantes tiene India?","1200 millones","1300 millones","","0","0","0","competitive","right","1.13142609596","2965.84849596","3.86857390404","2969.87521505","2.35528683662","2972.23054314","3.64471316338","2975.92604208","2977.89571095","2977.97726107","2980.98025703","0","2980.99570894","2987.04321814",""
"sujeto_0039609","1","3","32","96","2987.17919898","inverse","4","1","2","¿A qué edad murió Bob Marley?","36","37","","0","0","1","competitive","right","1.29622387886","2988.47547102","3.70377612114","2992.33740115","3.8610329628","2996.19849896","2.1389670372","2998.3709631","3000.26880193","3000.33886003","3003.3418541","0","3003.35707808","3006.45955396",""
"sujeto_0039609","1","4","1","97","3127.21642613","direct","2","1","1","¿Cuantos años dirigió la selección 
uruguaya Tabarez?","15 años","13 años","","0","0","0","individual","left","2.39819908142","3129.61467409","2.60180091858","3132.37330103","3.76019287109","3136.1335361","2.23980712891","3138.41034698","3139.60145497","3139.64454103","3142.64623308","0","3142.66160607","3149.7302351","3006.47431493"
"sujeto_0039609","1","4","2","98","3149.86358094","inverse","4","1","1","¿Cuantas teclas tiene un teclado 
de computadora generalmente? ","Entre 99 y 108","Entre 109 y 113","","1","1","1","individual","right","1.40094709396","3151.26459908","3.59905290604","3155.02052712","4.72390604019","3159.74447203","1.27609395981","3161.05532503","3162.05810213","3162.10587811","3165.10624099","1","3165.12328005","3167.49417305",""
"sujeto_0039609","1","4","3","99","3167.6241231","direct","1","1","1","¿Cuál Departamento tiene
 mayor superficie?","Río Negro","Soriano","","0","0","0","individual","left","1.2294011116","3168.85359001","3.7705988884","3172.77993393","3.72654604912","3176.50653911","2.27345395088","3178.82895708","3180.54239893","3180.57934308","3183.58227611","0","3183.597543","3187.92364001",""
"sujeto_0039609","1","4","4","100","3188.06506515","inverse","3","1","2","¿Cuál es el apellido de las 
hermanastras  de  cenicienta?","Tremaine","Truman","","0","0","1","competitive","left","1.28642511368","3189.35155606","3.71357488632","3193.24030995","3.03817391396","3196.27853012","2.96182608604","3199.29074693","3201.16029096","3201.24240112","3204.24536395","0","3204.25951004","3206.95547295",""
"sujeto_0039609","1","4","5","101","3207.11175704","direct","4","1","4","¿Cuál película ganó un
 Oscar a mejor película?","Alto Impacto","Cache","","0","0","1","competitive","left","1.11871886253","3208.2305491","3.88128113747","3212.28326702","3.53424596786","3215.81755304","2.46575403214","3218.3346231","3219.45400596","3219.53512406","3222.53812313","0","3222.55324507","3224.81784511",""
"sujeto_0039609","1","4","6","102","3224.97039413","inverse","1","1","3","¿A cuántos centímetros
equivale la medida pié?","25","30","","0","0","1","competitive","left","1.63211011887","3226.60257101","3.36788988113","3230.126297","4.1682369709","3234.29459596","1.8317630291","3236.175524","3237.21547794","3237.29278994","3240.29573894","0","3240.310642","3245.71156311",""
"sujeto_0039609","1","4","7","103","3245.86164904","direct","2","1","2","¿Qué departamento es mas grande?","Cerro Largo","Paysandú","","0","0","0","competitive","right","2.41085982323","3248.27255392","2.58914017677","3251.00184798","3.98059606552","3254.98250508","2.01940393448","3257.037848","3258.63758492","3258.72283196","3261.725811","0","3261.74032593","3265.85015893",""
"sujeto_0039609","1","4","8","104","3266.00761104","inverse","2","1","3","¿Quién pintó la Mona Lisa?","Picasso","Da Vinci","right","0","0","1","competitive","right","1.3318707943","3267.33954692","3.6681292057","3271.16430998","1.82419300079","3272.98856211","4.17580699921","3277.21349311","3278.81933403","3278.89922595","3281.90223098","1","3281.91663003","3284.07821894",""
"sujeto_0039609","1","4","9","105","3284.21860194","direct","4","1","3","¿Cuántos litros hay en un galon?","3.54","3.78","","1","1","1","competitive","right","1.04485988617","3285.26352501","3.95514011383","3289.40539503","3.54008412361","3292.94553614","2.45991587639","3295.45755601","3296.9741981","3297.05884695","3300.06180811","1","3300.07579398","3305.86814404",""
"sujeto_0039609","1","4","10","106","3306.02691197","inverse","4","1","1","¿Cuántas teclas tiene
 un piano moderno?","80","88","","0","0","1","individual","right","1.15855002403","3307.18550992","3.84144997597","3311.181113","2.45936799049","3313.64052105","3.54063200951","3317.23260903","3318.24105597","3318.28487015","3321.28783202","0","3321.30146194","3328.09816098",""
"sujeto_0039609","1","4","11","107","3328.23656607","direct","4","1","3","¿Cuántos países hay en África?","54","62","","0","0","1","competitive","left","1.64588403702","3329.88249397","3.35411596298","3333.39626193","2.91322994232","3336.30953598","3.08677005768","3339.42936206","3341.11992311","3341.19751501","3344.20047808","0","3344.21563792","3352.02038002",""
"sujeto_0039609","1","4","12","108","3352.16646004","inverse","1","1","3","¿En qué siglo se crearon
 las primeras pistolas?","XV","XIII","","1","1","1","competitive","right","0.998528957367","3353.16503906","4.00147104263","3357.32526803","3.35225701332","3360.67758393","2.64774298668","3363.37550807","3365.32221508","3365.39270401","3368.395679","1","3368.41097093","3371.64407396",""
"sujeto_0039609","1","4","13","109","3371.77905297","direct","3","1","4","¿En qué año se estrenó 
la serie friends?","1994","1995","","0","0","1","competitive","left","1.87049293518","3373.64961314","3.12950706482","3376.95323515","3.10326313972","3380.05653715","2.89673686028","3383.0007081","3384.87605","3384.95132995","3387.95432401","0","3387.96971607","3392.97579694",""
"sujeto_0039609","1","4","14","110","3393.12103605","inverse","3","1","4","¿En qué año nació Hitler?","1889","1887","","0","0","1","individual","right","1.45542907715","3394.57650304","3.54457092285","3398.2761941","3.91025018692","3402.1864841","2.08974981308","3404.31147194","3405.42582011","3405.46227813","3408.465204","0","3408.48032403","3413.50620198",""
"sujeto_0039609","1","4","15","111","3413.63136601","direct","1","1","4","¿Cuánto pesa un elefante Africano?","6000 kilos","5400 kilos","","0","0","0","individual","right","1.55613899231","3415.18755198","3.44386100769","3418.77351308","3.76292300224","3422.53647804","2.23707699776","3424.82373309","3426.17962313","3426.22538209","3429.22832108","0","3429.2424891","3435.94955111",""
"sujeto_0039609","1","4","16","112","3436.09443402","inverse","1","1","2","¿Qué porcentaje de 
la población es zurda?","10%","7%","","1","1","0","competitive","left","1.49306201935","3437.58754206","3.50693798065","3441.251683","2.78384804726","3444.03559899","3.21615195274","3447.30182195","3448.54492712","3448.62017894","3451.62316108","1","3451.63769507","3457.61421204",""
"sujeto_0039609","1","4","17","113","3457.75585914","direct","1","1","2","¿En qué año se estrenó
Volver al futuro?","1984","1985","","0","0","1","competitive","right","1.28169608116","3459.03760695","3.71830391884","3462.92934608","3.71619105339","3466.64558101","2.28380894661","3468.97955608","3470.54137301","3470.61438799","3473.61736202","0","3473.63232708","3480.72377801",""
"sujeto_0039609","1","4","18","114","3480.86617994","inverse","3","1","2","¿Cuántos jugadores hay en un 
equipo de baseball?","9","8","","1","1","0","competitive","right","1.86735200882","3482.73359513","3.13264799118","3486.05762696","3.11293005943","3489.17061901","2.88706994057","3492.09186792","3493.70616698","3493.79355192","3496.79654002","1","3496.81035113","3501.78759503",""
"sujeto_0039609","1","4","19","115","3501.92909503","direct","2","1","1","¿Cuántos Oscar ganó
 la película titanic?","13","11","","1","1","1","individual","right","1.05475497246","3502.98391604","3.94524502754","3507.08464313","2.36695408821","3509.45166302","3.63304591179","3513.13573599","3514.43776608","3514.48744607","3517.49035907","1","3517.50469398","3522.10622501",""
"sujeto_0039609","1","4","20","116","3522.28922105","inverse","4","1","4","¿En qué año comenzó
la segunda guerra mundial?","1939","1976","left","0","0","1","individual","left","1.27234387398","3523.56163096","3.72765612602","3527.42908406","2.52734589577","3529.95648909","3.47265410423","3533.46243","3535.26229811","3535.29736495","3538.29822898","1","3538.31565213","3542.30217695",""
"sujeto_0039609","1","4","21","117","3542.44992495","direct","2","1","4","¿Cuántos biomas hay en Uruguay?","5","4","","0","0","1","competitive","right","2.08262205124","3544.53259301","2.91737794876","3547.60538793","2.73710989952","3550.34253812","3.26289010048","3553.6555891","3555.45295596","3555.52397203","3558.52694702","0","3558.54118299","3564.79016614",""
"sujeto_0039609","1","4","22","118","3564.92621303","inverse","2","1","3","¿Cuándo murió Pablo Escobar?","1993","1997","","1","1","1","competitive","left","1.15232801437","3566.07858515","3.84767198563","3570.081599","2.60688495636","3572.68852115","3.39311504364","3576.13316107","3577.91601801","3577.98529696","3580.98831105","1","3581.00212407","3586.70579505",""
"sujeto_0039609","1","4","23","119","3586.8378191","direct","1","1","4","¿Qué serie ha ganado mas premios?","Friends","Murphy Brown","","1","1","0","individual","left","1.15966796875","3587.99755192","3.84033203125","3592.01225495","3.38822889328","3595.40052605","2.61177110672","3598.06263804","3599.41415811","3599.46454215","3602.46745896","1","3602.48186898","3608.04218197",""
"sujeto_0039609","1","4","24","120","3608.18337011","inverse","4","1","2","¿Cuántas fichas tiene el dominó?","26","28","","1","1","1","competitive","right","1.17519807816","3609.35863304","3.82480192184","3613.33937192","3.0481569767","3616.3875711","2.9518430233","3619.37379813","3620.42911792","3620.50786614","3623.51084805","1","3623.5253551","3628.76622009",""
"sujeto_0039609","1","4","25","121","3628.89312792","direct","2","1","4","¿Cuántos son los dientes de leche?","20","25","","0","0","1","competitive","left","2.35740494728","3631.25059605","2.64259505272","3634.05108905","2.33846092224","3636.38961506","3.66153907776","3640.10063815","3641.81102109","3641.88588309","3644.88885713","0","3644.90385413","3647.04964709",""
"sujeto_0039609","1","4","26","122","3647.17192292","inverse","3","1","3","¿Cuántos gramos son una onza?","22","28","","0","0","1","competitive","right","1.09962010384","3648.27161407","3.90037989616","3652.32408595","3.45245099068","3655.77660298","2.54754900932","3658.37569094","3660.37022209","3660.44338894","3663.44636512","0","3663.46184492","3669.75015092",""
"sujeto_0039609","1","4","27","123","3669.89667797","direct","3","1","1","¿Cuándo salió el primer album
 de los Beatles?","1963","1962","","1","1","1","individual","left","1.11892008781","3671.01566601","3.88107991219","3675.07142305","2.60811018944","3677.67958999","3.39188981056","3681.12195396","3682.28556204","3682.3231461","3685.32612395","1","3685.34025192","3689.11228395",""
"sujeto_0039609","1","4","28","124","3689.27616811","inverse","3","1","3","¿Quién fundó la empresa apple?","Carlos Slim","Steve Jobs","","1","1","1","competitive","right","1.16535210609","3690.44162297","3.83464789391","3694.43112206","1.77544307709","3696.20660496","4.22455692291","3700.48129511","3701.59597301","3701.6666081","3704.66959596","1","3704.68364215","3710.98148203",""
"sujeto_0039609","1","4","29","125","3711.11862803","direct","4","1","2","¿Cuántos municipios hay
 en Montevideo?","8","7","","1","1","1","competitive","left","1.25689387321","3712.37559104","3.74310612679","3716.27606606","3.41738820076","3719.69351697","2.58261179924","3722.32648301","3724.24126792","3724.31121111","3727.31420398","1","3727.32939792","3729.4102211",""
"sujeto_0039609","1","4","30","126","3729.59717512","inverse","1","1","1","¿Cuántos kilómetros hay
 de Montevideo a Artigas?","632","599","","0","0","0","competitive","left","0.927382946014","3730.52460694","4.07261705399","3734.75260806","3.50092816353","3738.25360298","2.49907183647","3740.80272293","3742.28585005","3742.3546381","3745.35760307","0","3745.37185502","3751.42396593",""
"sujeto_0039609","1","4","31","127","3751.55658007","direct","2","1","2","¿En qué año nació 
Leonardo Da Vinci?","1452","1511","","1","1","0","competitive","right","1.09694814682","3752.65359712","3.90305185318","3756.71350598","2.33803200722","3759.05159998","3.66196799278","3762.76329803","3764.61691093","3764.69915295","3767.70215297","1","3767.71627903","3770.86269307",""
"sujeto_0039609","1","4","32","128","3771.01779294","inverse","3","1","1","¿A qué continente
 pertenece el país Gabón?","Africa","Oceanía","","0","0","1","individual","left","1.48171806335","3772.49955392","3.51828193665","3776.17453003","2.64102196693","3778.815593","3.35897803307","3782.22356606","3784.03419805","3784.07560301","3787.07820797","0","3787.09326506","3792.33116508",""
