"code","nro_aplicante","nro_bloque","nro_trial_bloque","nro_trial_global","show_game_type","choice_order","rival","pay_individual","pay_competitive","question","answer_left_text","answer_right_text","correct_answer","outcome_individual","outcome_competitive","outcome_rival","game_type","answer","social_time","rt_game_type","feedback_delay","show_question","answer_time","rt_answer_global","feedback_delay_2","show_jitter","jitter_time","show_outcome","outcome_time","outcome_participant_real","show_final_jitter","second_jitter_time","inicio_descanso"
"sujeto_0027033","1","1","1","1","625.647985935","direct","3","1","4","¿Cuántos centímetros corresponden
al talle 36 del calzado?","23","24",,"0","0","1","competitive",,"3.37425708771","629.02228713","1.62574291229","630.786947012","6","636.787084103","0","636.805174112","637.833465099","637.905359983","640.90832305","0","640.923424959","643.085976124",
"sujeto_0027033","1","1","2","2","643.224133968","inverse","3","1","2","¿Cuántas metros mide la Intendencia
Municipal de Montevideo? ","84","78",,"0","0","1","competitive","left","1.52916407585","644.75336504","3.47083592415","648.362571001","4.41172885895","652.774361134","1.58827114105","654.397156","656.275197983","656.347621918","659.350589037","0","659.366181135","661.458934069",
"sujeto_0027033","1","1","3","3","661.585169077","direct","1","1","3","¿Cuántas La Pasiva
 hay en uruguay?","15","11",,"1","1","1","competitive","right","2.63705611229","664.222289085","2.36294388771","666.754765987","5.91951084137","672.674339056","0.0804891586304","672.807457924","674.419075012","674.491110086","677.494094133","1","677.508158922","681.786499023",
"sujeto_0027033","1","1","4","4","681.925502062","inverse","3","1","3","¿De que color es la camiseta de uruguay?","blanca","celeste","right","1","1","1","competitive","right","1.75878691673","683.684355021","3.24121308327","687.066086054","4.54916501045","691.615314007","1.45083498955","693.117826939","694.322571039","694.401658058","697.404083967","1","697.418205023","700.872113943",
"sujeto_0027033","1","1","5","5","701.021839142","direct","2","1","1","¿Cuánto metros mide
la torre Eiffel?","333","324",,"1","1","1","competitive","left","1.55350589752","702.575412035","3.44649410248","706.175729036","4.94353890419","711.119329929","1.05646109581","712.210093975","713.731473923","713.81100297","716.813996077","1","716.828407049","723.865108013",
"sujeto_0027033","1","1","6","6","723.997869015","inverse","3","1","4","¿Cuantas ciudades existen
 en todo el uruguay?","63","72",,"0","0","1","competitive","right","1.60037302971","725.598280907","3.39962697029","729.154926062","4.67437601089","733.829365015","1.32562398911","735.188668966","736.243499041","736.322529078","739.324091911","0","739.340738058","746.967324018",
"sujeto_0027033","1","1","7","7","747.097470999","direct","1","1","1","¿Cuantos estados tiene África?","52","54",,"1","1","0","competitive","right","1.57388591766","748.671423912","3.42611408234","752.249490023","5.93677210808","758.186326027","0.063227891922","758.301363945","760.165389061","760.234698057","763.237679958","1","763.251723051","769.012740135",
"sujeto_0027033","1","1","8","8","769.154359102","inverse","4","1","4","¿En qué año nació
 Stephen Hawking?","1952","1942",,"0","0","1","competitive","left","1.25302004814","770.407422066","3.74697995186","774.293805122","3.939494133","778.233344078","2.060505867","780.328629971","781.772912979","781.846359968","784.849318027","0","784.863398075","790.962758064",
"sujeto_0027033","1","1","9","9","791.100955009","direct","2","1","3","¿Cuánto años tenía Artigas
 cuando se fue a Paraguay?","56","57",,"1","1","1","competitive","left","1.39943981171","792.500469923","3.60056018829","796.252471924","4.92484807968","801.177360058","1.07515192032","802.288670063","803.838139057","803.923063993","806.926084995","1","806.940279961","812.987590075",
"sujeto_0027033","1","1","10","10","813.143321991","inverse","1","1","2","¿Cuantos milímetros 
mide una hoja A2?","420x592","420x594",,"0","0","1","competitive","left","2.1720700264","815.315469027","2.8279299736","818.300934076","4.69730210304","822.998270988","1.30269789696","824.352193117","825.920608997","826.002345085","829.005301952","0","829.019747019","836.093375921",
"sujeto_0027033","1","1","11","11","836.226031065","direct","3","1","3","¿Cuál es la menor temperatura 
registrada en Uruguay?","-5.4","-7.4",,"0","0","1","competitive","right","1.30740118027","837.533509016","3.69259881973","841.379089117","4.93028712273","846.309438944","1.06971287727","847.429724932","849.111771107","849.197603941","852.200577021","0","852.215055943","855.948333979",
"sujeto_0027033","1","1","12","12","856.08468008","inverse","2","1","2","¿Cuantos años hace que 
se fundó facebook?","18","17",,"0","0","0","competitive","left","1.16874313354","857.253467083","3.83125686646","861.239382029","4.70194387436","865.94137001","1.29805612564","867.290344954","868.663085938","868.740962982","871.743955135","0","871.758175135","874.532084942",
"sujeto_0027033","1","1","13","13","874.660926104","direct","1","1","4","¿Cuál animal es más
 pesado en promedio?","Rinoceronte","Hipopotamo",,"0","0","0","competitive",,"1.28849101067","875.949465036","3.71150898933","879.86293292","6","885.863080978","0","885.878777027","886.958003044","887.032130957","890.035131931","0","890.049611092","893.888081074",
"sujeto_0027033","1","1","14","14","894.02010107","inverse","1","1","2","¿Qué personaje de dragon ball 
murió más veces?","Chaoz","Krillin",,"1","1","0","competitive","left","2.7142970562","896.734447002","2.2857029438","899.173548937","4.49682307243","903.670413017","1.50317692757","905.210346937","906.668170929","906.744178057","909.747168064","1","909.761414051","917.534316063",
"sujeto_0027033","1","1","15","15","917.666594982","direct","3","1","2","La universidad de oxford. 
existe desde:","1096","1249",,"1","1","0","competitive","right","1.57785081863","919.244511127","3.42214918137","922.820812941","5.69655704498","928.51741004","0.303442955017","928.856202126","929.905025005","929.988801003","932.99178195","1","933.006151915","939.697008133",
"sujeto_0027033","1","1","16","16","939.827603102","inverse","3","1","1","¿Qué escritor latino ganó antes
 el premio nobel?"," García Marquez","Neruda",,"0","0","1","competitive","left","1.43582701683","941.263502121","3.56417298317","944.982520103","5.22292995453","950.205523968","0.777070045471","951.016680956","952.756679058","952.833724022","955.836693048","0","955.851869106","959.312371969",
"sujeto_0027033","1","1","17","17","959.453515053","direct","4","1","3","¿Cuántos dientes tiene un
 tiburón blanco?","6000","3000",,"0","0","1","competitive","left","1.6449110508","961.09849596","3.3550889492","964.609542131","5.26198196411","969.871591091","0.738018035889","970.644311905","971.683254004","971.760586023","974.76354003","0","974.778036118","979.587672949",
"sujeto_0027033","1","1","18","18","979.712429047","inverse","4","1","1","¿Cuánto mide el paralelo Ecuador?","40.000km","70.000km",,"0","0","1","competitive","right","1.24902391434","980.961518049","3.75097608566","984.868816137","4.60964512825","989.47852397","1.39035487175","990.903507948","992.859580994","992.93738699","995.94000411","0","995.955393076","999.556083918",
"sujeto_0027033","1","1","19","19","999.69165206","direct","4","1","2","¿Cuál fue el primer libro 
de Stephen King?","Carrie","The Stand",,"1","1","1","competitive",,"0.95307803154","1000.64479494","4.04692196846","1004.86281514","6","1010.86297202","0","1010.87826109","1012.62234402","1012.69811392","1015.70108294","0","1015.71637011","1020.19081712",
"sujeto_0027033","1","1","20","20","1020.31982803","inverse","2","1","3","¿Qué civilización practicaba
 la momificación?","Grecia","Egipto","right","0","0","1","competitive","left","1.09867501259","1021.41854596","3.90132498741","1025.47179413","5.96866989136","1031.44050407","0.0313301086426","1031.52525902","1033.46407604","1033.54197311","1036.54407811","0","1036.55929494","1040.78811598",
"sujeto_0027033","1","1","21","21","1040.92780709","direct","4","1","4","¿Cuántos millones de visitas
 recibe google por minuto?","3.0","4.5",,"0","0","1","competitive","right","1.51573300362","1042.443609","3.48426699638","1046.10123491","4.66017198563","1050.76147509","1.33982801437","1052.134866","1053.64970803","1053.73620701","1056.739218","0","1056.75342011","1063.87607408",
"sujeto_0027033","1","1","22","22","1064.00886011","inverse","1","1","3","La máquina de fax. se inventó en:","1843","1960",,"0","0","1","competitive","left","1.69658017159","1065.70548296","3.30341982841","1069.16277313","5.06071805954","1074.22353697","0.93928194046","1075.1979351","1076.44001913","1076.51430798","1079.51729298","0","1079.53178406","1082.76809096",
"sujeto_0027033","1","1","23","23","1082.90044498","direct","2","1","4","En la verdadera historia de los
 300 espartanos. habían:","300 soldados","4300 soldados",,"1","1","1","competitive","right","1.77308702469","1084.67357612","3.22691297531","1088.05610514","5.83536911011","1093.89151406","0.164630889893","1094.1074841","1095.36807394","1095.44090104","1098.44388294","1","1098.45787096","1102.25606799",
"sujeto_0027033","1","1","24","24","1102.39323401","inverse","1","1","4","¿Cuántos milímetros crece
 el pelo por día?","0.4","0.04",,"0","0","0","competitive","left","1.76629281044","1104.15959096","3.23370718956","1107.54921794","3.98931384087","1111.5385921","2.01068615913","1113.60091114","1115.36007595","1115.43434","1118.43612003","0","1118.45256805","1125.18762612",
"sujeto_0027033","1","1","25","25","1125.34086394","direct","4","1","1","¿Cuánto mide la baldosa gris 
clásica de Montevideo?","22x22 cm.","20x20 cm.",,"1","1","1","competitive","left","1.64462399483","1126.98553014","3.35537600517","1130.49407411","4.56344914436","1135.05758691","1.43655085564","1136.54526305","1138.54046106","1138.61236906","1141.61535811","1","1141.63060212","1147.17206001",
"sujeto_0027033","1","1","26","26","1147.2984941","inverse","2","1","2","¿Cuántas películas de rápidos
 y furiosos hay?","10","11",,"1","1","0","competitive","right","1.51505112648","1148.81361198","3.48494887352","1152.43926907","3.74525499344","1156.18458414","2.25474500656","1158.47287512","1159.83084202","1159.90798497","1162.91094995","1","1162.92513108","1164.95978713",
"sujeto_0027033","1","1","27","27","1165.11009693","direct","3","1","1","¿Cuántos masters 1000
 ganó Del Potro?","1","2",,"1","1","1","competitive","right","1.19345092773","1166.30361509","3.80654907227","1170.26436901","4.34522199631","1174.60963702","1.65477800369","1176.29954314","1178.05416203","1178.13287497","1181.13585305","1","1181.15103602","1188.5473721",
"sujeto_0027033","1","1","28","28","1188.68616009","inverse","2","1","4","¿Cuántos meses dura el 
embarazo de una leona?","3 meses","4 meses",,"0","0","1","competitive","right","1.15042901039","1189.83665609","3.84957098961","1193.84064412","5.76190209389","1199.60259008","0.238097906113","1199.87743807","1200.98804307","1201.07002091","1204.07299995","0","1204.09466696","1210.81605697",
"sujeto_0027033","1","1","29","29","1210.94585609","direct","1","1","1","¿En qué año fue creado
 el sandwich?","1762","1653",,"1","1","0","competitive","left","2.41869306564","1213.36459494","2.58130693436","1216.12102509","4.40746498108","1220.52855301","1.59253501892","1222.17389393","1223.77242804","1223.84074998","1226.84373498","1","1226.85800314","1230.32863402",
"sujeto_0027033","1","1","30","30","1230.45998597","inverse","4","1","2","El nombre de la moneda de Vietnam es:","Dinar","Dong",,"0","0","1","competitive",,"1.12959289551","1231.58962202","3.87040710449","1235.61487412","6","1241.6149931","0","1241.63036013","1243.06235504","1243.15016007","1246.15314102","0","1246.16769099","1252.33607697",
"sujeto_0027033","1","1","31","31","1252.47207308","direct","2","1","1","¿cuantos aleteos puede dar 
un colibrí por segundo?","120","50",,"0","0","0","competitive","left","1.40651202202","1253.87863302","3.59348797798","1257.60971308","5.37479710579","1262.98454905","0.625202894211","1263.64502406","1265.37605906","1265.44488907","1268.44786811","0","1268.46297193","1272.67524314",
"sujeto_0027033","1","1","32","32","1272.81403708","inverse","4","1","3","¿Qué altura promedio tienen
 los hombres uruguayos?","1.73 m","1.72 m",,"1","1","1","competitive","right","1.16055703163","1273.97463703","3.83944296837","1277.95074606","5.18380212784","1283.13458514","0.816197872162","1284.00335813","1285.26573896","1285.33729792","1288.34007812","1","1288.35459208","1292.82807612",
"sujeto_0027033","1","2","1","33","1415.25556207","direct","1","1","1","¿En qué año nació 
el actor Bradd Pitt?","1967","1963",,"1","1","1","competitive","right","1.26908612251","1416.5246911","3.73091387749","1420.40745711","3.98726606369","1424.39476395","2.01273393631","1426.45942903","1427.55528307","1427.62722301","1430.6280551","1","1430.644557","1436.57215595","1292.83977699"
"sujeto_0027033","1","2","2","34","1436.7145021","inverse","2","1","1","¿Cual es el segundo 
monte más alto?","Kanchenjunga","K2",,"1","1","1","competitive","right","2.58615112305","1439.30069709","2.41384887695","1441.90287495","4.93581485748","1446.83875203","1.06418514252","1447.95641112","1449.40882206","1449.49035311","1452.49208999","1","1452.50755811","1455.93746209",
"sujeto_0027033","1","2","3","35","1456.07711411","direct","3","1","1","¿Cuándo finalizó la construcción
 del Palacio Legislativo?","1925","1917",,"0","0","1","competitive","left","1.37059116364","1457.44777513","3.62940883636","1461.23102593","5.46764802933","1466.69873405","0.532351970673","1467.28277111","1468.92451906","1469.00006104","1472.00302505","0","1472.01733708","1477.71487212",
"sujeto_0027033","1","2","4","36","1477.85226607","inverse","3","1","3","¿Cuántos integrantes tenía
 en su inicio  el cuarteto de nos?","3","4",,"1","1","1","competitive","left","1.04745602608","1478.89976597","3.95254397392","1482.99259806","5.45208120346","1488.44474101","0.547918796539","1489.04385495","1490.17694902","1490.24446392","1493.24744701","1","1493.26161098","1498.91142201",
"sujeto_0027033","1","2","5","37","1499.04846907","direct","2","1","3","¿Qué valor tiene el número pi?","3.14","4.18","left","0","0","1","competitive","left","1.30124616623","1500.3497591","3.69875383377","1504.20058513","4.0001270771","1508.20079207","1.9998729229","1510.25256896","1511.70674896","1511.78711891","1514.79011011","1","1514.80434704","1521.72533011",
"sujeto_0027033","1","2","6","38","1521.85591412","inverse","2","1","2","¿Cuál es la esperanza de vida
 en Uruguay?","75","77",,"1","1","0","competitive","left","1.26486301422","1523.12084103","3.73513698578","1527.0155201","4.90922808647","1531.92478991","1.09077191353","1533.04931903","1534.70314407","1534.78402305","1537.78701901","1","1537.80134511","1544.26403594",
"sujeto_0027033","1","2","7","39","1544.40248203","direct","1","1","2","¿Cuantos pisos tiene la torre 
de las comunicaciones?","26","32",,"1","1","0","competitive",,"1.77427577972","1546.17682314","3.22572422028","1549.56025791","6","1555.560395","0","1555.57583094","1557.40402794","1557.479213","1560.48219204","0","1560.49640894","1562.642591",
"sujeto_0027033","1","2","8","40","1562.78097892","inverse","2","1","4","¿En qué país sudamericano 
no hay McDonalds?","Bolivia","Venezuela",,"0","0","1","competitive","right","1.1578040123","1563.93883204","3.8421959877","1567.91922808","4.58255314827","1572.50182104","1.41744685173","1573.97073197","1575.28006196","1575.35468411","1578.35763812","0","1578.37161899","1584.731354",
"sujeto_0027033","1","2","9","41","1584.85683799","direct","3","1","1","¿En qué año empieza
 la Edad Media?","476","512",,"1","1","1","competitive","left","2.36792492867","1587.22480798","2.63207507133","1590.04835701","4.34744501114","1594.39584494","1.65255498886","1596.08223605","1597.48596907","1597.5663681","1600.56934905","1","1600.58361411","1603.57208109",
"sujeto_0027033","1","2","10","42","1603.71899295","inverse","3","1","4","¿Hace cuántos años surgió
 el ser humano?","200mil","300mil",,"0","0","0","competitive","left","1.07785201073","1604.79691696","3.92214798927","1608.87388301","4.45594501495","1613.32989192","1.54405498505","1614.92535591","1616.81142306","1616.89248896","1619.89547706","0","1619.90986705","1623.22033906",
"sujeto_0027033","1","2","11","43","1623.37995505","direct","3","1","4","¿Cuántas cuadras tiene
 actualmente 18 de julio? ","36","33",,"0","0","1","competitive","left","1.18586301804","1624.56589413","3.81413698196","1628.51716208","5.01956915855","1633.5368011","0.980430841446","1634.56889701","1636.27112699","1636.35306597","1639.35606098","0","1639.37031913","1644.096591",
"sujeto_0027033","1","2","12","44","1644.23737192","inverse","1","1","4","¿Qué juego de equipo se 
considera mas rápido?","Lacrosse","Badminton",,"0","0","0","competitive","left","1.17641210556","1645.41382813","3.82358789444","1649.39274096","5.22306203842","1654.61584401","0.776937961578","1655.42895794","1656.67206407","1656.74579501","1659.74873805","0","1659.7638011","1667.75895905",
"sujeto_0027033","1","2","13","45","1667.886765","direct","1","1","3","¿Qué promedio de edad 
vive una jirafa? ","25","20",,"0","0","1","competitive","left","1.51407384872","1669.40088391","3.48592615128","1673.04053497","4.75020503998","1677.79079914","1.24979496002","1679.09205699","1680.85359192","1680.92628312","1683.92926002","0","1683.94352698","1689.89923906",
"sujeto_0027033","1","2","14","46","1690.03160691","inverse","1","1","2","¿Cuántos grandes lagos hay?","7","5",,"0","0","1","competitive","left","1.02220010757","1691.05385113","3.97779989243","1695.16853499","4.33529400826","1699.50389004","1.66470599174","1701.21929193","1702.51142406","1702.58709812","1705.59009695","0","1705.60431814","1713.42568111",
"sujeto_0027033","1","2","15","47","1713.5548811","direct","3","1","2","¿Cuántos discos de estudio
 grabó Johhny Cash? ","54","43",,"1","1","0","competitive","left","1.47598314285","1715.03091002","3.52401685715","1718.71391296","5.13489198685","1723.84887004","0.865108013153","1724.76497412","1726.04362512","1726.13187814","1729.13485694","1","1729.14929605","1735.80021906",
"sujeto_0027033","1","2","16","48","1735.93571711","inverse","4","1","1","¿Cuántos barrios tiene
 Montevideo? ","71","62",,"0","0","1","competitive","right","1.45215702057","1737.38792706","3.54784297943","1741.10880399","4.38096189499","1745.48982501","1.61903810501","1747.14273596","1748.149791","1748.22791505","1751.23093796","0","1751.24495792","1756.70699596",
"sujeto_0027033","1","2","17","49","1756.86289001","direct","3","1","3","¿Qué edad tiene Homero Simpson?","36","42",,"0","0","1","competitive","right","1.56996297836","1758.43291712","3.43003702164","1762.02017093","4.49362802505","1766.51384497","1.50637197495","1768.05317402","1769.4291811","1769.50415301","1772.50713491","0","1772.521281","1776.91003299",
"sujeto_0027033","1","2","18","50","1777.05863094","inverse","4","1","2","¿Cuántos países con monarquía 
hay en europa actualmente? ","6","10",,"1","1","1","competitive","left","1.13420391083","1778.19287705","3.86579608917","1782.23025703","4.80062580109","1787.03095198","1.19937419891","1788.281497","1789.7197721","1789.79767895","1792.80067992","1","1792.81616902","1798.97299409",
"sujeto_0027033","1","2","19","51","1799.12041712","direct","2","1","3","¿Cuántos capítulos de
 Friends existen? ","236","228",,"1","1","1","competitive","right","1.29238796234","1800.41284513","3.70761203766","1804.27389002","5.96591281891","1810.23986006","0.0340871810913","1810.32644105","1811.63199997","1811.70988607","1814.71283507","1","1814.72708702","1817.10269904",
"sujeto_0027033","1","2","20","52","1817.22852898","inverse","1","1","3","¿Cuántas óperas compuso Mozart? ","27","22",,"1","1","1","competitive","right","1.39435505867","1818.62294912","3.60564494133","1822.38397193","5.0299448967","1827.41398191","0.970055103302","1828.41863704","1829.71073294","1829.78573108","1832.78870511","1","1832.80299997","1840.11446691",
"sujeto_0027033","1","2","21","53","1840.25838494","direct","4","1","3","¿Cuántos mundiales de fútbol 
femenino ha realizado FIFA? ","9","7",,"1","1","1","competitive","right","1.05155396461","1841.30998397","3.94844603539","1845.4097321","5.0611269474","1850.47092009","0.938873052597","1851.44541192","1852.68912101","1852.76254606","1855.76554513","1","1855.78006411","1861.88252711",
"sujeto_0027033","1","2","22","54","1862.0517261","inverse","3","1","2","¿Cuál es la temperatura 
media anual en Montevideo? ","17.5","16.3",,"0","0","1","competitive","left","0.890177965164","1862.94197607","4.10982203484","1867.22366095","5.14322304726","1872.36695313","0.856776952744","1873.25796103","1875.19657993","1875.27538109","1878.27606511","0","1878.29365611","1884.86009192",
"sujeto_0027033","1","2","23","55","1884.99436903","direct","2","1","2","¿En qué año se estrenó el
 videojuego The Sims? ","2000","2002",,"0","0","0","competitive","left","1.19454288483","1886.18897796","3.80545711517","1890.15226912","4.73467111588","1894.88698697","1.26532888412","1896.203861","1898.0658741","1898.13745403","1901.14043999","0","1901.15479493","1908.54844594",
"sujeto_0027033","1","2","24","56","1908.67336512","inverse","2","1","1","¿Cuál es la canción con 
mas covers? ","Yesterday","Stand by me",,"0","0","0","competitive","right","1.09759902954","1909.771034","3.90240097046","1913.83125305","5.60073113441","1919.43202591","0.399268865585","1919.882972","1921.28147912","1921.36600804","1924.36805201","0","1924.38444114","1928.555269",
"sujeto_0027033","1","2","25","57","1928.68499899","direct","1","1","4","¿Cuánto duró la guerra
 de los 100 años?","116","123",,"0","0","0","competitive","left","1.16701292992","1929.85208797","3.83298707008","1933.84125304","4.09860706329","1937.93990302","1.90139293671","1939.89234495","1941.37203193","1941.44344807","1944.44405413","0","1944.46114802","1946.78090191",
"sujeto_0027033","1","2","26","58","1946.92955613","inverse","4","1","4","¿Qué color tiene la  bandera de Brasil?","Amarillo","Naranja","left","0","0","1","competitive","left","1.16436004639","1948.09395909","3.83563995361","1952.10088992","4.56604409218","1956.66697598","1.43395590782","1958.15209007","1959.71855402","1959.80289912","1962.80585408","1","1962.82000613","1965.85276794",
"sujeto_0027033","1","2","27","59","1965.98791409","direct","4","1","3","¿Qué carabela de 
Colon no volvió del viaje?","Santa María","La pinta",,"0","0","1","competitive",,"1.31906104088","1967.30701995","3.68093895912","1971.14446592","6","1977.14461493","0","1977.15908504","1978.65013504","1978.72944307","1981.73241806","0","1981.74681497","1983.84628701",
"sujeto_0027033","1","2","28","60","1983.98115611","inverse","4","1","4","¿Cuántos huesos tiene
 un adulto humano?","217","206",,"0","0","1","competitive","right","1.66676902771","1985.64799905","3.33323097229","1989.11953902","2.86940002441","1991.98900008","3.13059997559","1995.16934299","1996.44002604","1996.52100301","1999.52398801","0","1999.53782797","2007.37208104",
"sujeto_0027033","1","2","29","61","2007.50548601","direct","1","1","1","¿Qué país africano fue 
fundado por esclavos?","Liberia","Chad",,"0","0","0","competitive","right","1.34647393227","2008.85200906","3.65352606773","2012.66200113","5.8249361515","2018.48700595","0.175063848495","2018.698668","2020.69032407","2020.76492214","2023.76787305","0","2023.78309202","2031.7664721",
"sujeto_0027033","1","2","30","62","2031.90485191","inverse","4","1","2","¿A cuánto asciende la cima
 del monte Everest?","7.990 mts","8.848 mts",,"0","0","1","competitive","left","1.20617890358","2033.11107898","3.79382109642","2037.06113791","5.45186495781","2042.51304507","0.548135042191","2043.11296892","2044.2977879","2044.37941504","2047.38003993","0","2047.39661503","2054.58003592",
"sujeto_0027033","1","2","31","63","2054.71474504","direct","4","1","1","¿Cuál es el país mas chico?","Sealand","Luxemburgo",,"1","1","1","competitive","left","1.23127579689","2055.946069","3.76872420311","2059.87384295","5.49214100838","2065.36604214","0.507858991623","2065.90823507","2067.77177191","2067.85843301","2070.861408","1","2070.87565994","2073.99791908",
"sujeto_0027033","1","2","32","64","2074.12755013","inverse","2","1","4","¿Cuántas pirámides hay en Egipto?","10000","11000",,"1","1","1","competitive","left","1.29946398735","2075.42707992","3.70053601265","2079.28302813","4.13996505737","2083.42303801","1.86003494263","2085.317307","2086.35085607","2086.43456793","2089.43754792","1","2089.45151806","2094.56058693",
"sujeto_0027033","1","3","1","65","2217.18521094","direct","2","1","2","¿Cuál es el quinto país con 
mas extensión?","Canadá","Brasil",,"1","1","0","competitive",,"1.00096702576","2218.18624902","3.99903297424","2222.33955312","6","2228.33968592","0","2228.35499811","2229.68824911","2229.75842214","2232.76139212","0","2232.77529311","2240.50167513","2094.57232594"
"sujeto_0027033","1","3","2","66","2240.64331508","inverse","1","1","2","¿Qué rasgo facial no tiene
 la Mona Lisa?","Cejas","Pómulos",,"0","0","1","competitive","right","1.29681921005","2241.94017911","3.70318078995","2245.78452897","5.88459897041","2251.66919112","0.115401029587","2251.83673096","2253.58712506","2253.67079711","2256.67378092","0","2256.68781209","2262.95913696",
"sujeto_0027033","1","3","3","67","2263.10634494","direct","4","1","3","¿Cuál es el país con 
mayor población?","Esados Unidos","China","right","0","0","1","competitive","right","0.940206050873","2264.04667091","4.05979394913","2268.26381612","4.44129896164","2272.70515895","1.55870103836","2274.29732704","2275.94333792","2276.01485896","2279.017838","1","2279.03192997","2282.39928102",
"sujeto_0027033","1","3","4","68","2282.53404307","inverse","1","1","1","La palabra dinosaurio significa","Lagarto Terrible","Lagarto Dragón",,"1","1","0","competitive",,"1.13813519478","2283.67222309","3.86186480522","2287.67341304","6","2293.67353392","0","2293.68877006","2294.85907912","2294.94227099","2297.94525599","0","2297.95975208","2300.82157397",
"sujeto_0027033","1","3","5","69","2300.961128","direct","2","1","3","¿Qué es el membrillero?","Arbol","Arbusto",,"0","0","0","competitive","right","1.16896700859","2302.13013911","3.83103299141","2306.11582303","5.32627797127","2311.44214797","0.673722028732","2312.15115309","2314.10405612","2314.18496394","2317.18794012","0","2317.20192409","2323.6659441",
"sujeto_0027033","1","3","6","70","2323.80352402","inverse","3","1","3","¿Alrededor de qué planeta orbita 
el satélite Europa?","Jupiter","Saturno",,"1","1","1","competitive",,"1.01158690453","2324.8152101","3.98841309547","2328.95995402","6","2334.96010208","0","2334.97683907","2336.52165198","2336.59658599","2339.59954095","0","2339.61348701","2341.81865311",
"sujeto_0027033","1","3","7","71","2341.96645308","direct","3","1","1","¿Donde fue el mundial de 
fútbol de 1954?","Suiza","Suecia",,"1","1","1","competitive","right","1.12269210815","2343.089185","3.87730789185","2347.12006402","4.41906285286","2351.53917098","1.58093714714","2353.17202091","2354.42461205","2354.50623798","2357.509238","1","2357.52283311","2361.43460512",
"sujeto_0027033","1","3","8","72","2361.57625103","inverse","1","1","4","¿Cuál de los 7 enanitos
no tenía barba?","Bashful","Mudito",,"1","1","0","competitive","right","0.955862998962","2362.53218007","4.04413700104","2366.730232","5.95792889595","2372.6882031","0.0420711040497","2372.76629305","2374.34637713","2374.41624093","2377.419168","1","2377.43328404","2382.36002302",
"sujeto_0027033","1","3","9","73","2382.51771402","direct","3","1","2","¿Cual red social es
mas utilizada mundialmente?","Instagram","Facebook",,"1","1","0","competitive","left","0.959511995316","2383.47732997","4.04048800468","2387.67472601","3.60741400719","2391.28220105","2.39258599281","2393.70844293","2395.62581706","2395.71063495","2398.71361113","1","2398.72767401","2401.66215491",
"sujeto_0027033","1","3","10","74","2401.79589009","inverse","4","1","1","¿Cuándo se inició la copa
 América de fútbol?","1916","1923",,"1","1","1","competitive","right","0.931296110153","2402.72725201","4.06870388985","2406.96833801","4.92587184906","2411.89425206","1.07412815094","2413.00306892","2414.90052414","2414.96964312","2417.97203708","1","2417.98750901","2420.64360905",
"sujeto_0027033","1","3","11","75","2420.77266312","direct","3","1","4","¿Cuántos presidentes de EEUU
han muerto asesinados?","3","4",,"0","0","1","competitive","left","1.02552509308","2421.79825592","3.97447490692","2425.9284761","4.7027130127","2430.63126302","1.2972869873","2431.97987604","2433.46380091","2433.54689002","2436.54987502","0","2436.56413913","2440.20824409",
"sujeto_0027033","1","3","12","76","2440.34895205","inverse","2","1","4","¿Cuántas veces participó EEUU
 en la copa América?","4","5",,"0","0","1","competitive","left","1.14624118805","2441.49524212","3.85375881195","2445.50509501","4.39005303383","2449.89518404","1.60994696617","2451.55583191","2452.9999671","2453.07382202","2456.07604098","0","2456.09130311","2462.20847392",
"sujeto_0027033","1","3","13","77","2462.34225798","direct","4","1","1","¿Cuál de estos países 
no formaba la URSS?","Azeribayán","Afganistán",,"0","0","1","competitive","right","0.931001901627","2463.27332902","4.06899809837","2467.49958491","5.61560797691","2473.1152401","0.384392023087","2473.55112696","2474.86402011","2474.93426013","2477.93723607","0","2477.95155907","2485.93370104",
"sujeto_0027033","1","3","14","78","2486.08759308","inverse","1","1","1","¿En qué año se inauguró
 el teatro Solís?","1867","1856",,"0","0","0","competitive","left","1.44659900665","2487.53425694","3.55340099335","2491.24505496","5.05816197395","2496.30328107","0.941838026047","2497.2797401","2498.3360281","2498.41393805","2501.41692591","0","2501.43038201","2508.07817602",
"sujeto_0027033","1","3","15","79","2508.21571493","direct","1","1","4","¿A qué velocidad vuela 
el avión más rápido?","3529","3874",,"0","0","0","competitive","right","0.9285800457","2509.14434004","4.0714199543","2513.38963103","5.30761480331","2518.69731903","0.692385196686","2519.42381907","2521.17933297","2521.25810409","2524.26044011","0","2524.27588511","2526.38611913",
"sujeto_0027033","1","3","16","80","2526.52711391","inverse","3","1","4","¿De qué año es la primer 
película cinematográfica?","1897","1888",,"0","0","0","competitive","left","0.849112033844","2527.37628913","4.15088796616","2531.69907594","4.56916093826","2536.26827908","1.43083906174","2537.75050902","2538.883461","2538.9677341","2541.97072792","0","2541.98476291","2547.39449596",
"sujeto_0027033","1","3","17","81","2547.57137108","direct","2","1","3","¿Cuántos países 
tiene nuestro planeta?","191","194",,"1","1","1","competitive","right","1.52492499352","2549.09636497","3.47507500648","2552.72711706","5.09411215782","2557.82127595","0.905887842178","2558.76130414","2560.11852598","2560.19512296","2563.19808197","1","2563.21229291","2566.44807911",
"sujeto_0027033","1","3","18","82","2566.58253193","inverse","2","1","2","¿Cuántos habitantes
 tiene Buenos Aires?","2.9000.000","3650000",,"0","0","0","competitive","left","1.24968695641","2567.83228993","3.75031304359","2571.73658514","3.89073109627","2575.62735701","2.10926890373","2577.78786802","2579.18512011","2579.25533295","2582.256073","0","2582.27261496","2588.10200191",
"sujeto_0027033","1","3","19","83","2588.24231505","direct","2","1","1","¿Cuántos kilos forman una tonelada?","1000","1500","left","1","1","1","competitive","left","1.07300114632","2589.31536007","3.92699885368","2593.38035393","3.63691592216","2597.01730895","2.36308407784","2599.43117309","2601.31848407","2601.39893794","2604.40192008","1","2604.41714811","2610.37209392",
"sujeto_0027033","1","3","20","84","2610.50176907","inverse","4","1","4","¿Cuántos estados tiene la 
República del Perú? ","24","23",,"0","0","1","competitive","left","0.93657708168","2611.43845701","4.06342291832","2615.65924811","4.85201001167","2620.51132607","1.14798998833","2621.71029711","2622.73208094","2622.810426","2625.81340599","0","2625.82835793","2630.77200198",
"sujeto_0027033","1","3","21","85","2630.91237211","direct","3","1","3","¿En qué año nació Cristóbal Colón? ","1451","1447",,"0","0","1","competitive","right","1.07698106766","2631.98942208","3.92301893234","2636.06690407","3.47239112854","2639.53934002","2.52760887146","2642.11874294","2643.96465302","2644.03703809","2647.0400331","0","2647.05460191","2651.28009391",
"sujeto_0027033","1","3","22","86","2651.40532398","inverse","4","1","4","¿Cuánto mide la 
Montaña Aconcagua? ","6234","6962",,"0","0","1","competitive","left","1.0080268383","2652.41339707","3.9919731617","2656.56375813","4.73855090141","2661.30237794","1.26144909859","2662.61430192","2663.90366602","2663.98194909","2666.98408604","0","2666.99951911","2674.18314004",
"sujeto_0027033","1","3","23","87","2674.31724501","direct","2","1","4","¿Cuánto mide el punto
 más profundo del océano? ","12508","11003",,"0","0","1","competitive","right","1.46913790703","2675.78645992","3.53086209297","2679.47501802","5.62426710129","2685.09934592","0.375732898712","2685.51018906","2686.76168299","2686.84332204","2689.84625602","0","2689.86132312","2694.06411004",
"sujeto_0027033","1","3","24","88","2694.19645214","inverse","1","1","3","¿Cuántos álbumes ha publicado 
el cantante Jaime Roos? ","41","34",,"0","0","1","competitive","left","1.93189191818","2696.12841797","3.06810808182","2699.35281801","5.33443403244","2704.68730903","0.66556596756","2705.40356302","2706.89338493","2706.97104502","2709.97405791","0","2709.98808002","2716.18418193",
"sujeto_0027033","1","3","25","89","2716.32341599","direct","4","1","3","¿En qué año nació el 
ex-presidente Jorge Battle? ","1921","1927",,"1","1","1","competitive","left","1.12095999718","2717.44442391","3.87904000282","2721.47656393","3.33774805069","2724.81437898","2.66225194931","2727.52837706","2729.25907111","2729.32998204","2732.33296704","1","2732.34746003","2735.83351302",
"sujeto_0027033","1","3","26","90","2735.96604395","inverse","1","1","3","¿Cuántas presidencias 
constitucionales  hubo en Uruguay? ","41","42",,"0","0","1","competitive","right","1.05034399033","2737.01643205","3.94965600967","2741.12434912","4.55499196053","2745.67938209","1.44500803947","2747.17493391","2748.378685","2748.45944905","2751.46243095","0","2751.47575903","2757.25609303",
"sujeto_0027033","1","3","27","91","2757.39411402","direct","1","1","2","¿Quién escribió mas sinfonías?","Mozart","Haydn",,"1","1","0","competitive","left","1.17628502846","2758.57046604","3.82371497154","2762.53499603","4.19340586662","2766.72846508","1.80659413338","2768.56895113","2769.78643298","2769.86947393","2772.87245893","1","2772.88773203","2776.63916302",
"sujeto_0027033","1","3","28","92","2776.78919196","inverse","4","1","2","¿En qué año nació Michael Jackson?","1958","1953",,"1","1","1","competitive","left","1.0391728878","2777.82841611","3.9608271122","2781.94334102","4.10802388191","2786.05140805","1.89197611809","2787.97865391","2789.95688796","2790.03036213","2793.03333092","1","2793.04738593","2798.90971994",
"sujeto_0027033","1","3","29","93","2799.04942298","direct","3","1","2","¿En qué año entró en vigencia 
la ley antitabaco en Uruguay?","2005","2006",,"1","1","1","competitive",,"0.931955814362","2799.98144197","4.06804418564","2804.22281098","6","2810.2229321","0","2810.2374649","2811.83215714","2811.90810394","2814.91111708","0","2814.92532611","2820.25930595",
"sujeto_0027033","1","3","30","94","2820.39335608","inverse","3","1","1","¿Cuándo se subió el 
primer video a youtube?","2004","2005",,"0","0","1","competitive","right","1.24809002876","2821.64151406","3.75190997124","2825.55086112","4.58649492264","2830.13742304","1.41350507736","2831.60152006","2832.90720391","2832.98562908","2835.98861098","0","2836.00256801","2843.7581861",
"sujeto_0027033","1","3","31","95","2843.88778996","direct","2","1","1","¿Cuántos habitantes tiene India?","1200 millones","1300 millones",,"0","0","0","competitive","right","0.952626943588","2844.84052396","4.04737305641","2849.06242895","3.77297902107","2852.83546901","2.22702097893","2855.1139071","2857.08350205","2857.16483212","2860.1678381","0","2860.18216395","2866.22963095",
"sujeto_0027033","1","3","32","96","2866.36648393","inverse","4","1","2","¿A qué edad murió Bob Marley?","36","37",,"0","0","1","competitive","left","0.873948097229","2867.24051309","4.12605190277","2871.52396202","5.11046290398","2876.63446808","0.889537096024","2877.55873108","2879.45658803","2879.54327798","2882.54623914","0","2882.56026292","2885.66272998",
"sujeto_0027033","1","4","1","97","3012.46128511","direct","2","1","1","¿Cuantos años dirigió la selección 
uruguaya Tabarez?","15 años","13 años",,"0","0","0","competitive","left","1.30618000031","3013.76752901","3.69381999969","3017.61552405","4.62800312042","3022.24359012","1.37199687958","3023.66680694","3024.85795712","3024.93417311","3027.93715906","0","3027.95140314","3035.02131009","2885.67410612"
"sujeto_0027033","1","4","2","98","3035.16930199","inverse","4","1","1","¿Cuantas teclas tiene un teclado 
de computadora generalmente? ","Entre 99 y 108","Entre 109 y 113",,"1","1","1","competitive","left","0.976259946823","3036.14560699","4.02374005318","3040.34482598","5.73133778572","3046.07624602","0.268662214279","3046.39599609","3047.39871693","3047.47945213","3050.48240209","1","3050.49655199","3052.86802506",
"sujeto_0027033","1","4","3","99","3053.050035","direct","1","1","1","¿Cuál Departamento tiene
 mayor superficie?","Río Negro","Soriano",,"0","0","0","competitive","left","0.923499822617","3053.97361493","4.07650017738","3058.20359898","4.99889993668","3063.20253897","1.00110006332","3064.25475907","3065.96824408","3066.03886795","3069.04183102","0","3069.05601811","3073.38007307",
"sujeto_0027033","1","4","4","100","3073.50753212","inverse","3","1","2","¿Cuál es el apellido de las 
hermanastras  de  cenicienta?","Tremaine","Truman",,"0","0","1","competitive",,"1.18202209473","3074.68959904","3.81797790527","3078.66430807","6","3084.6644311","0","3084.67981696","3086.54935002","3086.63218307","3089.63517213","0","3089.65077591","3092.34668708",
"sujeto_0027033","1","4","5","101","3092.48543596","direct","4","1","4","¿Cuál película ganó un
 Oscar a mejor película?","Alto Impacto","Cache",,"0","0","1","competitive","left","0.898154973984","3093.38363504","4.10184502602","3097.65685105","4.42865514755","3102.08556795","1.57134485245","3103.708112","3104.82748699","3104.90883613","3107.91181898","0","3107.92591906","3110.19055104",
"sujeto_0027033","1","4","6","102","3110.32827401","inverse","1","1","3","¿A cuántos centímetros
equivale la medida pié?","25","30",,"0","0","1","competitive","right","0.943297863007","3111.27162504","4.05670213699","3115.48207903","4.8044719696","3120.28661513","1.1955280304","3121.53459597","3122.57455993","3122.65168095","3125.65462995","0","3125.66898799","3131.06807899",
"sujeto_0027033","1","4","7","103","3131.20319605","direct","2","1","2","¿Qué departamento es mas grande?","Cerro Largo","Paysandú",,"0","0","0","competitive","left","1.05436587334","3132.25763392","3.94563412666","3136.34315395","0.110399007797","3136.45361495","5.8896009922","3142.39226604","3143.99203706","3144.06233191","3147.06405807","0","3147.07964206","3151.18807912",
"sujeto_0027033","1","4","8","104","3151.33164811","inverse","2","1","3","¿Quién pintó la Mona Lisa?","Picasso","Da Vinci","right","0","0","1","competitive",,"3.13688015938","3154.46859407","1.86311984062","3156.47102809","6","3162.47115207","0","3162.48884702","3164.09472799","3164.17290497","3167.17588997","0","3167.19110394","3169.35338593",
"sujeto_0027033","1","4","9","105","3169.49257207","direct","4","1","3","¿Cuántos litros hay en un galon?","3.54","3.78",,"1","1","1","competitive","left","1.39002394676","3170.88265991","3.60997605324","3174.64676404","5.11478495598","3179.76161194","0.885215044022","3180.69813895","3182.21602106","3182.29911613","3185.30007291","1","3185.31655407","3191.10890198",
"sujeto_0027033","1","4","10","106","3191.26745701","inverse","4","1","1","¿Cuántas teclas tiene
 un piano moderno?","80","88",,"0","0","1","competitive","right","1.68014597893","3192.94767308","3.31985402107","3196.42465091","4.71694898605","3201.14164805","1.28305101395","3202.476156","3203.48460007","3203.5602541","3206.56326699","0","3206.57655597","3213.37432909",
"sujeto_0027033","1","4","11","107","3213.51185298","direct","4","1","3","¿Cuántos países hay en África?","54","62",,"0","0","1","competitive","left","1.58173704147","3215.09363699","3.41826295853","3218.66931891","3.10030603409","3221.76968813","2.89969396591","3224.72047901","3226.41101098","3226.48773313","3229.49070692","0","3229.50495911","3237.30972409",
"sujeto_0027033","1","4","12","108","3237.44032097","inverse","1","1","3","¿En qué siglo se crearon
 las primeras pistolas?","XV","XIII",,"1","1","1","competitive","left","1.00929689407","3238.44966197","3.99070310593","3242.59857798","4.53303599358","3247.1316781","1.46696400642","3248.6492691","3250.59718299","3250.66730094","3253.67027497","1","3253.68422103","3256.91605306",
"sujeto_0027033","1","4","13","109","3257.05325508","direct","3","1","4","¿En qué año se estrenó 
la serie friends?","1994","1995",,"0","0","1","competitive","right","1.01700520515","3258.07040191","3.98299479485","3262.22270393","4.32796692848","3266.550735","1.67203307152","3268.25785899","3270.13319993","3270.20912504","3273.212111","0","3273.22659993","3278.2326231",
"sujeto_0027033","1","4","14","110","3278.37867904","inverse","3","1","4","¿En qué año nació Hitler?","1889","1887",,"0","0","1","competitive","left","0.835989952087","3279.21473694","4.16401004791","3283.51922512","4.0853099823","3287.60457301","1.9146900177","3289.57004809","3290.68445706","3290.75447893","3293.75604892","0","3293.77154493","3298.79848695",
"sujeto_0027033","1","4","15","111","3298.94009113","direct","1","1","4","¿Cuánto pesa un elefante Africano?","6000 kilos","5400 kilos",,"0","0","0","competitive","right","0.848019123077","3299.78822398","4.15198087692","3304.11315298","4.22049999237","3308.33369398","1.77950000763","3310.16506505","3311.52007914","3311.598454","3314.60009313","0","3314.61547303","3321.32251692",
"sujeto_0027033","1","4","16","112","3321.46742201","inverse","1","1","2","¿Qué porcentaje de 
la población es zurda?","10%","7%",,"1","1","0","competitive","left","0.813242912292","3322.28073812","4.18675708771","3326.64104009","4.50959897041","3331.15070295","1.49040102959","3332.67655492","3333.919662","3333.99291897","3336.9958961","1","3337.01096511","3342.99070191",
"sujeto_0027033","1","4","17","113","3343.12943411","direct","1","1","2","¿En qué año se estrenó
Volver al futuro?","1984","1985",,"0","0","1","competitive","left","0.986274957657","3344.11575413","4.01372504234","3348.28560996","4.6319539547","3352.91760206","1.3680460453","3354.33756614","3355.89940596","3355.97164798","3358.97458005","0","3358.98852706","3366.07998896",
"sujeto_0027033","1","4","18","114","3366.20659399","inverse","3","1","2","¿Cuántos jugadores hay en un 
equipo de baseball?","9","8",,"1","1","0","competitive","right","0.971143007278","3367.17778301","4.02885699272","3371.36400104","5.30970692635","3376.67374992","0.690293073654","3377.39925599","3379.01353192","3379.08351398","3382.08649302","1","3382.10087299","3387.07811809",
"sujeto_0027033","1","4","19","115","3387.21910405","direct","2","1","1","¿Cuántos Oscar ganó
 la película titanic?","13","11",,"1","1","1","competitive","right","1.13553023338","3388.35467696","3.86446976662","3392.35947204","3.82218408585","3396.18172407","2.17781591415","3398.41053104","3399.71257496","3399.79443407","3402.79605103","1","3402.81158495","3407.41424513",
"sujeto_0027033","1","4","20","116","3407.57930803","inverse","4","1","4","¿En qué año comenzó
la segunda guerra mundial?","1939","1976","left","0","0","1","competitive","left","1.05138778687","3408.63076711","3.94861221313","3412.7360611","5.46765804291","3418.20377994","0.532341957092","3418.78796792","3420.58780408","3420.67150998","3423.67450309","1","3423.68843102","3427.67555714",
"sujeto_0027033","1","4","21","117","3427.80730891","direct","2","1","4","¿Cuántos biomas hay en Uruguay?","5","4",,"0","0","1","competitive","right","0.92441701889","3428.73177409","4.07558298111","3432.96001291","5.04862999916","3438.00868297","0.951370000839","3438.99714708","3440.79448605","3440.88063502","3443.88359213","0","3443.89854598","3450.14799404",
"sujeto_0027033","1","4","22","118","3450.30017495","inverse","2","1","3","¿Cuándo murió Pablo Escobar?","1993","1997",,"1","1","1","competitive","left","1.22756791115","3451.52781796","3.77243208885","3455.45783997","4.62881684303","3460.086725","1.37118315697","3461.49236298","3463.27521205","3463.35990596","3466.36289811","1","3466.37715006","3472.08082104",
"sujeto_0027033","1","4","23","119","3472.21273303","direct","1","1","4","¿Qué serie ha ganado mas premios?","Friends","Murphy Brown",,"1","1","0","competitive","left","0.979244947433","3473.19204998","4.02075505257","3477.38643312","4.69929409027","3482.08579397","1.30070590973","3483.43733811","3484.78972697","3484.87147999","3487.87206697","1","3487.88868308","3493.45030499",
"sujeto_0027033","1","4","24","120","3493.59008312","inverse","4","1","2","¿Cuántas fichas tiene el dominó?","26","28",,"1","1","1","competitive","left","1.0026910305","3494.59284902","3.9973089695","3498.74672413","4.47204613686","3503.21881294","1.52795386314","3504.79787207","3505.85316491","3505.93244505","3508.9354341","1","3508.94953299","3514.19261193",
"sujeto_0027033","1","4","25","121","3514.33416009","direct","2","1","4","¿Cuántos son los dientes de leche?","20","25",,"0","0","1","competitive","right","0.927590847015","3515.26185894","4.07240915298","3519.50638509","4.03933310509","3523.54577899","1.96066689491","3525.55896497","3527.26814294","3527.34305","3530.3460319","0","3530.36000609","3532.50569797",
"sujeto_0027033","1","4","26","122","3532.64532495","inverse","3","1","3","¿Cuántos gramos son una onza?","22","28",,"0","0","1","competitive","left","1.60649085045","3534.25188208","3.39350914955","3537.80065608","4.31915211678","3542.11987209","1.68084788322","3543.85221004","3545.847049","3545.91925097","3548.92223907","0","3548.93651199","3555.22674108",
"sujeto_0027033","1","4","27","123","3555.3718431","direct","3","1","1","¿Cuándo salió el primer album
 de los Beatles?","1963","1962",,"1","1","1","competitive","left","3.66790795326","3559.0398221","1.33209204674","3560.52933908","4.68740916252","3565.21679091","1.31259083748","3566.58091092","3567.74457002","3567.81453609","3570.81754494","1","3570.83183193","3574.603827",
"sujeto_0027033","1","4","28","124","3574.78339291","inverse","3","1","3","¿Quién fundó la empresa apple?","Carlos Slim","Steve Jobs",,"1","1","1","competitive",,"0.995353937149","3575.77881908","4.00464606285","3579.93869901","6","3585.93883991","0","3585.9542501","3587.06889296","3587.14101291","3590.14396906","0","3590.15768313","3596.45204711",
"sujeto_0027033","1","4","29","125","3596.62627411","direct","4","1","2","¿Cuántos municipios hay
 en Montevideo?","8","7",,"1","1","1","competitive","right","1.87562012672","3598.50197005","3.12437987328","3601.80054808","5.3462240696","3607.14681792","0.653775930405","3607.83540511","3609.75018811","3609.83590603","3612.83888507","1","3612.85304213","3614.93419099",
"sujeto_0027033","1","4","30","126","3615.07127213","inverse","1","1","1","¿Cuántos kilómetros hay
 de Montevideo a Artigas?","632","599",,"0","0","0","competitive","right","0.929573059082","3616.00092101","4.07042694092","3620.22611094","5.8416929245","3626.06784606","0.1583070755","3626.26198602","3627.74513602","3627.82855701","3630.83156395","0","3630.84594297","3636.89806008",
"sujeto_0027033","1","4","31","127","3637.03023601","direct","2","1","2","¿En qué año nació 
Leonardo Da Vinci?","1452","1511",,"1","1","0","competitive","left","1.16752505302","3638.19783401","3.83247494698","3642.18810797","2.96563005447","3645.15378213","3.03436994553","3648.23811412","3650.09170008","3650.1729641","3653.17597699","1","3653.19103599","3656.33744407",
"sujeto_0027033","1","4","32","128","3656.47522211","inverse","3","1","1","¿A qué continente
 pertenece el país Gabón?","Africa","Oceanía",,"0","0","1","competitive","right","0.988003969193","3657.46330309","4.01199603081","3661.61257601","5.27125000954","3666.88388896","0.728749990463","3667.66504598","3669.47668004","3669.54888296","3672.55185914","0","3672.56703091","3677.80492711",
