"code","nro_aplicante","nro_bloque","nro_trial_bloque","nro_trial_global","show_game_type","choice_order","rival","pay_individual","pay_competitive","question","answer_left_text","answer_right_text","correct_answer","outcome_individual","outcome_competitive","outcome_rival","game_type","answer","social_time","rt_game_type","feedback_delay","show_question","answer_time","rt_answer_global","feedback_delay_2","show_jitter","jitter_time","show_outcome","outcome_time","outcome_participant_real","show_final_jitter","second_jitter_time","inicio_descanso"
"sujeto_0066360","1","1","1","1","627.567674875","direct","3","1","4","¿Cuántos centímetros corresponden
al talle 36 del calzado?","23","24","","0","0","1","competitive","left","2.54473185539","630.112468958","2.45526814461","632.739100933","4.19625210762","636.93542099","1.80374789238","638.788117886","639.816279888","639.889561892","642.892256021","0","642.906317949","645.068267822",""
"sujeto_0066360","1","1","2","2","645.225246906","inverse","3","1","2","¿Cuántas metros mide la Intendencia
Municipal de Montevideo? ","84","78","","0","0","1","competitive","left","3.6841108799","648.909422874","1.3158891201","650.36518383","3.77420401573","654.139428854","2.22579598427","656.41658783","658.29458189","658.367328882","661.370237827","0","661.38419199","663.47694993",""
"sujeto_0066360","1","1","3","3","663.620147943","direct","1","1","3","¿Cuántas La Pasiva
 hay en uruguay?","15","11","","1","1","1","competitive","right","2.29126501083","665.911482811","2.70873498917","668.774714947","3.5096821785","672.284459829","2.4903178215","674.807454824","676.419107914","676.492117882","679.495100975","1","679.510048866","683.788331985",""
"sujeto_0066360","1","1","4","4","683.928205967","inverse","3","1","3","¿De que color es la camiseta de uruguay?","blanca","celeste","right","1","1","1","competitive","right","1.84218406677","685.770454884","3.15781593323","689.085729837","2.64766097069","691.733457804","3.35233902931","695.134795904","696.339555979","696.419946909","699.422911882","1","699.437054873","702.8909688",""
"sujeto_0066360","1","1","5","5","703.039354801","direct","2","1","1","¿Cuánto metros mide
la torre Eiffel?","333","324","","1","1","1","competitive","right","2.46602988243","705.50542593","2.53397011757","708.194175005","2.95422196388","711.148458004","3.04577803612","714.245851994","715.767202854","715.847059011","718.850040913","1","718.864163876","725.900254011",""
"sujeto_0066360","1","1","6","6","726.048750877","inverse","3","1","4","¿Cuantas ciudades existen
 en todo el uruguay?","63","72","","0","0","1","competitive","right","2.35067105293","728.399487972","2.64932894707","731.221385002","4.2129201889","735.434373856","1.7870798111","737.257924795","738.312690973","738.392869949","741.395844936","0","741.408940792","749.035531998",""
"sujeto_0066360","1","1","7","7","749.176776886","direct","1","1","1","¿Cuantos estados tiene África?","52","54","","1","1","0","competitive","left","2.22956490517","751.406386852","2.77043509483","754.333798885","3.32052302361","757.65438199","2.67947697639","760.384996891","762.248289824","762.320232868","765.323186874","1","765.337181807","771.096307993",""
"sujeto_0066360","1","1","8","8","771.272562981","inverse","4","1","4","¿En qué año nació
 Stephen Hawking?","1952","1942","","0","0","1","competitive","left","2.79379010201","774.066423893","2.20620989799","776.426301003","3.38310599327","779.809472799","2.61689400673","782.46248579","783.906790972","783.981346846","786.984318018","0","786.998488903","793.096337795",""
"sujeto_0066360","1","1","9","9","793.233085871","direct","2","1","3","¿Cuánto años tenía Artigas
 cuando se fue a Paraguay?","56","57","","1","1","1","competitive","right","2.56228089333","795.795436859","2.43771910667","798.390501976","3.70687818527","802.097423792","2.29312181473","804.442219019","805.991732836","806.076447964","809.079430819","1","809.093813896","815.141126871",""
"sujeto_0066360","1","1","10","10","815.295605898","inverse","1","1","2","¿Cuantos milímetros 
mide una hoja A2?","420x592","420x594","","0","0","1","competitive","right","1.74878311157","817.044454813","3.25121688843","820.453245878","4.97607088089","825.429354906","1.02392911911","826.487191916","828.055595875","828.137678862","831.140262842","0","831.155327797","838.228971004",""
"sujeto_0066360","1","1","11","11","838.37306881","direct","3","1","3","¿Cuál es la menor temperatura 
registrada en Uruguay?","-5.4","-7.4","","0","0","1","competitive","right","2.20028305054","840.573400974","2.79971694946","843.546755791","4.14156198502","847.688377857","1.85843801498","849.599506855","851.281515837","851.350190878","854.352264881","0","854.367218971","858.100263834",""
"sujeto_0066360","1","1","12","12","858.252990007","inverse","2","1","2","¿Cuantos años hace que 
se fundó facebook?","18","17","","0","0","0","competitive","right","1.39843297005","859.65149188","3.60156702995","863.406366825","4.66800785065","868.07441783","1.33199214935","869.45823288","870.830942869","870.90879488","873.911782026","0","873.925998926","876.700632811",""
"sujeto_0066360","1","1","13","13","876.844611883","direct","1","1","4","¿Cuál animal es más
 pesado en promedio?","Rinoceronte","Hipopotamo","","0","0","0","competitive","right","1.52975487709","878.374430895","3.47024512291","882.034156799","3.14623808861","885.180452824","2.85376191139","888.084020853","889.163218021","889.236457825","892.239450932","0","892.252704859","896.0937078",""
"sujeto_0066360","1","1","14","14","896.25471282","inverse","1","1","2","¿Qué personaje de dragon ball 
murió más veces?","Chaoz","Krillin","","1","1","0","competitive","right","1.84468889236","898.09946394","3.15531110764","901.444634914","4.6517188549","906.096413851","1.3482811451","907.495109797","908.95293498","909.029102802","912.032085896","1","912.046973944","919.81991601",""
"sujeto_0066360","1","1","15","15","919.948593855","direct","3","1","2","La universidad de oxford. 
existe desde:","1096","1249","","1","1","0","competitive","right","2.04077506065","921.989439011","2.95922493935","925.107905865","5.34940695763","930.457351923","0.650593042374","931.157295942","932.206102848","932.273868799","935.276854992","1","935.291484833","941.980265856",""
"sujeto_0066360","1","1","16","16","942.126425982","inverse","3","1","1","¿Qué escritor latino ganó antes
 el premio nobel?"," García Marquez","Neruda","","0","0","1","competitive","right","3.81395697594","945.940447807","1.18604302406","947.28508687","3.94629192352","951.231421947","2.05370807648","953.335636854","955.075581789","955.153264999","958.156219006","0","958.170275927","961.62825489",""
"sujeto_0066360","1","1","17","17","961.772503853","direct","4","1","3","¿Cuántos dientes tiene un
 tiburón blanco?","6000","3000","","0","0","1","competitive","right","3.51784801483","965.290395975","1.48215198517","966.961442947","3.90195012093","970.863456011","2.09804987907","973.012619972","974.051576853","974.130433798","977.133421898","0","977.146431923","981.956118822",""
"sujeto_0066360","1","1","18","18","982.098956823","inverse","4","1","1","¿Cuánto mide el paralelo Ecuador?","40.000km","70.000km","","0","0","1","individual","left","3.40441894531","985.503441811","1.59558105469","987.255047798","3.50330495834","990.758414984","2.49669504166","993.305596828","995.26167202","995.307658911","998.310586929","0","998.324457884","1001.92702889",""
"sujeto_0066360","1","1","19","19","1002.07648587","direct","4","1","2","¿Cuál fue el primer libro 
de Stephen King?","Carrie","The Stand","","1","1","1","competitive","right","1.47688984871","1003.55344081","3.52311015129","1007.23056698","2.74174714088","1009.97237086","3.25825285912","1013.26541901","1015.00952196","1015.08382297","1018.08427691","1","1018.10137796","1022.57226586",""
"sujeto_0066360","1","1","20","20","1022.7196238","inverse","2","1","3","¿Qué civilización practicaba
 la momificación?","Grecia","Egipto","right","0","0","1","competitive","right","2.14467191696","1024.86435294","2.85532808304","1027.87552691","3.36387491226","1031.23944592","2.63612508774","1033.909971","1035.84925079","1035.92778182","1038.93076491","1","1038.94577479","1043.17456293",""
"sujeto_0066360","1","1","21","21","1043.31430984","direct","4","1","4","¿Cuántos millones de visitas
 recibe google por minuto?","3.0","4.5","","0","0","1","competitive","left","1.95313000679","1045.2675159","3.04686999321","1048.46994686","4.06036996841","1052.53035784","1.93963003159","1054.50491691","1056.01979089","1056.10479093","1059.10774684","0","1059.12307692","1066.24575591",""
"sujeto_0066360","1","1","22","22","1066.3912828","inverse","1","1","3","La máquina de fax. se inventó en:","1843","1960","","0","0","1","competitive","left","1.90318703651","1068.29454279","3.09681296349","1071.54909682","5.47328901291","1077.0224309","0.526710987091","1077.58398294","1078.82608891","1078.9000659","1081.90304399","0","1081.91798091","1085.15426803",""
"sujeto_0066360","1","1","23","23","1085.28545189","direct","2","1","4","En la verdadera historia de los
 300 espartanos. habían:","300 soldados","4300 soldados","","1","1","1","competitive","","2.60598301888","1087.89156389","2.39401698112","1090.47313786","6","1096.47326493","0","1096.49129081","1097.75253797","1097.82663798","1100.82958984","0","1100.84458494","1104.64632988",""
"sujeto_0066360","1","1","24","24","1104.77914286","inverse","1","1","4","¿Cuántos milímetros crece
 el pelo por día?","0.4","0.04","","0","0","0","competitive","left","1.84425997734","1106.62346888","3.15574002266","1109.9353919","2.83593583107","1112.771384","3.16406416893","1115.98523784","1117.74595785","1117.82060981","1120.82355499","0","1120.83766389","1127.57226896",""
"sujeto_0066360","1","1","25","25","1127.72351193","direct","4","1","1","¿Cuánto mide la baldosa gris 
clásica de Montevideo?","22x22 cm.","20x20 cm.","","1","1","1","competitive","right","2.24291396141","1129.96653199","2.75708603859","1132.89537001","4.49392104149","1137.38932586","1.50607895851","1138.93129587","1140.92653394","1140.99876499","1144.00174379","1","1144.01672888","1149.55624199",""
"sujeto_0066360","1","1","26","26","1149.70122695","inverse","2","1","2","¿Cuántas películas de rápidos
 y furiosos hay?","10","11","","1","1","0","competitive","right","1.7911632061","1151.49243498","3.2088367939","1154.85813785","3.81923508644","1158.67743897","2.18076491356","1160.90841699","1162.26644087","1162.34292102","1165.34429193","1","1165.36020088","1167.39490795",""
"sujeto_0066360","1","1","27","27","1167.52942085","direct","3","1","1","¿Cuántos masters 1000
 ganó Del Potro?","1","2","","1","1","1","competitive","right","2.27307105064","1169.80256081","2.72692894936","1172.68396091","3.98043394089","1176.664464","2.01956605911","1178.73223901","1180.48685288","1180.56687999","1183.56985784","1","1183.58505893","1190.98031592",""
"sujeto_0066360","1","1","28","28","1191.11936402","inverse","2","1","4","¿Cuántos meses dura el 
embarazo de una leona?","3 meses","4 meses","","0","0","1","competitive","right","1.58001708984","1192.69942188","3.41998291016","1196.279387","3.79896092415","1200.078408","2.20103907585","1202.32988381","1203.44096494","1203.51507688","1206.51806283","0","1206.53221488","1213.25470495",""
"sujeto_0066360","1","1","29","29","1213.41680002","direct","1","1","1","¿En qué año fue creado
 el sandwich?","1762","1653","","1","1","0","competitive","right","2.00760293007","1215.424474","2.99239706993","1218.57431293","3.81398582458","1222.38835597","2.18601417542","1224.60887098","1226.20741296","1226.27630091","1229.2792778","1","1229.29350591","1232.76415396",""
"sujeto_0066360","1","1","30","30","1232.89489293","inverse","4","1","2","El nombre de la moneda de Vietnam es:","Dinar","Dong","","0","0","1","competitive","right","2.56253480911","1235.45749402","2.43746519089","1238.04972386","4.21468806267","1242.26447392","1.78531193733","1244.08550382","1245.51630092","1245.58643389","1248.58831","0","1248.60316896","1254.77160001",""
"sujeto_0066360","1","1","31","31","1254.93879986","direct","2","1","1","¿cuantos aleteos puede dar 
un colibrí por segundo?","120","50","","0","0","0","competitive","left","1.88666701317","1256.82553387","3.11333298683","1260.09595895","5.41543722153","1265.51143694","0.584562778473","1266.14520001","1267.87760282","1267.96292591","1270.96591401","0","1270.980088","1275.19234085",""
"sujeto_0066360","1","1","32","32","1275.3483758","inverse","4","1","3","¿Qué altura promedio tienen
 los hombres uruguayos?","1.73 m","1.72 m","","1","1","1","competitive","right","2.52808499336","1277.87651396","2.47191500664","1280.521312","3.15015506744","1283.67150879","2.84984493256","1286.57283688","1287.83523202","1287.90852189","1290.91149592","1","1290.92574096","1295.40029597",""
"sujeto_0066360","1","2","1","33","1440.91997099","direct","1","1","1","¿En qué año nació 
el actor Bradd Pitt?","1967","1963","","1","1","1","competitive","right","2.38337898254","1443.30338788","2.61662101746","1446.09014082","4.64130997658","1450.73151493","1.35869002342","1452.14242887","1453.23825598","1453.30934","1456.31226683","1","1456.32643294","1462.25227284","1295.41524792"
"sujeto_0066360","1","2","2","34","1462.39501882","inverse","2","1","1","¿Cual es el segundo 
monte más alto?","Kanchenjunga","K2","","1","1","1","competitive","left","1.6173889637","1464.01244998","3.3826110363","1467.56920481","3.82616496086","1471.39540792","2.17383503914","1473.60289288","1475.0552659","1475.13810992","1478.14108992","1","1478.15500593","1481.58483696",""
"sujeto_0066360","1","2","3","35","1481.72290397","direct","3","1","1","¿Cuándo finalizó la construcción
 del Palacio Legislativo?","1925","1917","","0","0","1","competitive","right","1.8504550457","1483.57339597","3.1495449543","1486.89622402","3.17222714424","1490.06851101","2.82777285576","1492.94476986","1494.58644795","1494.66281796","1497.66431284","0","1497.68037081","1503.37792897",""
"sujeto_0066360","1","2","4","36","1503.53168488","inverse","3","1","3","¿Cuántos integrantes tenía
 en su inicio  el cuarteto de nos?","3","4","","1","1","1","competitive","right","1.69480895996","1505.2265408","3.30519104004","1508.6908958","3.60954904556","1512.30048394","2.39045095444","1514.72371697","1515.85629582","1515.9423008","1518.94526291","1","1518.95940089","1524.60829186",""
"sujeto_0066360","1","2","5","37","1524.74460196","direct","2","1","3","¿Qué valor tiene el número pi?","3.14","4.18","left","0","0","1","competitive","left","1.53379011154","1526.27845287","3.46620988846","1529.90154481","3.83281493187","1533.73442602","2.16718506813","1535.95208693","1537.40628695","1537.48609185","1540.4890728","1","1540.50318289","1547.42418385",""
"sujeto_0066360","1","2","6","38","1547.55550098","inverse","2","1","2","¿Cuál es la esperanza de vida
 en Uruguay?","75","77","","1","1","0","competitive","left","1.92194914818","1549.47751594","3.07805085182","1552.73055792","3.31187582016","1556.04250383","2.68812417984","1558.762465","1560.41626787","1560.49744582","1563.50041795","1","1563.51424193","1569.97629285",""
"sujeto_0066360","1","2","7","39","1570.11687088","direct","1","1","2","¿Cuantos pisos tiene la torre 
de las comunicaciones?","26","32","","1","1","0","competitive","left","1.85458803177","1571.97152281","3.14541196823","1575.29190588","4.19653296471","1579.48850894","1.80346703529","1581.34078598","1583.1695888","1583.24165392","1586.24432588","1","1586.25917697","1588.4053328",""
"sujeto_0066360","1","2","8","40","1588.54448199","inverse","2","1","4","¿En qué país sudamericano 
no hay McDonalds?","Bolivia","Venezuela","","0","0","1","competitive","right","1.46198391914","1590.00651002","3.53801608086","1593.69986081","4.22857308388","1597.92849493","1.77142691612","1599.73432684","1601.04370594","1601.11877584","1604.12175202","0","1604.13590789","1610.49229503",""
"sujeto_0066360","1","2","9","41","1610.63766885","direct","3","1","1","¿En qué año empieza
 la Edad Media?","476","512","","1","1","1","competitive","right","2.25475502014","1612.89248586","2.74524497986","1615.84521794","4.03620505333","1619.88146496","1.96379494667","1621.89574289","1623.29952002","1623.37996483","1626.38294482","1","1626.398211","1629.3867619",""
"sujeto_0066360","1","2","10","42","1629.533355","inverse","3","1","4","¿Hace cuántos años surgió
 el ser humano?","200mil","300mil","","0","0","0","competitive","left","2.57709312439","1632.11051297","2.42290687561","1634.68756485","2.91191887856","1637.59952497","3.08808112144","1640.72248292","1642.60847688","1642.69102001","1645.69401002","0","1645.70792985","1649.01835585",""
"sujeto_0066360","1","2","11","43","1649.15938687","direct","3","1","4","¿Cuántas cuadras tiene
 actualmente 18 de julio? ","36","33","","0","0","1","competitive","left","1.62198901176","1650.78143191","3.37801098824","1654.31465101","4.00272393227","1658.31743383","1.99727606773","1660.3641448","1662.06638384","1662.148947","1665.15193295","0","1665.1661458","1669.89229083",""
"sujeto_0066360","1","2","12","44","1670.03457785","inverse","1","1","4","¿Qué juego de equipo se 
considera mas rápido?","Lacrosse","Badminton","","0","0","0","competitive","left","1.79488706589","1671.82952881","3.20511293411","1675.20960093","2.70687103271","1677.91651297","3.29312896729","1681.25980592","1682.50289392","1682.57768083","1685.58029985","0","1685.59444785","1693.58829379",""
"sujeto_0066360","1","2","13","45","1693.74610186","direct","1","1","3","¿Qué promedio de edad 
vive una jirafa? ","25","20","","0","0","1","competitive","left","2.78835988045","1696.53452802","2.21164011955","1698.90374494","3.55071520805","1702.45450091","2.44928479195","1704.938761","1706.70028996","1706.77357602","1709.77633095","0","1709.79050684","1715.74619389",""
"sujeto_0066360","1","2","14","46","1715.89549184","inverse","1","1","2","¿Cuántos grandes lagos hay?","7","5","","0","0","1","competitive","right","1.78499889374","1717.68053484","3.21500110626","1721.04968286","2.84579205513","1723.89551592","3.15420794487","1727.08214998","1728.37424493","1728.45115089","1731.45414591","0","1731.46805596","1739.28832102",""
"sujeto_0066360","1","2","15","47","1739.43664694","direct","3","1","2","¿Cuántos discos de estudio
 grabó Johhny Cash? ","54","43","","1","1","0","competitive","right","2.65682816505","1742.09352684","2.34317183495","1744.59464502","5.1338019371","1749.72850895","0.866198062897","1750.64685392","1751.92550397","1751.99677086","1754.99973583","1","1755.013556","1761.66444898",""
"sujeto_0066360","1","2","16","48","1761.79847193","inverse","4","1","1","¿Cuántos barrios tiene
 Montevideo? ","71","62","","0","0","1","competitive","right","2.57001495361","1764.36855698","2.42998504639","1766.94375801","2.74770307541","1769.6915009","3.25229692459","1772.9877739","1773.99484396","1774.07319283","1777.0762198","0","1777.09039402","1782.55230999",""
"sujeto_0066360","1","2","17","49","1782.69213295","direct","3","1","3","¿Qué edad tiene Homero Simpson?","36","42","","0","0","1","competitive","right","1.84735012054","1784.53954697","3.15264987946","1787.88403702","1.94941592216","1789.83351088","4.05058407784","1793.93366981","1795.30967283","1795.3855269","1798.38852286","0","1798.40262985","1802.79135799",""
"sujeto_0066360","1","2","18","50","1802.92119098","inverse","4","1","2","¿Cuántos países con monarquía 
hay en europa actualmente? ","6","10","","1","1","1","competitive","left","1.50525808334","1804.42652202","3.49474191666","1808.07800198","5.34637618065","1813.42441893","0.653623819351","1814.12922788","1815.56743193","1815.64523888","1818.64823079","1","1818.66315103","1824.81997585",""
"sujeto_0066360","1","2","19","51","1824.94863582","direct","2","1","3","¿Cuántos capítulos de
 Friends existen? ","236","228","","1","1","1","competitive","left","2.32684397697","1827.27554488","2.67315602303","1830.10383391","3.68565416336","1833.78954792","2.31434583664","1836.15539789","1837.46027184","1837.53962398","1840.54261088","1","1840.55683684","1842.93246293",""
"sujeto_0066360","1","2","20","52","1843.07578397","inverse","1","1","3","¿Cuántas óperas compuso Mozart? ","27","22","","1","1","1","competitive","left","2.62870979309","1845.7045598","2.37129020691","1848.22529197","2.61110496521","1850.83646083","3.38889503479","1854.28185391","1855.5740149","1855.65012383","1858.65310192","1","1858.66717386","1865.9786458",""
"sujeto_0066360","1","2","21","53","1866.1188879","direct","4","1","3","¿Cuántos mundiales de fútbol 
femenino ha realizado FIFA? ","9","7","","1","1","1","competitive","right","1.34861016273","1867.46754193","3.65138983727","1871.27635479","3.87611103058","1875.15250587","2.12388896942","1877.3103869","1878.55409479","1878.62881899","1881.631809","1","1881.64595485","1887.74838996",""
"sujeto_0066360","1","2","22","54","1887.88084102","inverse","3","1","2","¿Cuál es la temperatura 
media anual en Montevideo? ","17.5","16.3","","0","0","1","competitive","left","2.59259414673","1890.47350287","2.40740585327","1893.03741288","5.1680688858","1898.20554495","0.831931114197","1899.08940697","1901.028018","1901.10659289","1904.10832381","0","1904.12416887","1910.69367599",""
"sujeto_0066360","1","2","23","55","1910.84259987","direct","2","1","2","¿En qué año se estrenó el
 videojuego The Sims? ","2000","2002","","0","0","0","competitive","right","2.1109058857","1912.95356989","2.8890941143","1915.99934697","3.94316005707","1919.9425478","2.05683994293","1922.0334518","1923.895437","1923.96787882","1926.96833086","0","1926.98666382","1934.38033295",""
"sujeto_0066360","1","2","24","56","1934.53700781","inverse","2","1","1","¿Cuál es la canción con 
mas covers? ","Yesterday","Stand by me","","0","0","0","competitive","right","2.03643488884","1936.57350993","2.96356511116","1939.69494891","4.57547688484","1944.2704668","1.42452311516","1945.73021984","1947.1282928","1947.19675779","1950.19975686","0","1950.21487689","1954.38570595",""
"sujeto_0066360","1","2","25","57","1954.5321238","direct","1","1","4","¿Cuánto duró la guerra
 de los 100 años?","116","123","","0","0","0","competitive","left","2.12239193916","1956.65458202","2.87760806084","1959.67246294","4.79100799561","1964.46353102","1.20899200439","1965.72415996","1967.20501781","1967.27411795","1970.27631283","0","1970.29144287","1972.61124086",""
"sujeto_0066360","1","2","26","58","1972.75965881","inverse","4","1","4","¿Qué color tiene la  bandera de Brasil?","Amarillo","Naranja","left","0","0","1","competitive","left","1.55086183548","1974.31058693","3.44913816452","1977.91335392","2.94604277611","1980.859442","3.05395722389","1983.94805884","1985.51459384","1985.60014296","1988.603163","1","1988.61729002","1991.64830589",""
"sujeto_0066360","1","2","27","59","1991.78566384","direct","4","1","3","¿Qué carabela de 
Colon no volvió del viaje?","Santa María","La pinta","","0","0","1","competitive","right","1.27781486511","1993.06352997","3.72218513489","1996.95596886","5.15548706055","2002.11151791","0.844512939453","2003.008358","2004.49939895","2004.57529688","2007.57828879","0","2007.592484","2009.691957",""
"sujeto_0066360","1","2","28","60","2009.84478879","inverse","4","1","4","¿Cuántos huesos tiene
 un adulto humano?","217","206","","0","0","1","competitive","right","1.1426680088","2010.98752379","3.8573319912","2015.0002389","3.49019002914","2018.49049592","2.50980997086","2021.05158281","2022.32261491","2022.40256596","2025.40554881","0","2025.41989589","2033.2540679",""
"sujeto_0066360","1","2","29","61","2033.38822579","direct","1","1","1","¿Qué país africano fue 
fundado por esclavos?","Liberia","Chad","","0","0","0","competitive","left","1.56426692009","2034.95254302","3.43573307991","2038.54569793","3.46975278854","2042.0155108","2.53024721146","2044.59621","2046.5878408","2046.66435599","2049.66731691","0","2049.68191791","2057.67277098",""
"sujeto_0066360","1","2","30","62","2057.81703091","inverse","4","1","2","¿A cuánto asciende la cima
 del monte Everest?","7.990 mts","8.848 mts","","0","0","1","competitive","right","3.13475298882","2060.95185781","1.86524701118","2063.00578284","4.16369581223","2067.16952181","1.83630418777","2069.04330802","2070.22813082","2070.31069684","2073.31364584","0","2073.32754588","2080.51155186",""
"sujeto_0066360","1","2","31","63","2080.69633484","direct","4","1","1","¿Cuál es el país mas chico?","Sealand","Luxemburgo","","1","1","1","competitive","left","2.08512496948","2082.78152394","2.91487503052","2085.85159802","2.86481714249","2088.71647286","3.13518285751","2091.9017849","2093.76430488","2093.837219","2096.84021902","1","2096.85436988","2099.97665501",""
"sujeto_0066360","1","2","32","64","2100.12336588","inverse","2","1","4","¿Cuántas pirámides hay en Egipto?","10000","11000","","1","1","1","competitive","left","1.75112295151","2101.87453294","3.24887704849","2105.27955294","3.70287108421","2108.98246694","2.29712891579","2111.33159089","2112.36431789","2112.44962287","2115.4523139","1","2115.46663594","2120.57571387",""
"sujeto_0066360","1","3","1","65","2269.24487281","direct","2","1","2","¿Cuál es el quinto país con 
mas extensión?","Canadá","Brasil","","1","1","0","competitive","left","2.02667689323","2271.27159595","2.97332310677","2274.40177298","3.37870907784","2277.78051901","2.62129092216","2280.4351759","2281.7683239","2281.85272098","2284.85571098","1","2284.86987281","2292.59233689","2120.59052181"
"sujeto_0066360","1","3","2","66","2292.72151184","inverse","1","1","2","¿Qué rasgo facial no tiene
 la Mona Lisa?","Cejas","Pómulos","","0","0","1","competitive","left","2.53501391411","2295.25657082","2.46498608589","2297.9121418","5.39834785461","2303.31053185","0.601652145386","2303.94772696","2305.69811487","2305.78151202","2308.78428698","0","2308.7992928","2315.06836987",""
"sujeto_0066360","1","3","3","67","2315.20039487","direct","4","1","3","¿Cuál es el país con 
mayor población?","Esados Unidos","China","right","0","0","1","competitive","right","2.38811993599","2317.58855891","2.61188006401","2320.37325191","3.55130386353","2323.92461801","2.44869613647","2326.42482901","2328.07073092","2328.15994191","2331.1603229","1","2331.1774838","2334.544765",""
"sujeto_0066360","1","3","4","68","2334.6788168","inverse","1","1","1","La palabra dinosaurio significa","Lagarto Terrible","Lagarto Dragón","","1","1","0","competitive","","1.99272108078","2336.67158198","3.00727891922","2339.83461595","6","2345.83473897","0","2345.85160184","2347.02192593","2347.10343695","2350.10432482","0","2350.12024593","2352.98207784",""
"sujeto_0066360","1","3","5","69","2353.12211895","direct","2","1","3","¿Qué es el membrillero?","Arbol","Arbusto","","0","0","0","competitive","left","2.24342799187","2355.36559391","2.75657200813","2358.27777386","3.11975097656","2361.3975668","2.88024902344","2364.32702398","2366.28114891","2366.36222982","2369.36523199","0","2369.38030386","2375.84432292",""
"sujeto_0066360","1","3","6","70","2375.98193979","inverse","3","1","3","¿Alrededor de qué planeta orbita 
el satélite Europa?","Jupiter","Saturno","","1","1","1","competitive","right","1.99860501289","2377.98059082","3.00139498711","2381.13819981","5.55327296257","2386.6915369","0.44672703743","2387.19110394","2388.73591685","2388.80714583","2391.81012702","1","2391.82516599","2394.03032279",""
"sujeto_0066360","1","3","7","71","2394.19341588","direct","3","1","1","¿Donde fue el mundial de 
fútbol de 1954?","Suiza","Suecia","","1","1","1","competitive","left","2.25313878059","2396.44664001","2.74686121941","2399.36714292","4.70029783249","2404.06749797","1.29970216751","2405.41661096","2406.66925693","2406.74974489","2409.75272799","1","2409.76788092","2413.67965698",""
"sujeto_0066360","1","3","8","72","2413.81956601","inverse","1","1","4","¿Cuál de los 7 enanitos
no tenía barba?","Bashful","Mudito","","1","1","0","competitive","right","2.80092406273","2416.62053394","2.19907593727","2419.0043509","3.97320199013","2422.97760201","2.02679800987","2425.05756187","2426.63765001","2426.70861602","2429.71156192","1","2429.72577786","2434.6548419",""
"sujeto_0066360","1","3","9","73","2434.79397988","direct","3","1","2","¿Cual red social es
mas utilizada mundialmente?","Instagram","Facebook","","1","1","0","competitive","left","2.17855477333","2436.97257781","2.82144522667","2439.95309496","5.15735507011","2445.11051083","0.842644929886","2446.00460887","2447.92035484","2448.00442195","2451.00735402","1","2451.02242279","2453.95691991",""
"sujeto_0066360","1","3","10","74","2454.10728979","inverse","4","1","1","¿Cuándo se inició la copa
 América de fútbol?","1916","1923","","1","1","1","competitive","left","1.80920004845","2455.91653299","3.19079995155","2459.26272392","4.22379183769","2463.48655987","1.77620816231","2465.3127768","2467.21021581","2467.29664683","2470.29962897","1","2470.31455779","2472.97068501",""
"sujeto_0066360","1","3","11","75","2473.116395","direct","3","1","4","¿Cuántos presidentes de EEUU
han muerto asesinados?","3","4","","0","0","1","competitive","left","1.71908807755","2474.83552599","3.28091192245","2478.28978086","3.22673606873","2481.51658297","2.77326393127","2484.33948779","2485.82341099","2485.9076519","2488.91058493","0","2488.92459297","2492.56830001",""
"sujeto_0066360","1","3","12","76","2492.70959401","inverse","2","1","4","¿Cuántas veces participó EEUU
 en la copa América?","4","5","","0","0","1","competitive","left","3.25694704056","2495.96658683","1.74305295944","2497.84813881","3.32141089439","2501.16959","2.67858910561","2503.90013099","2505.34426188","2505.4174118","2508.4203949","0","2508.43462801","2514.55181289",""
"sujeto_0066360","1","3","13","77","2514.686378","direct","4","1","1","¿Cuál de estos países 
no formaba la URSS?","Azeribayán","Afganistán","","0","0","1","competitive","left","1.65620803833","2516.34265399","3.34379196167","2519.85904884","4.55543088913","2524.41453695","1.44456911087","2525.91145492","2527.22450495","2527.29512382","2530.29810381","0","2530.31307101","2538.2952199",""
"sujeto_0066360","1","3","14","78","2538.430794","inverse","1","1","1","¿En qué año se inauguró
 el teatro Solís?","1867","1856","","0","0","0","competitive","right","1.92772102356","2540.3585639","3.07227897644","2543.60260892","3.17492890358","2546.77757788","2.82507109642","2549.65524101","2550.7115519","2550.78945494","2553.7924099","0","2553.80659795","2560.45235085",""
"sujeto_0066360","1","3","15","79","2560.62461901","direct","1","1","4","¿A qué velocidad vuela 
el avión más rápido?","3529","3874","","0","0","0","competitive","right","2.1109380722","2562.73562884","2.8890619278","2565.779773","2.83980202675","2568.61961579","3.16019797325","2571.83189702","2573.58738589","2573.66766381","2576.67065287","0","2576.68474698","2578.79499984",""
"sujeto_0066360","1","3","16","80","2578.95275092","inverse","3","1","4","¿De qué año es la primer 
película cinematográfica?","1897","1888","","0","0","0","competitive","right","1.61976885796","2580.57256484","3.38023114204","2584.10835481","3.59319591522","2587.70159197","2.40680408478","2590.14401102","2591.27697587","2591.36230683","2594.3653059","0","2594.37940598","2599.78833485",""
"sujeto_0066360","1","3","17","81","2599.93073201","direct","2","1","3","¿Cuántos países 
tiene nuestro planeta?","191","194","","1","1","1","competitive","right","1.26386213303","2601.19467282","3.73613786697","2605.08755088","3.16900587082","2608.2565999","2.83099412918","2611.13803291","2612.49522781","2612.57280397","2615.57579184","1","2615.58992982","2618.82824397",""
"sujeto_0066360","1","3","18","82","2618.97553492","inverse","2","1","2","¿Cuántos habitantes
 tiene Buenos Aires?","2.9000.000","3650000","","0","0","0","competitive","left","1.34599399567","2620.32160091","3.65400600433","2624.12947798","3.81304097176","2627.94257784","2.18695902824","2630.181041","2631.57828689","2631.64894581","2634.65190887","0","2634.66590285","2640.49530792",""
"sujeto_0066360","1","3","19","83","2640.63464284","direct","2","1","1","¿Cuántos kilos forman una tonelada?","1000","1500","left","1","1","1","competitive","left","1.65889906883","2642.29358482","3.34110093117","2645.7906158","4.7909219265","2650.58159685","1.2090780735","2651.82648683","2653.71384287","2653.7933948","2656.79636598","1","2656.8115108","2662.76891184",""
"sujeto_0066360","1","3","20","84","2662.91305399","inverse","4","1","4","¿Cuántos estados tiene la 
República del Perú? ","24","23","","0","0","1","competitive","right","1.24244403839","2664.15556192","3.75755596161","2668.0694108","3.68303108215","2671.75249791","2.31696891785","2674.12080288","2675.14295983","2675.22174692","2678.22473192","0","2678.23896694","2683.18427587",""
"sujeto_0066360","1","3","21","85","2683.32353187","direct","3","1","3","¿En qué año nació Cristóbal Colón? ","1451","1447","","0","0","1","competitive","left","1.3330309391","2684.65662789","3.6669690609","2688.46401286","3.6315279007","2692.09560299","2.3684720993","2694.51390982","2696.35976386","2696.43244386","2699.43537283","0","2699.44922781","2703.67724085",""
"sujeto_0066360","1","3","22","86","2703.81835198","inverse","4","1","4","¿Cuánto mide la 
Montaña Aconcagua? ","6234","6962","","0","0","1","competitive","right","1.52316594124","2705.34155989","3.47683405876","2708.97417092","2.83132505417","2711.80553484","3.16867494583","2715.02413583","2716.31345081","2716.39241695","2719.39538789","0","2719.41033697","2726.59232187",""
"sujeto_0066360","1","3","23","87","2726.72788882","direct","2","1","4","¿Cuánto mide el punto
 más profundo del océano? ","12508","11003","","0","0","1","competitive","left","1.2446680069","2727.97263288","3.7553319931","2731.88630795","4.40421915054","2736.29056597","1.59578084946","2737.93748879","2739.18898201","2739.27108097","2742.27407289","0","2742.2882669","2746.49451494",""
"sujeto_0066360","1","3","24","88","2746.6398828","inverse","1","1","3","¿Cuántos álbumes ha publicado 
el cantante Jaime Roos? ","41","34","","0","0","1","competitive","right","1.82268309593","2748.46261001","3.17731690407","2751.79650497","4.63109517097","2756.42766094","1.36890482903","2757.84734082","2759.33719683","2759.415097","2762.41808891","0","2762.43255901","2768.62871885",""
"sujeto_0066360","1","3","25","89","2768.76697898","direct","4","1","3","¿En qué año nació el 
ex-presidente Jorge Battle? ","1921","1927","","1","1","1","competitive","right","2.33759117126","2771.10461593","2.66240882874","2773.92410898","2.92335700989","2776.84750485","3.07664299011","2779.97513199","2781.705827","2781.77641582","2784.77937484","1","2784.79445696","2788.28048801",""
"sujeto_0066360","1","3","26","90","2788.44592786","inverse","1","1","3","¿Cuántas presidencias 
constitucionales  hubo en Uruguay? ","41","42","","0","0","1","competitive","right","2.60463905334","2791.05067492","2.39536094666","2793.63269401","4.3138051033","2797.94653988","1.6861948967","2799.66947579","2800.87322402","2800.95342183","2803.956357","0","2803.97028995","2809.75392079",""
"sujeto_0066360","1","3","27","91","2809.88896084","direct","1","1","2","¿Quién escribió mas sinfonías?","Mozart","Haydn","","1","1","0","competitive","left","1.853525877","2811.7425468","3.146474123","2815.06160092","2.61596107483","2817.67762399","3.38403892517","2821.11183381","2822.32930994","2822.39766002","2825.40031099","1","2825.4143908","2829.16435885",""
"sujeto_0066360","1","3","28","92","2829.29935193","inverse","4","1","2","¿En qué año nació Michael Jackson?","1958","1953","","1","1","1","competitive","right","1.1352391243","2830.43463683","3.8647608757","2834.47229791","2.71521806717","2837.18757701","3.28478193283","2840.52266598","2842.50035","2842.57324696","2845.5762558","1","2845.59144092","2851.45376992",""
"sujeto_0066360","1","3","29","93","2851.59333181","direct","3","1","2","¿En qué año entró en vigencia 
la ley antitabaco en Uruguay?","2005","2006","","1","1","1","competitive","left","1.44921588898","2853.04261494","3.55078411102","2856.75057793","4.83488297462","2861.58551693","1.16511702538","2862.80126381","2864.39598894","2864.46903396","2867.47202086","1","2867.48603702","2872.8163569",""
"sujeto_0066360","1","3","30","94","2872.95410895","inverse","3","1","1","¿Cuándo se subió el 
primer video a youtube?","2004","2005","","0","0","1","competitive","left","1.27743220329","2874.23160696","3.72256779671","2878.11045098","4.78905415535","2882.89954281","1.21094584465","2884.16230702","2885.46795583","2885.54618287","2888.54916501","0","2888.56413984","2896.31632996",""
"sujeto_0066360","1","3","31","95","2896.46563601","direct","2","1","1","¿Cuántos habitantes tiene India?","1200 millones","1300 millones","","0","0","0","competitive","left","2.40795207024","2898.87363291","2.59204792976","2901.62346983","2.5100300312","2904.13355684","3.4899699688","2907.68794584","2909.65757895","2909.7401228","2912.74310398","0","2912.75720096","2918.80397201",""
"sujeto_0066360","1","3","32","96","2918.96225286","inverse","4","1","2","¿A qué edad murió Bob Marley?","36","37","","0","0","1","competitive","right","1.1433160305","2920.10561299","3.8566839695","2924.11874294","2.41479516029","2926.53357887","3.58520483971","2930.15133381","2932.04919982","2932.13620996","2935.13919687","0","2935.15428281","2938.25675392",""
"sujeto_0066360","1","4","1","97","3078.19632983","direct","2","1","1","¿Cuantos años dirigió la selección 
uruguaya Tabarez?","15 años","13 años","","0","0","0","competitive","left","2.26928091049","3080.4656558","2.73071908951","3083.3653338","3.19417786598","3086.55957699","2.80582213402","3089.41512489","3090.6062789","3090.68337679","3093.68637395","0","3093.70039392","3100.77240682","2938.2713809"
"sujeto_0066360","1","4","2","98","3100.91852498","inverse","4","1","1","¿Cuantas teclas tiene un teclado 
de computadora generalmente? ","Entre 99 y 108","Entre 109 y 113","","1","1","1","competitive","left","1.17812108994","3102.09671283","3.82187891006","3106.0944829","4.52698206902","3110.62149882","1.47301793098","3112.14626479","3113.14830589","3113.23066998","3116.2336719","1","3116.24769902","3118.61913991",""
"sujeto_0066360","1","4","3","99","3118.76628184","direct","1","1","1","¿Cuál Departamento tiene
 mayor superficie?","Río Negro","Soriano","","0","0","0","competitive","right","1.0253238678","3119.79165602","3.9746761322","3123.92063999","4.3078289032","3128.22850895","1.6921710968","3129.95563602","3131.66911793","3131.73993587","3134.74032688","0","3134.75682902","3139.08034492",""
"sujeto_0066360","1","4","4","100","3139.22554779","inverse","3","1","2","¿Cuál es el apellido de las 
hermanastras  de  cenicienta?","Tremaine","Truman","","0","0","1","competitive","right","2.50105404854","3141.72666597","2.49894595146","3144.3983748","5.09316706657","3149.49160981","0.906832933426","3150.43293881","3152.30243993","3152.38367081","3155.38664579","0","3155.40093493","3158.09689879",""
"sujeto_0066360","1","4","5","101","3158.23666883","direct","4","1","4","¿Cuál película ganó un
 Oscar a mejor película?","Alto Impacto","Cache","","0","0","1","competitive","left","1.1439139843","3159.38062882","3.8560860157","3163.40731692","5.55623006821","3168.96361399","0.443769931793","3169.44308782","3170.56244898","3170.64307189","3173.64605093","0","3173.66013479","3175.92433786",""
"sujeto_0066360","1","4","6","102","3176.06187582","inverse","1","1","3","¿A cuántos centímetros
equivale la medida pié?","25","30","","0","0","1","competitive","left","1.3547410965","3177.41666698","3.6452589035","3181.21701384","4.33443903923","3185.5515058","1.66556096077","3187.26845694","3188.30832481","3188.38602495","3191.38900781","0","3191.40322185","3196.80422187",""
"sujeto_0066360","1","4","7","103","3196.954386","direct","2","1","2","¿Qué departamento es mas grande?","Cerro Largo","Paysandú","","0","0","0","competitive","right","3.18818092346","3200.14263391","1.81181907654","3202.11131382","3.50018000603","3205.61155081","2.49981999397","3208.16149688","3209.76032686","3209.82993793","3212.8323009","0","3212.84753895","3216.95745802",""
"sujeto_0066360","1","4","8","104","3217.09950686","inverse","2","1","3","¿Quién pintó la Mona Lisa?","Picasso","Da Vinci","right","0","0","1","competitive","right","1.64606785774","3218.7456398","3.35393214226","3222.27187181","2.81970310211","3225.09161496","3.18029689789","3228.32173991","3229.92761493","3230.00709987","3233.01007986","1","3233.02401781","3235.18637085",""
"sujeto_0066360","1","4","9","105","3235.32620382","direct","4","1","3","¿Cuántos litros hay en un galon?","3.54","3.78","","1","1","1","competitive","left","1.25136709213","3236.57761788","3.74863290787","3240.49446487","2.88004803658","3243.37455082","3.11995196342","3246.5290699","3248.04692793","3248.13095999","3251.13393593","1","3251.14800286","3256.94034982",""
"sujeto_0066360","1","4","10","106","3257.08353496","inverse","4","1","1","¿Cuántas teclas tiene
 un piano moderno?","80","88","","0","0","1","competitive","right","1.78204202652","3258.86565185","3.21795797348","3262.25813389","4.57742905617","3266.83560395","1.42257094383","3268.29389882","3269.30236793","3269.37734389","3272.38029289","0","3272.3945179","3279.1883378",""
"sujeto_0066360","1","4","11","107","3279.32950401","direct","4","1","3","¿Cuántos países hay en África?","54","62","","0","0","1","competitive","left","1.29609894753","3280.62564993","3.70390105247","3284.48731995","2.3642680645","3286.85164785","3.6357319355","3290.52043295","3292.21095586","3292.28885484","3295.29183698","0","3295.30678582","3303.11153197",""
"sujeto_0066360","1","4","12","108","3303.27435684","inverse","1","1","3","¿En qué siglo se crearon
 las primeras pistolas?","XV","XIII","","1","1","1","competitive","left","1.23529887199","3304.50976086","3.76470112801","3308.4157629","5.0967669487","3313.51258802","0.9032330513","3314.45033598","3316.39824581","3316.48377395","3319.48674798","1","3319.50186682","3322.73496795",""
"sujeto_0066360","1","4","13","109","3322.90337491","direct","3","1","4","¿En qué año se estrenó 
la serie friends?","1994","1995","","0","0","1","competitive","right","1.28223919868","3324.18567991","3.71776080132","3328.05591488","5.48064804077","3333.53659987","0.519351959229","3334.09274793","3335.968086","3336.04305291","3339.04437685","0","3339.06054997","3344.06662989",""
"sujeto_0066360","1","4","14","110","3344.2120409","inverse","3","1","4","¿En qué año nació Hitler?","1889","1887","","0","0","1","competitive","right","2.32653188705","3346.53863788","2.67346811295","3349.35110283","3.51951909065","3352.87068295","2.48048090935","3355.38744497","3356.50182581","3356.57237482","3359.5753808","0","3359.58951187","3364.61647391",""
"sujeto_0066360","1","4","15","111","3364.77437782","direct","1","1","4","¿Cuánto pesa un elefante Africano?","6000 kilos","5400 kilos","","0","0","0","competitive","right","2.84822487831","3367.62270784","2.15177512169","3369.96382499","4.28075909615","3374.24465179","1.71924090385","3375.99917388","3377.355093","3377.43322802","3380.43621898","0","3380.45033002","3387.15737796",""
"sujeto_0066360","1","4","16","112","3387.30165386","inverse","1","1","2","¿Qué porcentaje de 
la población es zurda?","10%","7%","","1","1","0","competitive","right","1.99893188477","3389.30065203","3.00106811523","3392.47501802","4.42355704308","3396.89861894","1.57644295692","3398.526685","3399.76980186","3399.84466791","3402.84764791","1","3402.86149883","3408.84034491",""
"sujeto_0066360","1","4","17","113","3408.980196","direct","1","1","2","¿En qué año se estrenó
Volver al futuro?","1984","1985","","0","0","1","competitive","right","1.04547691345","3410.02575779","3.95452308655","3414.15028095","4.07723498344","3418.22755384","1.92276501656","3420.185853","3421.74768996","3421.82008886","3424.823071","0","3424.83828187","3431.9297359",""
"sujeto_0066360","1","4","18","114","3432.0726738","inverse","3","1","2","¿Cuántos jugadores hay en un 
equipo de baseball?","9","8","","1","1","0","competitive","left","0.942954063416","3433.01569486","4.05704593658","3437.24895501","4.89367008209","3442.14266682","1.10632991791","3443.2835319","3444.8978169","3444.9671998","3447.97017598","1","3447.984478","3452.96032691",""
"sujeto_0066360","1","4","19","115","3453.12017083","direct","2","1","1","¿Cuántos Oscar ganó
 la película titanic?","13","11","","1","1","1","competitive","right","2.12142086029","3455.24164081","2.87857913971","3458.275316","3.34026408195","3461.61564589","2.65973591805","3464.32672381","3465.62875581","3465.71116281","3468.714149","1","3468.72940898","3473.332026",""
"sujeto_0066360","1","4","20","116","3473.51353979","inverse","4","1","4","¿En qué año comenzó
la segunda guerra mundial?","1939","1976","left","0","0","1","competitive","right","2.39806103706","3475.91164398","2.60193896294","3478.68665981","5.10793209076","3483.79465199","0.892067909241","3484.73848486","3486.53835583","3486.62233496","3489.62530684","0","3489.64021683","3493.62737298",""
"sujeto_0066360","1","4","21","117","3493.77547503","direct","2","1","4","¿Cuántos biomas hay en Uruguay?","5","4","","0","0","1","competitive","right","1.69419598579","3495.46971488","3.30580401421","3498.92950797","4.34506607056","3503.2746129","1.65493392944","3504.96483994","3506.76220679","3506.83225203","3509.83520889","0","3509.84928489","3516.09634185",""
"sujeto_0066360","1","4","22","118","3516.234864","inverse","2","1","3","¿Cuándo murió Pablo Escobar?","1993","1997","","1","1","1","competitive","right","1.16981506348","3517.40472579","3.83018493652","3521.40877986","4.0398619175","3525.44868684","1.9601380825","3527.45994592","3529.24279785","3529.32678699","3532.32831693","1","3532.34457493","3538.04428196",""
"sujeto_0066360","1","4","23","119","3538.19658279","direct","1","1","4","¿Qué serie ha ganado mas premios?","Friends","Murphy Brown","","1","1","0","competitive","left","1.38102006912","3539.57767391","3.61897993088","3543.33715391","2.0905649662","3545.42778087","3.9094350338","3549.38661385","3550.73899984","3550.826648","3553.82962799","1","3553.8387959","3559.4004178",""
"sujeto_0066360","1","4","24","120","3559.55737591","inverse","4","1","2","¿Cuántas fichas tiene el dominó?","26","28","","1","1","1","competitive","right","1.43524289131","3560.9926908","3.56475710869","3564.71531081","1.80223584175","3566.51758385","4.19776415825","3570.76459384","3571.81990099","3571.90014696","3574.9031508","1","3574.91708302","3580.16023088",""
"sujeto_0066360","1","4","25","121","3580.30186391","direct","2","1","4","¿Cuántos son los dientes de leche?","20","25","","0","0","1","competitive","right","1.26673698425","3581.568645","3.73326301575","3585.45826197","3.6132941246","3589.07161403","2.3867058754","3591.49171782","3593.20206881","3593.27642989","3596.279423","0","3596.29324198","3598.43894792",""
"sujeto_0066360","1","4","26","122","3598.57845402","inverse","3","1","3","¿Cuántos gramos son una onza?","22","28","","0","0","1","competitive","right","2.54021215439","3601.11872697","2.45978784561","3603.73222184","4.34231185913","3608.07456779","1.65768814087","3609.78536081","3611.78023696","3611.85306501","3614.85604191","0","3614.87128282","3621.16148496",""
"sujeto_0066360","1","4","27","123","3621.30571699","direct","3","1","1","¿Cuándo salió el primer album
 de los Beatles?","1963","1962","","1","1","1","competitive","left","1.51494812965","3622.82073283","3.48505187035","3626.46286988","2.87475395203","3629.33768702","3.12524604797","3632.51283002","3633.67644882","3633.74862099","3636.75155401","1","3636.76565886","3640.53765297",""
"sujeto_0066360","1","4","28","124","3640.66746402","inverse","3","1","3","¿Quién fundó la empresa apple?","Carlos Slim","Steve Jobs","","1","1","1","competitive","right","1.16415214539","3641.83166099","3.83584785461","3645.82220793","2.96838188171","3648.7906549","3.03161811829","3651.87267995","3652.98737788","3653.05795884","3656.06035089","1","3656.07522392","3662.37307692",""
"sujeto_0066360","1","4","29","125","3662.54324198","direct","4","1","2","¿Cuántos municipios hay
 en Montevideo?","8","7","","1","1","1","competitive","left","2.05641293526","3664.59971881","2.94358706474","3667.70150089","4.17304897308","3671.87458992","1.82695102692","3673.75199199","3675.66671801","3675.75337386","3678.7563889","1","3678.77030301","3680.85145593",""
"sujeto_0066360","1","4","30","126","3680.98852992","inverse","1","1","1","¿Cuántos kilómetros hay
 de Montevideo a Artigas?","632","599","","0","0","0","competitive","left","0.87764787674","3681.86625886","4.12235212326","3686.1434288","3.64917993546","3689.79266882","2.35082006454","3692.19364882","3693.67673802","3693.74526596","3696.74827385","0","3696.76240587","3702.81446481",""
"sujeto_0066360","1","4","31","127","3702.96482897","direct","2","1","2","¿En qué año nació 
Leonardo Da Vinci?","1452","1511","","1","1","0","competitive","right","1.27079606056","3704.23568988","3.72920393944","3708.10550094","2.79509902","3710.90065885","3.20490098","3714.13862586","3715.99224401","3716.0737958","3719.07677889","1","3719.09065986","3722.2363348",""
"sujeto_0066360","1","4","32","128","3722.37575293","inverse","3","1","1","¿A qué continente
 pertenece el país Gabón?","Africa","Oceanía","","0","0","1","competitive","left","1.59986877441","3723.97566795","3.40013122559","3727.53198791","4.57064580917","3732.10267401","1.42935419083","3733.58225083","3735.39391088","3735.46575594","3738.468683","0","3738.48351693","3743.72143793",""
