"code","nro_aplicante","nro_bloque","nro_trial_bloque","nro_trial_global","show_game_type","choice_order","rival","pay_individual","pay_competitive","question","answer_left_text","answer_right_text","correct_answer","outcome_individual","outcome_competitive","outcome_rival","game_type","answer","social_time","rt_game_type","feedback_delay","show_question","answer_time","rt_answer_global","feedback_delay_2","show_jitter","jitter_time","show_outcome","outcome_time","outcome_participant_real","show_final_jitter","second_jitter_time","inicio_descanso"
"sujeto_c36569e9","1","1","1","1","46.6022930145","direct","3","1","4","¿Cuántos centímetros corresponden
al talle 36 del calzado?","23","24","","0","0","1","competitive","left","2.06033992767","48.6626729965","2.93966007233","51.7730669975","5.06356406212","56.8366858959","0.936435937881","57.8088538647","58.8371589184","58.9086780548","61.9116089344","0","61.9260618687","64.0885748863",""
"sujeto_c36569e9","1","1","2","2","64.2445659637","inverse","3","1","2","¿Cuántas metros mide la Intendencia
Municipal de Montevideo? ","84","78","","0","0","1","competitive","","2.51517081261","66.7598068714","2.48482918739","69.4150438309","6","75.4151699543","0","75.4341518879","77.3121869564","77.3850338459","80.387996912","0","80.4032759666","82.4960389137",""
"sujeto_c36569e9","1","1","3","3","82.6375789642","direct","1","1","3","¿Cuántas La Pasiva
 hay en uruguay?","15","11","","1","1","1","competitive","right","3.15535616875","85.7930009365","1.84464383125","87.8229448795","3.62492394447","91.4479238987","2.37507605553","93.8767700195","95.4884479046","95.5609178543","98.5638408661","1","98.5790429115","102.857365847",""
"sujeto_c36569e9","1","1","4","4","102.997010946","inverse","3","1","3","¿De que color es la camiseta de uruguay?","blanca","celeste","right","1","1","1","competitive","right","1.83402991295","104.831101894","3.16597008705","108.170490026","4.00258398056","112.173111916","1.99741601944","114.221065998","115.42583704","115.505625963","118.508596897","1","118.523078918","121.977021933",""
"sujeto_c36569e9","1","1","5","5","122.124042034","direct","2","1","1","¿Cuánto metros mide
la torre Eiffel?","333","324","","1","1","1","competitive","right","2.47018694878","124.594270945","2.52981305122","127.294972897","4.80924391747","132.104279041","1.19075608253","133.330685854","134.852074862","134.931710005","137.934694052","1","137.94916296","144.985868931",""
"sujeto_c36569e9","1","1","6","6","145.117521048","inverse","3","1","4","¿Cuantas ciudades existen
 en todo el uruguay?","63","72","","0","0","1","competitive","right","1.64386796951","146.761431932","3.35613203049","150.275524855","5.67905688286","155.954644918","0.320943117142","156.326910019","157.381752014","157.46062088","160.463589907","0","160.47774291","168.104338884",""
"sujeto_c36569e9","1","1","7","7","168.246239901","direct","1","1","1","¿Cuantos estados tiene África?","52","54","","1","1","0","individual","left","3.06739783287","171.313699961","1.93260216713","173.417873859","4.176831007","177.594744921","1.823168993","179.454872847","181.318898916","181.355629921","184.358582973","1","184.373677969","190.134686947",""
"sujeto_c36569e9","1","1","8","8","190.275615931","inverse","4","1","4","¿En qué año nació
 Stephen Hawking?","1952","1942","","0","0","1","competitive","right","3.94314813614","194.218804836","1.05685186386","195.449280024","4.1735200882","199.62283802","1.8264799118","201.497658014","202.941974878","203.015624046","206.018630981","0","206.033136845","212.126693964",""
"sujeto_c36569e9","1","1","9","9","212.267192841","direct","2","1","3","¿Cuánto años tenía Artigas
 cuando se fue a Paraguay?","56","57","","1","1","1","competitive","left","2.42783689499","214.695094824","2.57216310501","217.427474022","4.74357414246","222.171090841","1.25642585754","223.462180853","225.011693954","225.095398903","228.098383904","1","228.112934828","234.158552885",""
"sujeto_c36569e9","1","1","10","10","234.297958851","inverse","1","1","2","¿Cuantos milímetros 
mide una hoja A2?","420x592","420x594","","0","0","1","competitive","","3.38121199608","237.679214001","1.61878800392","239.454893827","6","245.455026865","0","245.474169016","247.042623997","247.123705864","250.12668395","0","250.141374826","257.215034008",""
"sujeto_c36569e9","1","1","11","11","257.376437902","direct","3","1","3","¿Cuál es la menor temperatura 
registrada en Uruguay?","-5.4","-7.4","","0","0","1","competitive","left","1.84796094894","259.224444866","3.15203905106","262.551077843","3.95331406593","266.504439831","2.04668593407","268.601603985","270.28361392","270.368856907","273.371842861","0","273.386615038","277.119900942",""
"sujeto_c36569e9","1","1","12","12","277.254855871","inverse","2","1","2","¿Cuantos años hace que 
se fundó facebook?","18","17","","0","0","0","competitive","left","1.84164309502","279.096561909","3.15835690498","282.411270857","4.39230895042","286.803647995","1.60769104958","288.445181847","289.817921877","289.896713972","292.899706841","0","292.913616896","295.688221931",""
"sujeto_c36569e9","1","1","13","13","295.815062046","direct","1","1","4","¿Cuál animal es más
 pesado en promedio?","Rinoceronte","Hipopotamo","","0","0","0","competitive","left","2.67761993408","298.492730856","2.32238006592","301.069726944","5.93607401848","307.005859852","0.0639259815216","307.122541904","308.201750994","308.288951874","311.291885853","0","311.306577921","315.147601843",""
"sujeto_c36569e9","1","1","14","14","315.291924953","inverse","1","1","2","¿Qué personaje de dragon ball 
murió más veces?","Chaoz","Krillin","","1","1","0","competitive","left","2.91098594666","318.202952862","2.08901405334","320.480967045","4.05290198326","324.533906937","1.94709801674","326.532670975","327.990509033","328.066417933","331.069406033","1","331.083848953","338.856822968",""
"sujeto_c36569e9","1","1","15","15","339.001952887","direct","3","1","2","La universidad de oxford. 
existe desde:","1096","1249","","1","1","0","competitive","right","2.90909099579","341.911109924","2.09090900421","344.156556845","4.18957805634","348.346174955","1.81042194366","350.210878849","351.259697914","351.345593929","354.348574877","1","354.362732887","361.053587914",""
"sujeto_c36569e9","1","1","16","16","361.197545052","inverse","3","1","1","¿Qué escritor latino ganó antes
 el premio nobel?"," García Marquez","Neruda","","0","0","1","competitive","","2.25314307213","363.450758934","2.74685692787","366.371935844","6","372.372076035","0","372.389780998","374.129645824","374.206984997","377.209979057","0","377.224603891","380.685153961",""
"sujeto_c36569e9","1","1","17","17","380.825886011","direct","4","1","3","¿Cuántos dientes tiene un
 tiburón blanco?","6000","3000","","0","0","1","competitive","right","2.33160400391","383.157593012","2.66839599609","385.997429848","3.30598092079","389.303467989","2.69401907921","392.049157858","393.088227034","393.167654037","396.170591831","0","396.184100866","400.993731976",""
"sujeto_c36569e9","1","1","18","18","401.135947943","inverse","4","1","1","¿Cuánto mide el paralelo Ecuador?","40.000km","70.000km","","0","0","1","competitive","left","2.01565790176","403.151667833","2.98434209824","406.30776","4.60797595978","410.915793896","1.39202404022","412.343307018","414.299456835","414.378013849","417.380962849","0","417.39544487","420.997975826",""
"sujeto_c36569e9","1","1","19","19","421.147192001","direct","4","1","2","¿Cuál fue el primer libro 
de Stephen King?","Carrie","The Stand","","1","1","1","competitive","right","3.09158778191","424.238828897","1.90841221809","426.315902948","5.2959280014","431.61187005","0.704071998596","432.354688883","434.098753929","434.171231031","437.174201965","1","437.189517021","441.663954973",""
"sujeto_c36569e9","1","1","20","20","441.790623903","inverse","2","1","3","¿Qué civilización practicaba
 la momificación?","Grecia","Egipto","right","0","0","1","competitive","right","2.16427588463","443.954936981","2.83572411537","446.962394953","3.61465096474","450.577088833","2.38534903526","453.014641047","454.953917027","455.033028841","458.035969973","1","458.050421953","462.279217958",""
"sujeto_c36569e9","1","1","21","21","462.435261011","direct","4","1","4","¿Cuántos millones de visitas
 recibe google por minuto?","3.0","4.5","","0","0","1","competitive","right","1.96528911591","464.400666952","3.03471088409","467.608186007","3.6120660305","471.220290899","2.3879339695","473.642416","475.157294035","475.24305892","478.246055841","0","478.260468006","485.383159876",""
"sujeto_c36569e9","1","1","22","22","485.512938023","inverse","1","1","3","La máquina de fax. se inventó en:","1843","1960","","0","0","1","competitive","left","1.77440404892","487.287408829","3.22559595108","490.653548002","5.73993396759","496.393543959","0.26006603241","496.685648918","497.927747011","498.003280878","501.006273985","0","501.020923853","504.25723505",""
"sujeto_c36569e9","1","1","23","23","504.405102015","direct","2","1","4","En la verdadera historia de los
 300 espartanos. habían:","300 soldados","4300 soldados","","1","1","1","competitive","left","2.16942310333","506.574574947","2.83057689667","509.596813917","4.75373792648","514.350594044","1.24626207352","515.645882845","516.907110929","516.98029995","519.983276844","1","519.997814894","523.799556971",""
"sujeto_c36569e9","1","1","24","24","523.949374914","inverse","1","1","4","¿Cuántos milímetros crece
 el pelo por día?","0.4","0.04","","0","0","0","competitive","","4.47735500336","528.426772833","0.522644996643","529.123553038","6","535.123690844","0","535.141917944","536.902612925","536.974923849","539.977862835","0","539.993512869","546.728643894",""
"sujeto_c36569e9","1","1","25","25","546.877879858","direct","4","1","1","¿Cuánto mide la baldosa gris 
clásica de Montevideo?","22x22 cm.","20x20 cm.","","1","1","1","individual","right","4.53410506248","551.412046909","0.465894937515","552.034368038","4.75757813454","556.791983843","1.24242186546","558.087144852","560.081579924","560.120777845","563.123781919","1","563.13914299","568.6819489",""
"sujeto_c36569e9","1","1","26","26","568.823549032","inverse","2","1","2","¿Cuántas películas de rápidos
 y furiosos hay?","10","11","","1","1","0","competitive","left","2.02864909172","570.852259874","2.97135090828","573.979985952","3.51330494881","577.493330956","2.48669505119","580.014968872","581.37300396","581.449470043","584.452391863","1","584.466748953","586.501394033",""
"sujeto_c36569e9","1","1","27","27","586.634670973","direct","3","1","1","¿Cuántos masters 1000
 ganó Del Potro?","1","2","","1","1","1","individual","","3.30193400383","589.936661005","1.69806599617","591.806644917","6","597.806777954","0","597.824928045","599.579574823","599.625731945","602.628679991","0","602.643250942","610.039602995",""
"sujeto_c36569e9","1","1","28","28","610.178045988","inverse","2","1","4","¿Cuántos meses dura el 
embarazo de una leona?","3 meses","4 meses","","0","0","1","competitive","right","2.28802514076","612.466114044","2.71197485924","615.35135603","4.49380993843","619.845208883","1.50619006157","621.386746883","622.497827053","622.571213007","625.574178934","0","625.588848829","632.311310053",""
"sujeto_c36569e9","1","1","29","29","632.457308054","direct","1","1","1","¿En qué año fue creado
 el sandwich?","1762","1653","","1","1","0","competitive","right","2.14719796181","634.604548931","2.85280203819","637.612035036","4.84358596802","642.455662012","1.15641403198","643.648601055","645.247163057","645.332800865","648.335737944","1","648.351191998","651.821773052",""
"sujeto_c36569e9","1","1","30","30","651.969385862","inverse","4","1","2","El nombre de la moneda de Vietnam es:","Dinar","Dong","","0","0","1","competitive","left","1.8105199337","653.779971838","3.1894800663","657.158865929","4.81210589409","661.971030951","1.18789410591","663.19291091","664.624884844","664.710088968","667.713012934","0","667.727269888","673.895704031",""
"sujeto_c36569e9","1","1","31","31","674.046634912","direct","2","1","1","¿cuantos aleteos puede dar 
un colibrí por segundo?","120","50","","0","0","0","competitive","right","2.8257060051","676.872407913","2.1742939949","679.218767881","5.79569506645","685.014509916","0.204304933548","685.253615856","686.986023903","687.069740057","690.072721958","0","690.088301897","694.300554037",""
"sujeto_c36569e9","1","1","32","32","694.439193964","inverse","4","1","3","¿Qué altura promedio tienen
 los hombres uruguayos?","1.73 m","1.72 m","","1","1","1","competitive","right","1.63257598877","696.071815014","3.36742401123","699.596292973","5.23253703117","704.828888893","0.767462968826","705.649585009","706.912014008","706.99956584","710.002547979","1","710.017145872","714.493098974",""
"sujeto_c36569e9","1","2","1","33","829.128599882","direct","1","1","1","¿En qué año nació 
el actor Bradd Pitt?","1967","1963","","1","1","1","competitive","left","2.23957586288","831.368237019","2.76042413712","834.285320044","3.86097097397","838.146332979","2.13902902603","840.31969285","841.415568829","841.488517046","844.491494894","1","844.504922867","850.432540894","714.504971027"
"sujeto_c36569e9","1","2","2","34","850.55685401","inverse","2","1","1","¿Cual es el segundo 
monte más alto?","Kanchenjunga","K2","","1","1","1","competitive","left","2.18266797066","852.739601851","2.81733202934","855.71231699","3.86924409866","859.581619978","2.13075590134","861.763149023","863.215528011","863.29752183","866.300533056","1","866.314514875","869.744423866",""
"sujeto_c36569e9","1","2","3","35","869.88321805","direct","3","1","1","¿Cuándo finalizó la construcción
 del Palacio Legislativo?","1925","1917","","0","0","1","individual","left","2.339605093","872.222872019","2.660394907","875.05625391","4.2376229763","879.293934822","1.7623770237","881.108836889","882.750525951","882.792932987","885.795856953","0","885.810474873","891.508031845",""
"sujeto_c36569e9","1","2","4","36","891.645534992","inverse","3","1","3","¿Cuántos integrantes tenía
 en su inicio  el cuarteto de nos?","3","4","","1","1","1","competitive","right","1.31266617775","892.9582479","3.68733382225","896.802055836","5.60824298859","902.410341978","0.391757011414","902.837555885","903.970661879","904.054414034","907.057389021","1","907.071099997","912.720913887",""
"sujeto_c36569e9","1","2","5","37","912.872477055","direct","2","1","3","¿Qué valor tiene el número pi?","3.14","4.18","left","0","0","1","competitive","left","2.45907711983","915.331619024","2.54092288017","918.030285835","3.15035390854","921.180698872","2.84964609146","924.081502914","925.535681009","925.615659952","928.618607044","1","928.632818937","935.553792",""
"sujeto_c36569e9","1","2","6","38","935.685013056","inverse","2","1","2","¿Cuál es la esperanza de vida
 en Uruguay?","75","77","","1","1","0","competitive","left","2.60632705688","938.291390896","2.39367294312","940.839740992","3.29517006874","944.134945869","2.70482993126","946.876596928","948.529631853","948.611314058","951.614294052","1","951.628505945","958.091528893",""
"sujeto_c36569e9","1","2","7","39","958.246790886","direct","1","1","2","¿Cuantos pisos tiene la torre 
de las comunicaciones?","26","32","","1","1","0","","","","","","","","","","","","","","","963.254196882","965.400369883",""
"sujeto_c36569e9","1","2","8","40","965.519676924","inverse","2","1","4","¿En qué país sudamericano 
no hay McDonalds?","Bolivia","Venezuela","","0","0","1","competitive","right","2.66668486595","968.186420918","2.33331513405","970.689348936","4.57209992409","975.261534929","1.42790007591","976.742485046","978.051630974","978.126721859","981.129624844","0","981.144836903","987.498639822",""
"sujeto_c36569e9","1","2","9","41","987.645915985","direct","3","1","1","¿En qué año empieza
 la Edad Media?","476","512","","1","1","1","individual","left","2.15631818771","989.802283049","2.84368181229","992.803756952","4.97204303741","997.775840044","1.02795696259","998.85472703","1000.25847793","1000.30513287","1003.30810094","1","1003.32267404","1006.31122494",""
"sujeto_c36569e9","1","2","10","42","1006.45782495","inverse","3","1","4","¿Hace cuántos años surgió
 el ser humano?","200mil","300mil","","0","0","0","competitive","","1.46318101883","1007.92105389","3.53681898117","1011.61260796","6","1017.61273193","0","1017.62794185","1019.51398206","1019.59891486","1022.60191584","0","1022.61646891","1025.92696905",""
"sujeto_c36569e9","1","2","11","43","1026.06765985","direct","3","1","4","¿Cuántas cuadras tiene
 actualmente 18 de julio? ","36","33","","0","0","1","competitive","right","1.5645840168","1027.63230991","3.4354159832","1031.22393703","4.21638798714","1035.44038296","1.78361201286","1037.27483582","1038.97711587","1039.05871201","1042.06169796","0","1042.07695389","1046.80325103",""
"sujeto_c36569e9","1","2","12","44","1046.94468594","inverse","1","1","4","¿Qué juego de equipo se 
considera mas rápido?","Lacrosse","Badminton","","0","0","0","competitive","right","2.61486387253","1049.55961394","2.38513612747","1052.09768796","5.35197997093","1057.44973302","0.648020029068","1058.15276098","1059.39586902","1059.47040486","1062.47338104","0","1062.48772883","1070.47966695",""
"sujeto_c36569e9","1","2","13","45","1070.62221789","direct","1","1","3","¿Qué promedio de edad 
vive una jirafa? ","25","20","","0","0","1","competitive","left","3.84871101379","1074.4709909","1.15128898621","1075.78085399","3.57508015633","1079.35597205","2.42491984367","1081.8299849","1083.59154892","1083.66439104","1086.66737103","0","1086.68194699","1092.63768101",""
"sujeto_c36569e9","1","2","14","46","1092.80022788","inverse","1","1","2","¿Cuántos grandes lagos hay?","7","5","","0","0","1","competitive","","4.14003205299","1096.94032192","0.859967947006","1097.95856404","6","1103.95869303","0","1103.97731805","1105.26943088","1105.34411502","1108.34659696","0","1108.36222386","1116.18293905",""
"sujeto_c36569e9","1","2","15","47","1116.31301498","direct","3","1","2","¿Cuántos discos de estudio
 grabó Johhny Cash? ","54","43","","1","1","0","competitive","left","2.27155399323","1118.58461094","2.72844600677","1121.52052689","2.97906303406","1124.49965286","3.02093696594","1127.55514097","1128.83378386","1128.92311096","1131.92606783","1","1131.94096184","1138.58673501",""
"sujeto_c36569e9","1","2","16","48","1138.72578597","inverse","4","1","1","¿Cuántos barrios tiene
 Montevideo? ","71","62","","0","0","1","individual","right","2.37508821487","1141.10093594","2.62491178513","1143.90039802","2.76250910759","1146.66296291","3.23749089241","1149.93319988","1150.94026995","1150.98505998","1153.98806286","0","1154.00247788","1159.46455097",""
"sujeto_c36569e9","1","2","17","49","1159.603827","direct","3","1","3","¿Qué edad tiene Homero Simpson?","36","42","","0","0","1","competitive","left","2.47838711739","1162.08227706","2.52161288261","1164.77771997","3.0815680027","1167.85932803","2.9184319973","1170.81185102","1172.18762398","1172.26262784","1175.26556993","0","1175.28079486","1179.66954398",""
"sujeto_c36569e9","1","2","18","50","1179.81585383","inverse","4","1","2","¿Cuántos países con monarquía 
hay en europa actualmente? ","6","10","","1","1","1","individual","left","2.33059501648","1182.14651203","2.66940498352","1185.0035069","5.65809702873","1190.66162896","0.341902971268","1191.04042196","1192.478724","1192.5240519","1195.52702403","1","1195.54148293","1201.698313",""
"sujeto_c36569e9","1","2","19","51","1201.84235787","direct","2","1","3","¿Cuántos capítulos de
 Friends existen? ","236","228","","1","1","1","competitive","left","4.82936096191","1206.67175984","0.170639038086","1206.99923086","3.10361003876","1210.10290194","2.89638996124","1213.05066895","1214.35624504","1214.43546987","1217.43847704","1","1217.45314097","1219.82877398",""
"sujeto_c36569e9","1","2","20","52","1219.95387983","inverse","1","1","3","¿Cuántas óperas compuso Mozart? ","27","22","","1","1","1","competitive","right","2.73615193367","1222.69014502","2.26384806633","1225.10844588","4.93363595009","1230.04213905","1.06636404991","1231.14481091","1232.43694305","1232.51127982","1235.51425505","1","1235.52855086","1242.84002686",""
"sujeto_c36569e9","1","2","21","53","1242.99743605","direct","4","1","3","¿Cuántos mundiales de fútbol 
femenino ha realizado FIFA? ","9","7","","1","1","1","competitive","","3.68188500404","1246.67938089","1.31811499596","1248.16796303","6","1254.16813397","0","1254.18869495","1255.43241286","1255.50747085","1258.51041484","0","1258.52472186","1264.62720394",""
"sujeto_c36569e9","1","2","22","54","1264.75895596","inverse","3","1","2","¿Cuál es la temperatura 
media anual en Montevideo? ","17.5","16.3","","0","0","1","individual","right","3.44267606735","1268.20167398","1.55732393265","1269.91591001","4.90981507301","1274.82576489","1.09018492699","1275.95148087","1277.89010096","1277.93520284","1280.93817186","0","1280.95276403","1287.52148986",""
"sujeto_c36569e9","1","2","23","55","1287.65415192","direct","2","1","2","¿En qué año se estrenó el
 videojuego The Sims? ","2000","2002","","0","0","0","competitive","right","3.47076797485","1291.12498188","1.52923202515","1292.79468894","4.48224806786","1297.27699399","1.51775193214","1298.83029699","1300.69231892","1300.76333189","1303.76631689","0","1303.78193498","1311.17558503",""
"sujeto_c36569e9","1","2","24","56","1311.31635499","inverse","2","1","1","¿Cuál es la canción con 
mas covers? ","Yesterday","Stand by me","","0","0","0","competitive","right","3.29387998581","1314.61029696","1.70612001419","1316.47419286","4.44309306145","1320.91732693","1.55690693855","1322.52623892","1323.924824","1324.00980592","1327.01275682","0","1327.02696204","1331.19779491",""
"sujeto_c36569e9","1","2","25","57","1331.34537888","direct","1","1","4","¿Cuánto duró la guerra
 de los 100 años?","116","123","","0","0","0","competitive","","1.85109686852","1333.19656801","3.14890313148","1336.53502083","6","1342.53513384","0","1342.54920387","1344.03005505","1344.10273004","1347.10571098","0","1347.11988997","1349.43968201",""
"sujeto_c36569e9","1","2","26","58","1349.58877206","inverse","4","1","4","¿Qué color tiene la  bandera de Brasil?","Amarillo","Naranja","left","0","0","1","competitive","left","4.19997811317","1353.78881097","0.800021886826","1354.74320793","3.11461281776","1357.85787988","2.88538718224","1360.77860403","1362.34464788","1362.430305","1365.43328905","1","1365.44771385","1368.48052692",""
"sujeto_c36569e9","1","2","27","59","1368.63265085","direct","4","1","3","¿Qué carabela de 
Colon no volvió del viaje?","Santa María","La pinta","","0","0","1","individual","","4.26830506325","1372.901021","0.731694936752","1373.80437994","6","1379.80454588","0","1379.82315087","1381.31416893","1381.35697985","1384.35991287","0","1384.37423801","1386.47369599",""
"sujeto_c36569e9","1","2","28","60","1386.608634","inverse","4","1","4","¿Cuántos huesos tiene
 un adulto humano?","217","206","","0","0","1","competitive","right","2.48751497269","1389.09619594","2.51248502731","1391.76419902","3.34804296494","1395.11230302","2.65195703506","1397.81421995","1399.08436084","1399.165555","1402.16854405","0","1402.18302798","1410.0206759",""
"sujeto_c36569e9","1","2","29","61","1410.151474","direct","1","1","1","¿Qué país africano fue 
fundado por esclavos?","Liberia","Chad","","0","0","0","competitive","left","2.05800914764","1412.20957685","2.94199085236","1415.31035995","4.39318990707","1419.70359087","1.60681009293","1421.34439397","1423.33558393","1423.41219902","1426.41518784","0","1426.42971802","1434.42057085",""
"sujeto_c36569e9","1","2","30","62","1434.58129287","inverse","4","1","2","¿A cuánto asciende la cima
 del monte Everest?","7.990 mts","8.848 mts","","0","0","1","individual","right","2.50249004364","1437.08384705","2.49750995636","1439.75507498","3.43176221848","1443.18689585","2.56823778152","1445.806463","1446.9913249","1447.04136395","1450.04432893","0","1450.05887198","1457.24287486",""
"sujeto_c36569e9","1","2","31","63","1457.39408088","direct","4","1","1","¿Cuál es el país mas chico?","Sealand","Luxemburgo","","1","1","1","individual","right","3.46399211884","1460.85811687","1.53600788116","1462.56782103","3.74537014961","1466.31324983","2.25462985039","1468.60208082","1470.46562099","1470.50287104","1473.50584197","1","1473.52154088","1476.64383292",""
"sujeto_c36569e9","1","2","32","64","1476.78961205","inverse","2","1","4","¿Cuántas pirámides hay en Egipto?","10000","11000","","1","1","1","competitive","left","3.4446709156","1480.23435092","1.5553290844","1481.94451785","4.749781847","1486.69433904","1.250218153","1487.99594092","1489.02953887","1489.11380792","1492.11680198","1","1492.13099885","1497.24007893",""
"sujeto_c36569e9","1","3","1","65","1617.87711096","direct","2","1","2","¿Cuál es el quinto país con 
mas extensión?","Canadá","Brasil","","1","1","0","competitive","right","1.73389196396","1619.61106896","3.26610803604","1623.03641391","4.60168099403","1627.63815498","1.39831900597","1629.0864079","1630.41971684","1630.50493693","1633.50795102","1","1633.52214503","1641.248523","1497.25898194"
"sujeto_c36569e9","1","3","2","66","1641.38956499","inverse","1","1","2","¿Qué rasgo facial no tiene
 la Mona Lisa?","Cejas","Pómulos","","0","0","1","competitive","right","4.17670917511","1645.56631303","0.82329082489","1646.54821897","4.54715776443","1651.09541583","1.45284223557","1652.5827589","1654.33320403","1654.4170959","1657.42006683","0","1657.43434405","1663.70568299",""
"sujeto_c36569e9","1","3","3","67","1663.86892605","direct","4","1","3","¿Cuál es el país con 
mayor población?","Esados Unidos","China","right","0","0","1","individual","right","4.40865302086","1668.27763987","0.591346979141","1669.02667284","2.85193896294","1671.87867999","3.14806103706","1675.07766986","1676.72364402","1676.76174283","1679.76468086","1","1679.78030801","1683.14758992",""
"sujeto_c36569e9","1","3","4","68","1683.28152585","inverse","1","1","1","La palabra dinosaurio significa","Lagarto Terrible","Lagarto Dragón","","1","1","0","competitive","","2.71026706696","1685.99185395","2.28973293304","1688.43635488","6","1694.43655086","0","1694.45476985","1695.62462091","1695.70566201","1698.70865583","0","1698.72305989","1701.58371902",""
"sujeto_c36569e9","1","3","5","69","1701.72452903","direct","2","1","3","¿Qué es el membrillero?","Arbol","Arbusto","","0","0","0","competitive","left","2.06445193291","1703.78902197","2.93554806709","1706.87997985","3.51999902725","1710.40003705","2.48000097275","1712.93060184","1714.88472605","1714.965837","1717.9676559","0","1717.9829309","1724.44682884",""
"sujeto_c36569e9","1","3","6","70","1724.58432484","inverse","3","1","3","¿Alrededor de qué planeta orbita 
el satélite Europa?","Jupiter","Saturno","","1","1","1","competitive","left","1.53889298439","1726.12327886","3.46110701561","1729.73866105","5.85562992096","1735.594347","0.144370079041","1735.77525187","1737.32007504","1737.39187598","1740.39485598","1","1740.40953493","1742.61471295",""
"sujeto_c36569e9","1","3","7","71","1742.74394894","direct","3","1","1","¿Donde fue el mundial de 
fútbol de 1954?","Suiza","Suecia","","1","1","1","competitive","right","3.79953789711","1746.54356503","1.20046210289","1747.90194488","5.83058404922","1753.73258901","0.169415950775","1753.95355392","1755.20617986","1755.28719282","1758.29017687","1","1758.30433583","1762.21610594",""
"sujeto_c36569e9","1","3","8","72","1762.35592985","inverse","1","1","4","¿Cuál de los 7 enanitos
no tenía barba?","Bashful","Mudito","","1","1","0","competitive","right","1.83477091789","1764.19076395","3.16522908211","1767.52816987","5.15260887146","1772.68081999","0.84739112854","1773.57990694","1775.16004992","1775.23014903","1778.23313093","1","1778.24861884","1783.17772102",""
"sujeto_c36569e9","1","3","9","73","1783.31583786","direct","3","1","2","¿Cual red social es
mas utilizada mundialmente?","Instagram","Facebook","","1","1","0","individual","left","3.50610303879","1786.82198286","1.49389696121","1788.47301292","4.59693384171","1793.07000399","1.40306615829","1794.52420092","1796.44158602","1796.49215388","1799.49264693","1","1799.50920105","1802.44189405",""
"sujeto_c36569e9","1","3","10","74","1802.59581304","inverse","4","1","1","¿Cuándo se inició la copa
 América de fútbol?","1916","1923","","1","1","1","competitive","left","1.88237309456","1804.47824788","3.11762690544","1807.76457","5.5786550045","1813.34326601","0.421344995499","1813.80192089","1815.69938684","1815.78501487","1818.787642","1","1818.8032589","1821.45936394",""
"sujeto_c36569e9","1","3","11","75","1821.60492682","direct","3","1","4","¿Cuántos presidentes de EEUU
han muerto asesinados?","3","4","","0","0","1","competitive","left","1.71844410896","1823.32341385","3.28155589104","1826.75934196","4.79712295532","1831.55657196","1.20287704468","1832.794276","1834.27825093","1834.36124086","1837.36425805","0","1837.37893891","1841.02304888",""
"sujeto_c36569e9","1","3","12","76","1841.18097901","inverse","2","1","4","¿Cuántas veces participó EEUU
 en la copa América?","4","5","","0","0","1","competitive","left","1.49862909317","1842.67968082","3.50137090683","1846.35145497","4.5382142067","1850.88973403","1.4617857933","1852.40412188","1853.8482399","1853.92160296","1856.92445588","0","1856.93928099","1863.05646896",""
"sujeto_c36569e9","1","3","13","77","1863.20721984","direct","4","1","1","¿Cuál de estos países 
no formaba la URSS?","Azeribayán","Afganistán","","0","0","1","individual","","4.04763507843","1867.25489783","0.95236492157","1868.38157701","6","1874.38170195","0","1874.39672089","1875.70977402","1875.74866486","1878.75163198","0","1878.76621103","1886.74526",""
"sujeto_c36569e9","1","3","14","78","1886.90038395","inverse","1","1","1","¿En qué año se inauguró
 el teatro Solís?","1867","1856","","0","0","0","competitive","left","3.03075480461","1889.93123484","1.96924519539","1892.09353995","4.53965711594","1896.63323903","1.46034288406","1898.14556384","1899.201895","1899.27884889","1902.281847","0","1902.29639196","1908.94418097",""
"sujeto_c36569e9","1","3","15","79","1909.08195305","direct","1","1","4","¿A qué velocidad vuela 
el avión más rápido?","3529","3874","","0","0","0","competitive","right","2.4844751358","1911.56648993","2.5155248642","1914.23694301","4.85557508469","1919.09257102","1.14442491531","1920.29018188","1922.04570794","1922.12410903","1925.1270659","0","1925.14162588","1927.25186801",""
"sujeto_c36569e9","1","3","16","80","1927.39391804","inverse","3","1","4","¿De qué año es la primer 
película cinematográfica?","1897","1888","","0","0","0","competitive","right","3.00769615173","1930.40168095","1.99230384827","1932.56526685","5.48731899261","1938.05264401","0.512681007385","1938.61691594","1939.74987793","1939.83438993","1942.83657384","0","1942.85176587","1948.26156402",""
"sujeto_c36569e9","1","3","17","81","1948.40259886","direct","2","1","3","¿Cuántos países 
tiene nuestro planeta?","191","194","","1","1","1","competitive","right","3.92631292343","1952.32897902","1.07368707657","1953.55976391","5.47209787369","1959.03191996","0.527902126312","1959.60961795","1960.96678305","1961.04278994","1964.04577088","1","1964.06022787","1967.29853201",""
"sujeto_c36569e9","1","3","18","82","1967.42875504","inverse","2","1","2","¿Cuántos habitantes
 tiene Buenos Aires?","2.9000.000","3650000","","0","0","0","competitive","left","2.14727210999","1969.57608891","2.85272789001","1972.60146904","5.50857114792","1978.11007786","0.491428852081","1978.63840294","1980.035676","1980.12087798","1983.12389302","0","1983.13969803","1988.96905398",""
"sujeto_c36569e9","1","3","19","83","1989.12386584","direct","2","1","1","¿Cuántos kilos forman una tonelada?","1000","1500","left","1","1","1","competitive","left","2.66838502884","1991.79231286","2.33161497116","1994.29547286","2.58281588554","1996.87834883","3.41718411446","2000.33143401","2002.21876502","2002.29954696","2005.30253601","1","2005.31773901","2011.27518106",""
"sujeto_c36569e9","1","3","20","84","2011.41876292","inverse","4","1","4","¿Cuántos estados tiene la 
República del Perú? ","24","23","","0","0","1","individual","right","3.42077302933","2014.83960795","1.57922697067","2016.59127283","3.2132999897","2019.80461287","2.7867000103","2022.62624884","2023.64839196","2023.69443488","2026.69742298","0","2026.71158504","2031.65689802",""
"sujeto_c36569e9","1","3","21","85","2031.81371689","direct","3","1","3","¿En qué año nació Cristóbal Colón? ","1451","1447","","0","0","1","competitive","left","4.47401189804","2036.28777194","0.525988101959","2036.97001004","4.01575088501","2040.98582101","1.98424911499","2043.01937294","2044.86528802","2044.93647885","2047.93952584","0","2047.95405293","2052.18200302",""
"sujeto_c36569e9","1","3","22","86","2052.32310891","inverse","4","1","4","¿Cuánto mide la 
Montaña Aconcagua? ","6234","6962","","0","0","1","individual","left","2.06820583344","2054.39141202","2.93179416656","2057.49593997","5.03011608124","2062.52611494","0.969883918762","2063.53224993","2064.82161403","2064.86650991","2067.869488","0","2067.88408303","2075.0677259",""
"sujeto_c36569e9","1","3","23","87","2075.21827698","direct","2","1","4","¿Cuánto mide el punto
 más profundo del océano? ","12508","11003","","0","0","1","competitive","right","1.7249250412","2076.94326901","3.2750749588","2080.37632298","5.71897315979","2086.09535503","0.28102684021","2086.42835498","2087.67987704","2087.76205492","2090.76463604","0","2090.77896404","2094.98517299",""
"sujeto_c36569e9","1","3","24","88","2095.13290906","inverse","1","1","3","¿Cuántos álbumes ha publicado 
el cantante Jaime Roos? ","41","34","","0","0","1","competitive","left","4.94555401802","2100.07852888","0.0544459819794","2100.28378892","3.74970293045","2104.03356504","2.25029706955","2106.32135296","2107.81121492","2107.8887639","2110.89095283","0","2110.90674496","2117.10290694",""
"sujeto_c36569e9","1","3","25","89","2117.24154592","direct","4","1","3","¿En qué año nació el 
ex-presidente Jorge Battle? ","1921","1927","","1","1","1","","","","","","","","","","","","","","","2122.26503205","2125.75109196",""
"sujeto_c36569e9","1","3","26","90","2125.88057685","inverse","1","1","3","¿Cuántas presidencias 
constitucionales  hubo en Uruguay? ","41","42","","0","0","1","competitive","left","1.94622302055","2127.82684588","3.05377697945","2131.03645897","4.55333900452","2135.58983493","1.44666099548","2137.08699393","2138.29071903","2138.37032199","2141.37330604","0","2141.38840985","2147.17205095",""
"sujeto_c36569e9","1","3","27","91","2147.30592585","direct","1","1","2","¿Quién escribió mas sinfonías?","Mozart","Haydn","","1","1","0","competitive","left","3.77308392525","2151.07905197","1.22691607475","2152.46397305","3.51308608055","2155.97710299","2.48691391945","2158.51291585","2159.7304039","2159.81415796","2162.81714892","1","2162.83168006","2166.58308005",""
"sujeto_c36569e9","1","3","28","92","2166.73287296","inverse","4","1","2","¿En qué año nació Michael Jackson?","1958","1953","","1","1","1","individual","right","1.44130897522","2168.17424297","3.55869102478","2171.89072204","4.50452208519","2176.39530206","1.49547791481","2177.94196987","2179.92016482","2179.95941091","2182.96238589","1","2182.97709203","2188.83939695",""
"sujeto_c36569e9","1","3","29","93","2188.99544191","direct","3","1","2","¿En qué año entró en vigencia 
la ley antitabaco en Uruguay?","2005","2006","","1","1","1","individual","left","1.70302700996","2190.69851804","3.29697299004","2194.16763306","5.33190894127","2199.49958396","0.668091058731","2200.22065783","2201.81539488","2201.85444593","2204.85742283","1","2204.87228394","2210.20628786",""
"sujeto_c36569e9","1","3","30","94","2210.34038687","inverse","3","1","1","¿Cuándo se subió el 
primer video a youtube?","2004","2005","","0","0","1","individual","left","2.4153470993","2212.75579405","2.5846529007","2215.51222301","3.47558403015","2218.98786688","2.52441596985","2221.56514192","2222.87076092","2222.91631794","2225.91928697","0","2225.93354988","2233.68913794",""
"sujeto_c36569e9","1","3","31","95","2233.81828094","direct","2","1","1","¿Cuántos habitantes tiene India?","1200 millones","1300 millones","","0","0","0","individual","left","2.00567698479","2235.82401991","2.99432301521","2238.97632194","3.40268397331","2242.37904692","2.59731602669","2245.02713203","2246.99678802","2247.04474187","2250.04771996","0","2250.06212997","2256.10964298",""
"sujeto_c36569e9","1","3","32","96","2256.24767494","inverse","4","1","2","¿A qué edad murió Bob Marley?","36","37","","0","0","1","","","","","","","","","","","","","","","2261.27058887","2264.37307096",""
"sujeto_c36569e9","1","4","1","97","2418.65164304","direct","2","1","1","¿Cuantos años dirigió la selección 
uruguaya Tabarez?","15 años","13 años","","0","0","0","individual","right","1.73529601097","2420.387007","3.26470398903","2423.82306504","5.17895102501","2429.00205493","0.821048974991","2429.87457395","2431.06573796","2431.10848403","2434.1114819","0","2434.12585402","2441.19518805","2264.38339186"
"sujeto_c36569e9","1","4","2","98","2441.34394693","inverse","4","1","1","¿Cuantas teclas tiene un teclado 
de computadora generalmente? ","Entre 99 y 108","Entre 109 y 113","","1","1","1","individual","","1.61225795746","2442.95624995","3.38774204254","2446.50174093","6","2452.50188088","0","2452.51671195","2453.51947498","2453.56982899","2456.57281089","0","2456.58703804","2458.95847487",""
"sujeto_c36569e9","1","4","3","99","2459.106076","direct","1","1","1","¿Cuál Departamento tiene
 mayor superficie?","Río Negro","Soriano","","0","0","0","competitive","left","1.69138216972","2460.79751205","3.30861783028","2464.26126289","5.86114287376","2470.12246585","0.138857126236","2470.31086898","2472.02432704","2472.09425092","2475.0965879","0","2475.11223102","2479.43835592",""
"sujeto_c36569e9","1","4","4","100","2479.58070993","inverse","3","1","2","¿Cuál es el apellido de las 
hermanastras  de  cenicienta?","Tremaine","Truman","","0","0","1","individual","","3.68890094757","2483.269665","1.31109905243","2484.73897004","6","2490.73912287","0","2490.75620484","2492.62557888","2492.67389894","2495.67683387","0","2495.69146395","2498.38746595",""
"sujeto_c36569e9","1","4","5","101","2498.526191","direct","4","1","4","¿Cuál película ganó un
 Oscar a mejor película?","Alto Impacto","Cache","","0","0","1","individual","","2.52360701561","2501.04985785","2.47639298439","2503.71581697","6","2509.71594191","0","2509.73267794","2510.85202193","2510.90051794","2513.90352082","0","2513.91768289","2516.18165493",""
"sujeto_c36569e9","1","4","6","102","2516.31941986","inverse","1","1","3","¿A cuántos centímetros
equivale la medida pié?","25","30","","0","0","1","competitive","left","1.5836019516","2517.90308499","3.4163980484","2521.47093987","3.89414095879","2525.36512089","2.10585904121","2527.50634098","2528.54635501","2528.62387896","2531.626894","0","2531.64143801","2537.04235101",""
"sujeto_c36569e9","1","4","7","103","2537.19626188","direct","2","1","2","¿Qué departamento es mas grande?","Cerro Largo","Paysandú","","0","0","0","competitive","right","4.25289797783","2541.4492209","0.747102022171","2542.36734104","4.40694713593","2546.77432895","1.59305286407","2548.41976905","2550.01954484","2550.10395098","2553.10693693","0","2553.12162995","2557.23156786",""
"sujeto_c36569e9","1","4","8","104","2557.37455988","inverse","2","1","3","¿Quién pintó la Mona Lisa?","Picasso","Da Vinci","right","0","0","1","competitive","right","2.48390293121","2559.85856485","2.51609706879","2562.56107092","3.57334184647","2566.13446999","2.42665815353","2568.61369586","2570.21957493","2570.29818392","2573.29984093","1","2573.31613493","2575.47843695",""
"sujeto_c36569e9","1","4","9","105","2575.61697888","direct","4","1","3","¿Cuántos litros hay en un galon?","3.54","3.78","","1","1","1","individual","left","2.12663388252","2577.74368191","2.87336611748","2580.77192903","4.00175309181","2584.77374697","1.99824690819","2586.82368088","2588.34155488","2588.39145303","2591.394449","1","2591.40869284","2597.19967198",""
"sujeto_c36569e9","1","4","10","106","2597.34341192","inverse","4","1","1","¿Cuántas teclas tiene
 un piano moderno?","80","88","","0","0","1","individual","right","2.48241901398","2599.82587504","2.51758098602","2602.51477003","4.0481441021","2606.56297493","1.9518558979","2608.55148888","2609.55998182","2609.60219193","2612.60516191","0","2612.61978388","2619.41754389",""
"sujeto_c36569e9","1","4","11","107","2619.5540309","direct","4","1","3","¿Cuántos países hay en África?","54","62","","0","0","1","individual","left","1.7587659359","2621.31285906","3.2412340641","2624.71170688","2.16609883308","2626.8778429","3.83390116692","2630.76203394","2632.45258093","2632.49704504","2635.50001502","0","2635.51440191","2643.31863904",""
"sujeto_c36569e9","1","4","12","108","2643.46511388","inverse","1","1","3","¿En qué siglo se crearon
 las primeras pistolas?","XV","XIII","","1","1","1","competitive","right","3.49337601662","2646.95855403","1.50662398338","2648.64046192","5.48293399811","2654.12343693","0.517066001892","2654.69208002","2656.63955903","2656.725559","2659.72854686","1","2659.74386191","2662.97696996",""
"sujeto_c36569e9","1","4","13","109","2663.12828803","direct","3","1","4","¿En qué año se estrenó 
la serie friends?","1994","1995","","0","0","1","competitive","right","1.97810912132","2665.10648799","3.02189087868","2668.29917789","3.69310998917","2671.99233103","2.30689001083","2674.33461499","2676.20959187","2676.28511786","2679.28808093","0","2679.30325294","2684.30932903",""
"sujeto_c36569e9","1","4","14","110","2684.45452094","inverse","3","1","4","¿En qué año nació Hitler?","1889","1887","","0","0","1","competitive","left","1.30668592453","2685.76128101","3.69331407547","2689.61182499","4.4362449646","2694.04813695","1.5637550354","2695.66238093","2696.77663088","2696.86272597","2699.86571503","0","2699.88024688","2704.90725398",""
"sujeto_c36569e9","1","4","15","111","2705.04783297","direct","1","1","4","¿Cuánto pesa un elefante Africano?","6000 kilos","5400 kilos","","0","0","0","competitive","left","1.50615882874","2706.55405283","3.49384117126","2710.20510292","3.29679179192","2713.50195503","2.70320820808","2716.25563383","2717.61055493","2717.69054794","2720.69354796","0","2720.70701694","2727.41408205",""
"sujeto_c36569e9","1","4","16","112","2727.55899692","inverse","1","1","2","¿Qué porcentaje de 
la población es zurda?","10%","7%","","1","1","0","","","","","","","","","","","","","","","2732.58326006","2738.56295085",""
"sujeto_c36569e9","1","4","17","113","2738.69862795","direct","1","1","2","¿En qué año se estrenó
Volver al futuro?","1984","1985","","0","0","1","individual","right","1.66414499283","2740.36283803","3.33585500717","2743.85551405","3.92512011528","2747.78067493","2.07487988472","2749.88948989","2751.45133901","2751.48997998","2754.49295187","0","2754.50809503","2761.59859991",""
"sujeto_c36569e9","1","4","18","114","2761.74192905","inverse","3","1","2","¿Cuántos jugadores hay en un 
equipo de baseball?","9","8","","1","1","0","competitive","left","1.70069408417","2763.44268894","3.29930591583","2766.91538286","4.24501204491","2771.16045094","1.75498795509","2772.951689","2774.56598306","2774.65200591","2777.65460396","1","2777.67017293","2782.64738202",""
"sujeto_c36569e9","1","4","19","115","2782.78809595","direct","2","1","1","¿Cuántos Oscar ganó
 la película titanic?","13","11","","1","1","1","individual","right","1.68328690529","2784.47142506","3.31671309471","2787.94382787","5.06646108627","2793.01034904","0.933538913727","2793.99622989","2795.29823685","2795.34661388","2798.34859586","1","2798.36399388","2802.96658587",""
"sujeto_c36569e9","1","4","20","116","2803.11462593","inverse","4","1","4","¿En qué año comenzó
la segunda guerra mundial?","1939","1976","left","0","0","1","","","","","","","","","","","","","","","2808.13405085","2812.12114286",""
"sujeto_c36569e9","1","4","21","117","2812.23574805","direct","2","1","4","¿Cuántos biomas hay en Uruguay?","5","4","","0","0","1","competitive","right","1.94349908829","2814.17930889","3.05650091171","2817.39292598","2.41727113724","2819.810256","3.58272886276","2823.44301701","2825.24037886","2825.31146002","2828.31444502","0","2828.32873392","2834.57814789",""
"sujeto_c36569e9","1","4","22","118","2834.71408105","inverse","2","1","3","¿Cuándo murió Pablo Escobar?","1993","1997","","1","1","1","individual","right","2.14998197556","2836.86410499","2.85001802444","2839.87037396","3.30365180969","2843.17406583","2.69634819031","2845.92097998","2847.70384288","2847.75637698","2850.7593379","1","2850.77379894","2856.47748685",""
"sujeto_c36569e9","1","4","23","119","2856.60874104","direct","1","1","4","¿Qué serie ha ganado mas premios?","Friends","Murphy Brown","","1","1","0","competitive","left","1.84828090668","2858.45708585","3.15171909332","2861.78039598","5.01954102516","2866.80000186","0.980458974838","2867.831249","2869.18368983","2869.26516891","2872.26815701","1","2872.28273702","2877.84364486",""
"sujeto_c36569e9","1","4","24","120","2877.98461699","inverse","4","1","2","¿Cuántas fichas tiene el dominó?","26","28","","1","1","1","individual","right","1.51027798653","2879.49493885","3.48972201347","2883.14296889","4.28090190887","2887.42392993","1.71909809113","2889.17669892","2890.23202991","2890.27821898","2893.28120494","1","2893.29499483","2898.538131",""
"sujeto_c36569e9","1","4","25","121","2898.68006897","direct","2","1","4","¿Cuántos son los dientes de leche?","20","25","","0","0","1","competitive","right","2.47074508667","2901.15085793","2.52925491333","2903.85211802","3.75668001175","2907.6088419","2.24331998825","2909.90446401","2911.61455703","2911.68866205","2914.69161105","0","2914.70581484","2916.85153985",""
"sujeto_c36569e9","1","4","26","122","2916.9907279","inverse","3","1","3","¿Cuántos gramos son una onza?","22","28","","0","0","1","individual","right","1.52490997314","2918.51569891","3.47509002686","2922.14422798","2.72350001335","2924.86779404","3.27649998665","2928.19485497","2930.18957591","2930.23041892","2933.23339295","0","2933.24766803","2939.53792",""
"sujeto_c36569e9","1","4","27","123","2939.68245697","direct","3","1","1","¿Cuándo salió el primer album
 de los Beatles?","1963","1962","","1","1","1","individual","right","1.21331000328","2940.89583683","3.78668999672","2944.87455702","4.54507112503","2949.41969204","1.45492887497","2950.92634392","2952.08996987","2952.12573004","2955.12870693","1","2955.14327788","2958.91532683",""
"sujeto_c36569e9","1","4","28","124","2959.04512","inverse","3","1","3","¿Quién fundó la empresa apple?","Carlos Slim","Steve Jobs","","1","1","1","individual","right","1.47756505013","2960.5227499","3.52243494987","2964.20118785","3.50043511391","2967.7016809","2.49956488609","2970.2519989","2971.36668491","2971.40294099","2974.40591002","1","2974.41968894","2980.71754003",""
"sujeto_c36569e9","1","4","29","125","2980.85420895","direct","4","1","2","¿Cuántos municipios hay
 en Montevideo?","8","7","","1","1","1","individual","left","3.29142785072","2984.14568186","1.70857214928","2986.00866199","2.2239780426","2988.23269987","3.7760219574","2992.06229091","2993.97707605","2994.01421404","2997.01719189","1","2997.03147602","2999.11264396",""
"sujeto_c36569e9","1","4","30","126","2999.25058699","inverse","1","1","1","¿Cuántos kilómetros hay
 de Montevideo a Artigas?","632","599","","0","0","0","individual","left","1.83490014076","3001.08553791","3.16509985924","3004.43416691","2.83636689186","3007.27057791","3.16363310814","3010.48654699","3011.96969104","3012.02117491","3015.02413988","0","3015.03856206","3021.09068298",""
"sujeto_c36569e9","1","4","31","127","3021.23971796","direct","2","1","2","¿En qué año nació 
Leonardo Da Vinci?","1452","1511","","1","1","0","individual","left","1.71783280373","3022.95759988","3.28216719627","3026.39789605","2.10461997986","3028.5025599","3.89538002014","3032.44904804","3034.30267","3034.35088897","3037.35387301","1","3037.36840391","3040.51482201",""
"sujeto_c36569e9","1","4","32","128","3040.65320992","inverse","3","1","1","¿A qué continente
 pertenece el país Gabón?","Africa","Oceanía","","0","0","1","individual","left","1.18232607841","3041.83560801","3.81767392159","3045.82556391","5.33590197563","3051.16155291","0.664098024368","3051.87716603","3053.68883085","3053.72799993","3056.73097992","0","3056.74540401","3061.98330593",""
