"code","nro_aplicante","nro_bloque","nro_trial_bloque","nro_trial_global","show_game_type","choice_order","rival","pay_individual","pay_competitive","question","answer_left_text","answer_right_text","correct_answer","outcome_individual","outcome_competitive","outcome_rival","game_type","answer","social_time","rt_game_type","feedback_delay","show_question","answer_time","rt_answer_global","feedback_delay_2","show_jitter","jitter_time","show_outcome","outcome_time","outcome_participant_real","show_final_jitter","second_jitter_time","inicio_descanso"
"sujeto_1d9a94b2","1","1","1","1","681.984362841","direct","3","1","4","¿Cuántos centímetros corresponden
al talle 36 del calzado?","23","24","","0","0","1","competitive","right","1.41218090057","683.396613836","3.58781909943","687.155359983","4.17124199867","691.326650858","1.82875800133","693.205667973","694.233968973","694.322635889","697.325601816","0","697.340306997","699.501996994",""
"sujeto_1d9a94b2","1","1","2","2","699.642642975","inverse","3","1","2","¿Cuántas metros mide la Intendencia
Municipal de Montevideo? ","84","78","","0","0","1","competitive","right","0.947072982788","700.589782953","4.05292701721","704.797858","3.99987506866","708.797775984","2.00012493134","710.848815918","712.726856947","712.800030947","715.803014994","0","715.817514896","717.910284996",""
"sujeto_1d9a94b2","1","1","3","3","718.052737951","direct","1","1","3","¿Cuántas La Pasiva
 hay en uruguay?","15","11","","1","1","1","competitive","right","1.0780980587","719.130916834","3.9219019413","723.206880808","3.43595504761","726.642907858","2.56404495239","729.257840872","730.869513988","730.942938805","733.945917845","1","733.960290909","738.238659859",""
"sujeto_1d9a94b2","1","1","4","4","738.377478838","inverse","3","1","3","¿De que color es la camiseta de uruguay?","blanca","celeste","right","1","1","1","competitive","right","0.926460981369","739.303980827","4.07353901863","743.515162945","2.44185709953","745.957078934","3.55814290047","749.567379951","750.772005796","750.852259874","753.855232954","1","753.869490862","757.321411848",""
"sujeto_1d9a94b2","1","1","5","5","757.47297287","direct","2","1","1","¿Cuánto metros mide
la torre Eiffel?","333","324","","1","1","1","competitive","left","1.00316905975","758.476188898","3.99683094025","762.628441811","2.69567704201","765.324162006","3.30432295799","768.660966873","770.182364941","770.262825012","773.265815973","1","773.280402899","780.317098856",""
"sujeto_1d9a94b2","1","1","6","6","780.44836688","inverse","3","1","4","¿Cuantas ciudades existen
 en todo el uruguay?","63","72","","0","0","1","competitive","right","0.553941965103","781.002374887","4.4460580349","785.605983019","2.4313390255","788.037387848","3.5686609745","791.656113863","792.710945845","792.79151082","795.794487953","0","795.809180975","803.435782909",""
"sujeto_1d9a94b2","1","1","7","7","803.581520796","direct","1","1","1","¿Cuantos estados tiene África?","52","54","","1","1","0","competitive","left","1.12694692612","804.708529949","3.87305307388","808.735165834","2.87142205238","811.606647015","3.12857794762","814.785696983","816.649708986","816.720914841","819.723913908","1","819.73820281","825.499238014",""
"sujeto_1d9a94b2","1","1","8","8","825.639765024","inverse","4","1","4","¿En qué año nació
 Stephen Hawking?","1952","1942","","0","0","1","competitive","right","0.610028982162","826.249862909","4.38997101784","830.796317816","2.5255279541","833.321895838","3.4744720459","836.847309828","838.291605949","838.365028858","841.368006945","0","841.385113001","847.484478951",""
"sujeto_1d9a94b2","1","1","9","9","847.632960796","direct","2","1","3","¿Cuánto años tenía Artigas
 cuando se fue a Paraguay?","56","57","","1","1","1","competitive","left","0.665148019791","848.298175812","4.33485198021","852.806381941","3.2147731781","856.021214008","2.7852268219","858.857469797","860.40700984","860.492947817","863.495963812","1","863.509538889","869.556851864",""
"sujeto_1d9a94b2","1","1","10","10","869.715187788","inverse","1","1","2","¿Cuantos milímetros 
mide una hoja A2?","420x592","420x594","","0","0","1","competitive","right","0.520184993744","870.235417843","4.47981500626","874.886703014","3.39969396591","878.286437988","2.60030603409","880.937215805","882.505649805","882.588490009","885.591466904","0","885.606117964","892.676560879",""
"sujeto_1d9a94b2","1","1","11","11","892.811363935","direct","3","1","3","¿Cuál es la menor temperatura 
registrada en Uruguay?","-5.4","-7.4","","0","0","1","competitive","left","0.619251012802","893.43065691","4.3807489872","897.981721878","3.37790799141","901.359669924","2.62209200859","904.016189814","905.698251963","905.78411293","908.787096024","0","908.801692963","912.535000801",""
"sujeto_1d9a94b2","1","1","12","12","912.688565969","inverse","2","1","2","¿Cuantos años hace que 
se fundó facebook?","18","17","","0","0","0","competitive","left","0.602302074432","913.290930986","4.39769792557","917.85946393","2.76644277573","920.625983","3.23355722427","923.909950018","925.282723904","925.361148834","928.364089966","0","928.379375935","931.153981924",""
"sujeto_1d9a94b2","1","1","13","13","931.294639826","direct","1","1","4","¿Cuál animal es más
 pesado en promedio?","Rinoceronte","Hipopotamo","","0","0","0","competitive","right","0.585355043411","931.880059958","4.41464495659","936.451167822","3.39188098907","939.843086004","2.60811901093","942.535372019","943.614627838","943.68670392","946.689689875","0","946.704137802","950.545103788",""
"sujeto_1d9a94b2","1","1","14","14","950.672264814","inverse","1","1","2","¿Qué personaje de dragon ball 
murió más veces?","Chaoz","Krillin","","1","1","0","competitive","right","0.508057117462","951.180392981","4.49194288254","955.828686953","3.57053399086","959.399283886","2.42946600914","961.873617887","963.331404924","963.407274008","966.410244942","1","966.425531864","974.198427916",""
"sujeto_1d9a94b2","1","1","15","15","974.347567797","direct","3","1","2","La universidad de oxford. 
existe desde:","1096","1249","","1","1","0","competitive","left","0.849939107895","975.19754982","4.15006089211","979.50839901","3.25816202164","982.766619921","2.74183797836","985.559369802","986.608196974","986.693856955","989.696831942","1","989.711262941","996.402132988",""
"sujeto_1d9a94b2","1","1","16","16","996.546533823","inverse","3","1","1","¿Qué escritor latino ganó antes
 el premio nobel?"," García Marquez","Neruda","","0","0","1","competitive","right","1.66427302361","998.210871935","3.33572697639","1001.70424581","3.78857398033","1005.49286389","2.21142601967","1007.75504589","1009.49506283","1009.57240796","1012.57539392","0","1012.58983994","1016.05038381",""
"sujeto_1d9a94b2","1","1","17","17","1016.19217086","direct","4","1","3","¿Cuántos dientes tiene un
 tiburón blanco?","6000","3000","","0","0","1","competitive","left","0.660815954208","1016.8530879","4.33918404579","1021.36156702","3.16441893578","1024.52602792","2.83558106422","1027.41230798","1028.45132184","1028.53001189","1031.53299999","0","1031.5474298","1036.35708284",""
"sujeto_1d9a94b2","1","1","18","18","1036.50049281","inverse","4","1","1","¿Cuánto mide el paralelo Ecuador?","40.000km","70.000km","","0","0","1","competitive","right","0.564794063568","1037.06535602","4.43520593643","1041.65810299","2.92414498329","1044.58230686","3.07585501671","1047.70781398","1049.66393781","1049.74376583","1052.74674988","0","1052.76027679","1056.36285281",""
"sujeto_1d9a94b2","1","1","19","19","1056.51399899","direct","4","1","2","¿Cuál fue el primer libro 
de Stephen King?","Carrie","The Stand","","1","1","1","competitive","right","0.593379020691","1057.10741997","4.40662097931","1061.68513083","3.27941298485","1064.96460795","2.72058701515","1067.73566699","1069.47979379","1069.5531249","1072.55610585","1","1072.57132292","1077.04577899",""
"sujeto_1d9a94b2","1","1","20","20","1077.19144583","inverse","2","1","3","¿Qué civilización practicaba
 la momificación?","Grecia","Egipto","right","0","0","1","competitive","right","0.61519408226","1077.80668402","4.38480591774","1082.35995293","2.50872707367","1084.86872292","3.49127292633","1088.41206002","1090.35137987","1090.43072796","1093.43368602","1","1093.44783688","1097.67663598",""
"sujeto_1d9a94b2","1","1","21","21","1097.81664991","direct","4","1","4","¿Cuántos millones de visitas
 recibe google por minuto?","3.0","4.5","","0","0","1","competitive","right","0.744323015213","1098.56109285","4.25567698479","1102.97334981","3.5966219902","1106.57003379","2.4033780098","1109.02441001","1110.53930187","1110.62569499","1113.62869287","0","1113.64312387","1120.76581597",""
"sujeto_1d9a94b2","1","1","22","22","1120.91160893","inverse","1","1","3","La máquina de fax. se inventó en:","1843","1960","","0","0","1","competitive","right","0.784513235092","1121.69618893","4.21548676491","1126.08580685","3.87833404541","1129.96417999","2.12166595459","1132.11917996","1133.36128783","1133.43746996","1136.44043899","0","1136.45517993","1139.69147992",""
"sujeto_1d9a94b2","1","1","23","23","1139.84130383","direct","2","1","4","En la verdadera historia de los
 300 espartanos. habían:","300 soldados","4300 soldados","","1","1","1","competitive","right","0.578998088837","1140.42034698","4.42100191116","1144.99487996","4.01849412918","1149.01343584","1.98150587082","1151.04603481","1152.30726886","1152.38049293","1155.38347387","1","1155.39787388","1159.19966984",""
"sujeto_1d9a94b2","1","1","24","24","1159.33387589","inverse","1","1","4","¿Cuántos milímetros crece
 el pelo por día?","0.4","0.04","","0","0","0","competitive","right","0.579638957977","1159.91357899","4.42036104202","1164.4878509","4.18873500824","1168.67665291","1.81126499176","1170.53852201","1172.29899383","1172.37277389","1175.37575483","0","1175.39125395","1182.12635589",""
"sujeto_1d9a94b2","1","1","25","25","1182.26260686","direct","4","1","1","¿Cuánto mide la baldosa gris 
clásica de Montevideo?","22x22 cm.","20x20 cm.","","1","1","1","competitive","left","0.577185869217","1182.83987093","4.42281413078","1187.41786194","3.98100304604","1191.39891696","2.01899695396","1193.46854281","1195.46378398","1195.53658986","1198.53958082","1","1198.55416179","1204.09696698",""
"sujeto_1d9a94b2","1","1","26","26","1204.24008894","inverse","2","1","2","¿Cuántas películas de rápidos
 y furiosos hay?","10","11","","1","1","0","competitive","right","0.620816230774","1204.86095285","4.37918376923","1209.41223383","2.96873497963","1212.38101101","3.03126502037","1215.46324086","1216.82125282","1216.89820099","1219.90118694","1","1219.91484594","1221.94954491",""
"sujeto_1d9a94b2","1","1","27","27","1222.08318496","direct","3","1","1","¿Cuántos masters 1000
 ganó Del Potro?","1","2","","1","1","1","competitive","right","0.737226963043","1222.82052398","4.26277303696","1227.2533958","3.80579590797","1231.059237","2.19420409203","1233.30537701","1235.06001902","1235.14061594","1238.14360881","1","1238.15784192","1245.55417895",""
"sujeto_1d9a94b2","1","1","28","28","1245.69655085","inverse","2","1","4","¿Cuántos meses dura el 
embarazo de una leona?","3 meses","4 meses","","0","0","1","competitive","left","0.633861064911","1246.33046079","4.36613893509","1250.84892392","4.08347702026","1254.93244386","1.91652297974","1256.90082788","1258.01188397","1258.084234","1261.0872159","0","1261.10198879","1267.82442284",""
"sujeto_1d9a94b2","1","1","29","29","1267.97337079","direct","1","1","1","¿En qué año fue creado
 el sandwich?","1762","1653","","1","1","0","competitive","right","0.822228908539","1268.79564285","4.17777109146","1273.12876391","3.16886281967","1276.29766798","2.83113718033","1279.179986","1280.7779448","1280.8479619","1283.85094881","1","1283.86555099","1287.33604479",""
"sujeto_1d9a94b2","1","1","30","30","1287.48324895","inverse","4","1","2","El nombre de la moneda de Vietnam es:","Dinar","Dong","","0","0","1","competitive","right","0.537802934647","1288.02111697","4.46219706535","1292.63909388","3.40474796295","1296.04391789","2.59525203705","1298.69044495","1300.12244797","1300.20795679","1303.210953","0","1303.22530079","1309.3937459",""
"sujeto_1d9a94b2","1","1","31","31","1309.53067684","direct","2","1","1","¿cuantos aleteos puede dar 
un colibrí por segundo?","120","50","","0","0","0","competitive","left","0.814378976822","1310.34512186","4.18562102318","1314.700562","3.18353295326","1317.88413191","2.81646704674","1320.75167084","1322.484061","1322.56966591","1325.57265782","0","1325.58699393","1329.79928684",""
"sujeto_1d9a94b2","1","1","32","32","1329.93793893","inverse","4","1","3","¿Qué altura promedio tienen
 los hombres uruguayos?","1.73 m","1.72 m","","1","1","1","competitive","left","0.541292905807","1330.47928095","4.45870709419","1335.11014485","3.51511502266","1338.62530398","2.48488497734","1341.16123486","1342.42366195","1342.51204491","1345.51504588","1","1345.529773","1350.0057168",""
"sujeto_1d9a94b2","1","2","1","33","1460.22222495","direct","1","1","1","¿En qué año nació 
el actor Bradd Pitt?","1967","1963","","1","1","1","competitive","left","0.783252000809","1461.00552702","4.21674799919","1465.37958789","2.9988629818","1468.37851286","3.0011370182","1471.43043685","1472.52631593","1472.59887695","1475.60187602","1","1475.61539197","1481.54299402","1350.02077198"
"sujeto_1d9a94b2","1","2","2","34","1481.68388391","inverse","2","1","1","¿Cual es el segundo 
monte más alto?","Kanchenjunga","K2","","1","1","1","competitive","left","0.546777963638","1482.23070598","4.45322203636","1486.84122992","3.10147809982","1489.9427669","2.89852190018","1492.89215302","1494.34454989","1494.42658901","1497.42959189","1","1497.44383788","1500.87368202",""
"sujeto_1d9a94b2","1","2","3","35","1501.01153684","direct","3","1","1","¿Cuándo finalizó la construcción
 del Palacio Legislativo?","1925","1917","","0","0","1","competitive","right","0.613343000412","1501.62498283","4.38665699959","1506.16341901","3.36547994614","1509.52897096","2.63452005386","1512.21521497","1513.85687399","1513.93371701","1516.93673897","0","1516.95131588","1522.64357185",""
"sujeto_1d9a94b2","1","2","4","36","1522.78609681","inverse","3","1","3","¿Cuántos integrantes tenía
 en su inicio  el cuarteto de nos?","3","4","","1","1","1","competitive","left","0.504988908768","1523.291152","4.49501109123","1527.946275","3.71084308624","1531.65718198","2.28915691376","1533.98055792","1535.11363697","1535.19776392","1538.20076299","1","1538.21537995","1543.86517286",""
"sujeto_1d9a94b2","1","2","5","37","1544.00274396","direct","2","1","3","¿Qué valor tiene el número pi?","3.14","4.18","left","0","0","1","competitive","left","0.462525129318","1544.46534395","4.53747487068","1549.17395091","2.18337678909","1551.35738587","3.81662321091","1555.22350597","1556.67772484","1556.75879979","1559.7617898","1","1559.77653599","1566.69604683",""
"sujeto_1d9a94b2","1","2","6","38","1566.82725382","inverse","2","1","2","¿Cuál es la esperanza de vida
 en Uruguay?","75","77","","1","1","0","competitive","left","0.497236967087","1567.32455993","4.50276303291","1571.98564601","2.72084093094","1574.70655179","3.27915906906","1578.03618288","1579.69002485","1579.77059102","1582.77302098","1","1582.78831887","1589.25136781",""
"sujeto_1d9a94b2","1","2","7","39","1589.389534","direct","1","1","2","¿Cuantos pisos tiene la torre 
de las comunicaciones?","26","32","","1","1","0","competitive","right","0.586145162582","1589.97572184","4.41385483742","1594.56314301","3.56350898743","1598.12669086","2.43649101257","1600.59868598","1602.42748189","1602.49980092","1605.50276399","1","1605.51704597","1607.66328382",""
"sujeto_1d9a94b2","1","2","8","40","1607.82036901","inverse","2","1","4","¿En qué país sudamericano 
no hay McDonalds?","Bolivia","Venezuela","","0","0","1","competitive","right","0.531448125839","1608.35188389","4.46855187416","1612.9905839","3.80434322357","1616.79496884","2.19565677643","1619.04122186","1620.35057998","1620.42581201","1623.42876792","0","1623.44440985","1629.80415201",""
"sujeto_1d9a94b2","1","2","9","41","1629.94787979","direct","3","1","1","¿En qué año empieza
 la Edad Media?","476","512","","1","1","1","competitive","right","0.590143918991","1630.53808689","4.40985608101","1635.10161996","3.04146909714","1638.1431458","2.95853090286","1641.15303493","1642.55683088","1642.63740683","1645.64038682","1","1645.65545797","1648.64399981",""
"sujeto_1d9a94b2","1","2","10","42","1648.79111385","inverse","3","1","4","¿Hace cuántos años surgió
 el ser humano?","200mil","300mil","","0","0","0","competitive","right","0.535609960556","1649.32677794","4.46439003944","1653.94500685","3.69719696045","1657.64226294","2.30280303955","1659.99642587","1661.88247585","1661.96469879","1664.96768284","0","1664.9814899","1668.29198599",""
"sujeto_1d9a94b2","1","2","11","43","1668.43548489","direct","3","1","4","¿Cuántas cuadras tiene
 actualmente 18 de julio? ","36","33","","0","0","1","competitive","left","0.81193113327","1669.24747992","4.18806886673","1673.58743596","3.90899801254","1677.49649191","2.09100198746","1679.62128091","1681.32354999","1681.4073329","1684.41030979","0","1684.42397785","1689.15028787",""
"sujeto_1d9a94b2","1","2","12","44","1689.29533482","inverse","1","1","4","¿Qué juego de equipo se 
considera mas rápido?","Lacrosse","Badminton","","0","0","0","competitive","right","0.576277971268","1689.87171793","4.42372202873","1694.46606779","3.1924290657","1697.65853596","2.8075709343","1700.50060391","1701.743716","1701.8181839","1704.82117081","0","1704.83579397","1712.83095479",""
"sujeto_1d9a94b2","1","2","13","45","1712.97086787","direct","1","1","3","¿Qué promedio de edad 
vive una jirafa? ","25","20","","0","0","1","competitive","right","0.617970943451","1713.5889349","4.38202905655","1718.12877202","3.19406914711","1721.32292795","2.80593085289","1724.16310787","1725.92461801","1725.99822879","1729.00121379","0","1729.01477098","1734.970505",""
"sujeto_1d9a94b2","1","2","14","46","1735.11877799","inverse","1","1","2","¿Cuántos grandes lagos hay?","7","5","","0","0","1","competitive","left","0.516235113144","1735.63510585","4.48376488686","1740.29035497","2.57059001923","1742.86098099","3.42940998077","1746.34078383","1747.63293695","1747.70996094","1750.71292996","0","1750.72712898","1758.54596496",""
"sujeto_1d9a94b2","1","2","15","47","1758.71130896","direct","3","1","2","¿Cuántos discos de estudio
 grabó Johhny Cash? ","54","43","","1","1","0","competitive","right","0.603917121887","1759.31527281","4.39608287811","1763.88555884","3.17271304131","1767.05832982","2.82728695869","1769.93642902","1771.21505189","1771.2882998","1774.29126191","1","1774.30566287","1780.95658088",""
"sujeto_1d9a94b2","1","2","16","48","1781.08975196","inverse","4","1","1","¿Cuántos barrios tiene
 Montevideo? ","71","62","","0","0","1","competitive","left","0.530631065369","1781.62042785","4.46936893463","1786.26318002","2.53121614456","1788.79445386","3.46878385544","1792.29672885","1793.30378294","1793.3835578","1796.38651991","0","1796.40025401","1801.86231685",""
"sujeto_1d9a94b2","1","2","17","49","1802.02147484","direct","3","1","3","¿Qué edad tiene Homero Simpson?","36","42","","0","0","1","competitive","left","0.614068031311","1802.63560581","4.38593196869","1807.19200492","2.73659300804","1809.92863798","3.26340699196","1813.24287295","1814.61892581","1814.69396091","1817.69695401","0","1817.71144199","1822.10020995",""
"sujeto_1d9a94b2","1","2","18","50","1822.24803281","inverse","4","1","2","¿Cuántos países con monarquía 
hay en europa actualmente? ","6","10","","1","1","1","competitive","left","0.587704896927","1822.83579993","4.41229510307","1827.41944385","3.52430391312","1830.94380689","2.47569608688","1833.47041392","1834.90865588","1834.98826599","1837.99125695","1","1838.00562","1844.16244292",""
"sujeto_1d9a94b2","1","2","19","51","1844.30654883","direct","2","1","3","¿Cuántos capítulos de
 Friends existen? ","236","228","","1","1","1","competitive","right","0.5604429245","1844.86703801","4.4395570755","1849.46234989","3.36258888245","1852.82500386","2.63741111755","1855.4986589","1856.80417585","1856.88310289","1859.88608885","1","1859.90034294","1862.27596784",""
"sujeto_1d9a94b2","1","2","20","52","1862.41943383","inverse","1","1","3","¿Cuántas óperas compuso Mozart? ","27","22","","1","1","1","competitive","left","0.495656013489","1862.91515398","4.50434398651","1867.58973479","2.53528404236","1870.12507701","3.46471595764","1873.64049602","1874.93264985","1875.00967383","1878.01266789","1","1878.02624488","1885.33772492",""
"sujeto_1d9a94b2","1","2","21","53","1885.47932386","direct","4","1","3","¿Cuántos mundiales de fútbol 
femenino ha realizado FIFA? ","9","7","","1","1","1","competitive","right","0.48902797699","1885.96840501","4.51097202301","1890.65196085","3.89036202431","1894.54236698","2.10963797569","1896.70408702","1897.94779491","1898.02109098","1901.02407598","1","1901.03913689","1907.14161086",""
"sujeto_1d9a94b2","1","2","22","54","1907.27272987","inverse","3","1","2","¿Cuál es la temperatura 
media anual en Montevideo? ","17.5","16.3","","0","0","1","competitive","right","1.8798019886","1909.152596","3.1201980114","1912.44724083","3.54623794556","1915.99351692","2.45376205444","1918.4981308","1920.43505287","1920.51617193","1923.51916194","0","1923.53363681","1930.10317183",""
"sujeto_1d9a94b2","1","2","23","55","1930.23471093","direct","2","1","2","¿En qué año se estrenó el
 videojuego The Sims? ","2000","2002","","0","0","0","competitive","right","0.544023990631","1930.77880192","4.45597600937","1935.39096785","3.40083503723","1938.79187489","2.59916496277","1941.44322586","1943.3052578","1943.37709785","1946.38003898","0","1946.3953619","1953.7889688",""
"sujeto_1d9a94b2","1","2","24","56","1953.93018699","inverse","2","1","1","¿Cuál es la canción con 
mas covers? ","Yesterday","Stand by me","","0","0","0","competitive","right","0.533775091171","1954.46404791","4.46622490883","1959.08654189","3.31444001198","1962.40102291","2.68555998802","1965.137146","1966.53571486","1966.62269592","1969.62567687","0","1969.63924599","1973.81005692",""
"sujeto_1d9a94b2","1","2","25","57","1973.95781898","direct","1","1","4","¿Cuánto duró la guerra
 de los 100 años?","116","123","","0","0","0","competitive","left","0.558282136917","1974.51614499","4.44171786308","1979.1153729","4.31471896172","1983.43013191","1.68528103828","1985.16244197","1986.64301586","1986.71304297","1989.71600199","0","1989.73155379","1992.05133581",""
"sujeto_1d9a94b2","1","2","26","58","1992.19991088","inverse","4","1","4","¿Qué color tiene la  bandera de Brasil?","Amarillo","Naranja","left","0","0","1","competitive","left","0.604339838028","1992.80432582","4.39566016197","1997.35758185","2.24870085716","1999.606323","3.75129914284","2003.40816689","2004.97467184","2005.06097984","2008.063972","1","2008.07824302","2011.11105895",""
"sujeto_1d9a94b2","1","2","27","59","2011.2485919","direct","4","1","3","¿Qué carabela de 
Colon no volvió del viaje?","Santa María","La pinta","","0","0","1","competitive","right","0.890801906586","2012.1394608","4.10919809341","2016.41343689","3.67988491058","2020.09335589","2.32011508942","2022.46615386","2023.95723891","2024.03327179","2027.03628683","0","2027.051934","2029.15137482",""
"sujeto_1d9a94b2","1","2","28","60","2029.30429602","inverse","4","1","4","¿Cuántos huesos tiene
 un adulto humano?","217","206","","0","0","1","competitive","right","0.595306873322","2029.89965296","4.40469312668","2034.46061301","2.4589650631","2036.91961884","3.5410349369","2040.5110929","2041.78193784","2041.86155987","2044.86450291","0","2044.87921786","2052.71690083",""
"sujeto_1d9a94b2","1","2","29","61","2052.86495996","direct","1","1","1","¿Qué país africano fue 
fundado por esclavos?","Liberia","Chad","","0","0","0","competitive","right","0.603825092316","2053.46885085","4.39617490768","2058.02295589","3.42484402657","2061.44784093","2.57515597343","2064.07378197","2066.06543279","2066.14184594","2069.14482999","0","2069.15999985","2077.15082979",""
"sujeto_1d9a94b2","1","2","30","62","2077.29391193","inverse","4","1","2","¿A cuánto asciende la cima
 del monte Everest?","7.990 mts","8.848 mts","","0","0","1","competitive","right","0.807020187378","2078.10100698","4.19297981262","2082.46993399","3.52908205986","2085.99905801","2.47091794014","2088.52014995","2089.704988","2089.78853583","2092.79152989","0","2092.80586195","2099.98994589",""
"sujeto_1d9a94b2","1","2","31","63","2100.14103794","direct","4","1","1","¿Cuál es el país mas chico?","Sealand","Luxemburgo","","1","1","1","competitive","right","0.694122076035","2100.83522296","4.30587792397","2105.29595685","4.45224785805","2109.74826384","1.54775214195","2111.3494029","2113.21294785","2113.29984879","2116.30285287","1","2116.317101","2119.4393959",""
"sujeto_1d9a94b2","1","2","32","64","2119.5692699","inverse","2","1","4","¿Cuántas pirámides hay en Egipto?","10000","11000","","1","1","1","competitive","left","0.96306180954","2120.53237581","4.03693819046","2124.72540283","3.29688692093","2128.02235293","2.70311307907","2130.77569699","2131.80898881","2131.89331985","2134.89629889","1","2134.9108808","2140.01997495",""
"sujeto_1d9a94b2","1","3","1","65","2244.65336299","direct","2","1","2","¿Cuál es el quinto país con 
mas extensión?","Canadá","Brasil","","1","1","0","competitive","right","0.86400103569","2245.51742792","4.13599896431","2249.82254386","3.64190292358","2253.46451092","2.35809707642","2255.85772896","2257.19103789","2257.2751708","2260.27816582","1","2260.2933588","2268.01976395","2140.03499889"
"sujeto_1d9a94b2","1","3","2","66","2268.16093683","inverse","1","1","2","¿Qué rasgo facial no tiene
 la Mona Lisa?","Cejas","Pómulos","","0","0","1","competitive","right","0.66468000412","2268.82566381","4.33531999588","2273.3162148","4.39440703392","2277.71068692","1.60559296608","2279.35220599","2281.10261393","2281.18656182","2284.1895268","0","2284.20481586","2290.47615385",""
"sujeto_1d9a94b2","1","3","3","67","2290.62277293","direct","4","1","3","¿Cuál es el país con 
mayor población?","Esados Unidos","China","right","0","0","1","competitive","right","1.12707996368","2291.74991989","3.87292003632","2295.7628479","2.77600884438","2298.53893995","3.22399115562","2301.81384492","2303.45985198","2303.53157496","2306.53452396","1","2306.54916501","2309.91652489",""
"sujeto_1d9a94b2","1","3","4","68","2310.05135393","inverse","1","1","1","La palabra dinosaurio significa","Lagarto Terrible","Lagarto Dragón","","1","1","0","competitive","","0.614683866501","2310.6661129","4.3853161335","2315.20773196","6","2321.20787287","0","2321.22298884","2322.39333391","2322.4765389","2325.47953391","0","2325.4942348","2328.35605288",""
"sujeto_1d9a94b2","1","3","5","69","2328.51262283","direct","2","1","3","¿Qué es el membrillero?","Arbol","Arbusto","","0","0","0","competitive","right","0.958522081375","2329.47121191","4.04147791862","2333.66646194","3.52263522148","2337.18913388","2.47736477852","2339.71843696","2341.67256379","2341.7532239","2344.75619793","0","2344.77040696","2351.2344389",""
"sujeto_1d9a94b2","1","3","6","70","2351.37160683","inverse","3","1","3","¿Alrededor de qué planeta orbita 
el satélite Europa?","Jupiter","Saturno","","1","1","1","competitive","left","0.613747835159","2351.98541594","4.38625216484","2356.52656698","4.31776809692","2360.84439397","1.68223190308","2362.5794878","2364.12422895","2364.1974678","2367.20037985","1","2367.2148118","2369.41998792",""
"sujeto_1d9a94b2","1","3","7","71","2369.58260298","direct","3","1","1","¿Donde fue el mundial de 
fútbol de 1954?","Suiza","Suecia","","1","1","1","competitive","left","0.54186296463","2370.1245079","4.45813703537","2374.73905396","3.02946400642","2377.76855588","2.97053599358","2380.78928685","2382.041857","2382.12470484","2385.12764597","1","2385.14136887","2389.053159",""
"sujeto_1d9a94b2","1","3","8","72","2389.19294","inverse","1","1","4","¿Cuál de los 7 enanitos
no tenía barba?","Bashful","Mudito","","1","1","0","competitive","left","0.633651971817","2389.82663989","4.36634802818","2394.34921598","3.6754360199","2398.02471089","2.3245639801","2400.38364792","2401.96377301","2402.03480601","2405.03778887","1","2405.05241489","2409.98152685",""
"sujeto_1d9a94b2","1","3","9","73","2410.11996794","direct","3","1","2","¿Cual red social es
mas utilizada mundialmente?","Instagram","Facebook","","1","1","0","competitive","left","0.578894138336","2410.69891691","4.42110586166","2415.27430081","2.88952183723","2418.16389179","3.11047816277","2421.32681394","2423.24421692","2423.32794189","2426.33093381","1","2426.34517479","2429.27969098",""
"sujeto_1d9a94b2","1","3","10","74","2429.43151593","inverse","4","1","1","¿Cuándo se inició la copa
 América de fútbol?","1916","1923","","1","1","1","competitive","left","0.591415882111","2430.02300501","4.40858411789","2434.60330081","3.52671790123","2438.13006401","2.47328209877","2440.63778901","2442.53525996","2442.62255502","2445.62554479","1","2445.64010501","2448.29623294",""
"sujeto_1d9a94b2","1","3","11","75","2448.44277596","direct","3","1","4","¿Cuántos presidentes de EEUU
han muerto asesinados?","3","4","","0","0","1","competitive","left","0.490362167358","2448.93320489","4.50963783264","2453.59647989","2.77070212364","2456.36724186","3.22929787636","2459.64727592","2461.13123298","2461.21619391","2464.21913481","0","2464.2273078","2467.87143588",""
"sujeto_1d9a94b2","1","3","12","76","2467.99574995","inverse","2","1","4","¿Cuántas veces participó EEUU
 en la copa América?","4","5","","0","0","1","competitive","right","0.521558046341","2468.51735091","4.47844195366","2473.15568495","3.4556760788","2476.61142683","2.5443239212","2479.20771694","2480.651824","2480.72582889","2483.72880483","0","2483.74315596","2489.86031485",""
"sujeto_1d9a94b2","1","3","13","77","2490.01094794","direct","4","1","1","¿Cuál de estos países 
no formaba la URSS?","Azeribayán","Afganistán","","0","0","1","competitive","left","0.572976112366","2490.58403802","4.42702388763","2495.18421197","3.18130612373","2498.36558485","2.81869387627","2501.23462081","2502.54769588","2502.63663602","2505.63896084","0","2505.6534729","2513.63559699",""
"sujeto_1d9a94b2","1","3","14","78","2513.77182698","inverse","1","1","1","¿En qué año se inauguró
 el teatro Solís?","1867","1856","","0","0","0","competitive","right","0.634886980057","2514.40675783","4.36511301994","2518.93076181","3.86200499535","2522.7928288","2.13799500465","2524.96280384","2526.01911402","2526.09730101","2529.10025096","0","2529.11487889","2535.76268792",""
"sujeto_1d9a94b2","1","3","15","79","2535.89925981","direct","1","1","4","¿A qué velocidad vuela 
el avión más rápido?","3529","3874","","0","0","0","competitive","left","0.574706077576","2536.47403288","4.42529392242","2541.05916286","3.17881393433","2544.23801589","2.82118606567","2547.09290195","2548.84840083","2548.92804289","2551.93103099","0","2551.94579482","2554.05607891",""
"sujeto_1d9a94b2","1","3","16","80","2554.19849086","inverse","3","1","4","¿De qué año es la primer 
película cinematográfica?","1897","1888","","0","0","0","competitive","right","0.492496967316","2554.69105101","4.50750303268","2559.36847091","3.35362100601","2562.72213101","2.64637899399","2565.41940188","2566.55241585","2566.637357","2569.64003181","0","2569.65527797","2575.06503296",""
"sujeto_1d9a94b2","1","3","17","81","2575.20705986","direct","2","1","3","¿Cuántos países 
tiene nuestro planeta?","191","194","","1","1","1","competitive","left","0.523473024368","2575.73058486","4.47652697563","2580.3614068","3.30486607552","2583.6663208","2.69513392448","2586.4102478","2587.76696897","2587.84456396","2590.84755397","1","2590.86234188","2594.10064602",""
"sujeto_1d9a94b2","1","3","18","82","2594.24637985","inverse","2","1","2","¿Cuántos habitantes
 tiene Buenos Aires?","2.9000.000","3650000","","0","0","0","competitive","right","0.511990070343","2594.75843191","4.48800992966","2599.40637684","3.36306500435","2602.7694819","2.63693499565","2605.45741296","2606.85465097","2606.92479181","2609.9277668","0","2609.94247389","2615.77185988",""
"sujeto_1d9a94b2","1","3","19","83","2615.91010284","direct","2","1","1","¿Cuántos kilos forman una tonelada?","1000","1500","left","1","1","1","competitive","left","1.09436297417","2617.00451994","3.90563702583","2621.06796098","2.25464200974","2623.32264781","3.74535799026","2627.11840892","2629.00577688","2629.08714485","2632.09014082","1","2632.1044209","2638.06186986",""
"sujeto_1d9a94b2","1","3","20","84","2638.2075758","inverse","4","1","4","¿Cuántos estados tiene la 
República del Perú? ","24","23","","0","0","1","competitive","right","0.679181098938","2638.88682389","4.32081890106","2643.3772459","2.96150612831","2646.33881593","3.03849387169","2649.4128089","2650.43500996","2650.51492095","2653.51792884","0","2653.53216982","2658.47750282",""
"sujeto_1d9a94b2","1","3","21","85","2658.63313389","direct","3","1","3","¿En qué año nació Cristóbal Colón? ","1451","1447","","0","0","1","competitive","right","0.711829900742","2659.34503889","4.28817009926","2663.79024482","3.75468802452","2667.54499292","2.24531197548","2669.84080887","2671.68674779","2671.75868702","2674.76098299","0","2674.77663398","2679.00463891",""
"sujeto_1d9a94b2","1","3","22","86","2679.1626389","inverse","4","1","4","¿Cuánto mide la 
Montaña Aconcagua? ","6234","6962","","0","0","1","competitive","left","0.516424894333","2679.67912793","4.48357510567","2684.3337009","3.50338888168","2687.83715582","2.49661111832","2690.38490796","2691.67426896","2691.75312901","2694.75608993","0","2694.77065682","2701.95430493",""
"sujeto_1d9a94b2","1","3","23","87","2702.08901095","direct","2","1","4","¿Cuánto mide el punto
 más profundo del océano? ","12508","11003","","0","0","1","competitive","left","0.759261131287","2702.84833598","4.24073886871","2707.24563599","3.57971000671","2710.82540584","2.42028999329","2713.2970109","2714.54853487","2714.63207197","2717.63507485","0","2717.64938402","2721.85566092",""
"sujeto_1d9a94b2","1","3","24","88","2721.98317289","inverse","1","1","3","¿Cuántos álbumes ha publicado 
el cantante Jaime Roos? ","41","34","","0","0","1","competitive","right","0.617215871811","2722.60045385","4.38278412819","2727.15408301","2.34038805962","2729.49453092","3.65961194038","2733.20539594","2734.69526386","2734.77401996","2737.77696991","0","2737.7911818","2743.98733401",""
"sujeto_1d9a94b2","1","3","25","89","2744.14306283","direct","4","1","3","¿En qué año nació el 
ex-presidente Jorge Battle? ","1921","1927","","1","1","1","competitive","right","0.786546945572","2744.92965579","4.21345305443","2749.317693","2.40896606445","2751.72672486","3.59103393555","2755.3686409","2757.09934783","2757.18688083","2760.18987393","1","2760.20450497","2763.69057202",""
"sujeto_1d9a94b2","1","3","26","90","2763.82345581","inverse","1","1","3","¿Cuántas presidencias 
constitucionales  hubo en Uruguay? ","41","42","","0","0","1","competitive","right","0.629364013672","2764.45290589","4.37063598633","2768.97812796","3.01569414139","2771.99389195","2.98430585861","2775.02894402","2776.23270583","2776.31378102","2779.31673002","0","2779.33123589","2785.11485291",""
"sujeto_1d9a94b2","1","3","27","91","2785.26749396","direct","1","1","2","¿Quién escribió mas sinfonías?","Mozart","Haydn","","1","1","0","competitive","left","0.547697067261","2785.81529784","4.45230293274","2790.43966484","2.99034690857","2793.43007183","3.00965309143","2796.4903338","2797.70784092","2797.79184699","2800.79485297","1","2800.80910301","2804.5605309",""
"sujeto_1d9a94b2","1","3","28","92","2804.71080685","inverse","4","1","2","¿En qué año nació Michael Jackson?","1958","1953","","1","1","1","competitive","right","0.548369884491","2805.25924397","4.45163011551","2809.87782097","3.08639192581","2812.96428084","2.91360807419","2815.93069601","2817.90895581","2817.99865794","2821.00164199","1","2821.01617885","2826.87851286",""
"sujeto_1d9a94b2","1","3","29","93","2827.01801586","direct","3","1","2","¿En qué año entró en vigencia 
la ley antitabaco en Uruguay?","2005","2006","","1","1","1","competitive","right","0.622300863266","2827.64036202","4.37769913673","2832.19522691","3.39813899994","2835.59340501","2.60186100006","2838.24513698","2839.83987999","2839.91414285","2842.91714096","1","2842.93073487","2848.2647028",""
"sujeto_1d9a94b2","1","3","30","94","2848.39928293","inverse","3","1","1","¿Cuándo se subió el 
primer video a youtube?","2004","2005","","0","0","1","competitive","right","0.542261838913","2848.94159102","4.45773816109","2853.55629802","2.74228191376","2856.29864097","3.25771808624","2859.60640883","2860.91204786","2860.99147797","2863.99445081","0","2864.0091598","2871.7647779",""
"sujeto_1d9a94b2","1","3","31","95","2871.92665291","direct","2","1","1","¿Cuántos habitantes tiene India?","1200 millones","1300 millones","","0","0","0","competitive","right","0.602011919022","2872.52873182","4.39798808098","2877.10142279","2.81127905846","2879.91274381","3.18872094154","2883.15193987","2885.121593","2885.20363784","2888.206635","0","2888.22117496","2894.2686758",""
"sujeto_1d9a94b2","1","3","32","96","2894.42375779","inverse","4","1","2","¿A qué edad murió Bob Marley?","36","37","","0","0","1","competitive","right","0.491089105606","2894.91490698","4.50891089439","2899.57972598","2.42208194733","2902.00184202","3.57791805267","2905.63056183","2907.52844095","2907.61595702","2910.61890984","0","2910.63317895","2913.73565483",""
"sujeto_1d9a94b2","1","4","1","97","3026.96111798","direct","2","1","1","¿Cuantos años dirigió la selección 
uruguaya Tabarez?","15 años","13 años","","0","0","0","competitive","left","1.12385296822","3028.08501387","3.87614703178","3032.09972882","2.87028694153","3034.97007895","3.12971305847","3038.15001488","3039.34113693","3039.41779089","3042.42080593","0","3042.4354279","3049.50741291","2913.75079894"
"sujeto_1d9a94b2","1","4","2","98","3049.65369582","inverse","4","1","1","¿Cuantas teclas tiene un teclado 
de computadora generalmente? ","Entre 99 y 108","Entre 109 y 113","","1","1","1","competitive","right","0.601505041122","3050.25526786","4.39849495888","3054.82765293","3.89064288139","3058.71835899","2.10935711861","3060.87922001","3061.88197899","3061.961694","3064.96467686","1","3064.97843385","3067.34987497",""
"sujeto_1d9a94b2","1","4","3","99","3067.4804039","direct","1","1","1","¿Cuál Departamento tiene
 mayor superficie?","Río Negro","Soriano","","0","0","0","competitive","left","0.736950874329","3068.21740699","4.26304912567","3072.63779092","3.67259812355","3076.3104279","2.32740187645","3078.6872189","3080.40072083","3080.471349","3083.47430587","0","3083.489537","3087.81563997",""
"sujeto_1d9a94b2","1","4","4","100","3087.95779395","inverse","3","1","2","¿Cuál es el apellido de las 
hermanastras  de  cenicienta?","Tremaine","Truman","","0","0","1","competitive","left","0.465712070465","3088.42357087","4.53428792953","3093.1130898","4.4733839035","3097.58653998","1.5266160965","3099.16429496","3101.03383589","3101.11562991","3104.11862397","0","3104.13329792","3106.82925797",""
"sujeto_1d9a94b2","1","4","5","101","3106.98635602","direct","4","1","4","¿Cuál película ganó un
 Oscar a mejor película?","Alto Impacto","Cache","","0","0","1","competitive","left","0.533317089081","3107.51973987","4.46668291092","3112.15816879","3.75152206421","3115.90973282","2.24847793579","3118.20819283","3119.32756186","3119.41013098","3122.41312099","0","3122.42456794","3124.6892128",""
"sujeto_1d9a94b2","1","4","6","102","3124.82527995","inverse","1","1","3","¿A cuántos centímetros
equivale la medida pié?","25","30","","0","0","1","competitive","right","0.518546104431","3125.34387088","4.48145389557","3129.98432302","4.41340208054","3134.39775991","1.58659791946","3136.0354898","3137.07544184","3137.15256381","3140.15556192","0","3140.16983795","3145.57077289",""
"sujeto_1d9a94b2","1","4","7","103","3145.70506382","direct","2","1","2","¿Qué departamento es mas grande?","Cerro Largo","Paysandú","","0","0","0","competitive","right","0.626952886581","3146.33206296","4.37304711342","3150.85627985","3.51961493492","3154.37595701","2.48038506508","3156.90931392","3158.50907493","3158.59347486","3161.59646082","0","3161.61110187","3165.72105885",""
"sujeto_1d9a94b2","1","4","8","104","3165.86267495","inverse","2","1","3","¿Quién pintó la Mona Lisa?","Picasso","Da Vinci","right","0","0","1","competitive","right","0.583517074585","3166.44625902","4.41648292542","3171.03893495","1.98725914955","3173.02623391","4.01274085045","3177.08891487","3178.69478488","3178.77466393","3181.77538395","1","3181.79077888","3183.95303488",""
"sujeto_1d9a94b2","1","4","9","105","3184.09105301","direct","4","1","3","¿Cuántos litros hay en un galon?","3.54","3.78","","1","1","1","competitive","right","0.562190055847","3184.65330482","4.43780994415","3189.24776793","3.61455082893","3192.86237693","2.38544917107","3195.28285599","3196.79999995","3196.88335586","3199.88631701","1","3199.90172482","3205.69410992",""
"sujeto_1d9a94b2","1","4","10","106","3205.83606601","inverse","4","1","1","¿Cuántas teclas tiene
 un piano moderno?","80","88","","0","0","1","competitive","left","0.545407056808","3206.38153982","4.45459294319","3211.0093379","3.22422814369","3214.23360682","2.77577185631","3217.06051779","3218.06897092","3218.14525986","3221.14824796","0","3221.16170502","3227.95946693",""
"sujeto_1d9a94b2","1","4","11","107","3228.09702802","direct","4","1","3","¿Cuántos países hay en África?","54","62","","0","0","1","competitive","left","0.589651107788","3228.68674588","4.41034889221","3233.25286484","2.35977101326","3235.61270189","3.64022898674","3239.30313802","3240.99368095","3241.07163382","3244.072088","0","3244.09000683","3251.89475584",""
"sujeto_1d9a94b2","1","4","12","108","3252.04092479","inverse","1","1","3","¿En qué siglo se crearon
 las primeras pistolas?","XV","XIII","","1","1","1","competitive","left","0.485894918442","3252.52690387","4.51410508156","3257.19990897","3.53299403191","3260.73297286","2.46700596809","3263.25157881","3265.19949889","3265.28602195","3268.28901792","1","3268.30363894","3271.53400993",""
"sujeto_1d9a94b2","1","4","13","109","3271.67143297","direct","3","1","4","¿En qué año se estrenó 
la serie friends?","1994","1995","","0","0","1","competitive","right","0.564610004425","3272.23611283","4.43538999557","3276.84361196","3.55143618584","3280.395087","2.44856381416","3282.89533591","3284.76998496","3284.84614801","3287.84801984","0","3287.86349988","3292.86957979",""
"sujeto_1d9a94b2","1","4","14","110","3293.01557684","inverse","3","1","4","¿En qué año nació Hitler?","1889","1887","","0","0","1","competitive","right","0.507602930069","3293.52324486","4.49239706993","3298.1719718","3.17620491982","3301.34824395","2.82379508018","3304.22260189","3305.33699799","3305.42351079","3308.4265008","0","3308.44072294","3313.46772289",""
"sujeto_1d9a94b2","1","4","15","111","3313.64338279","direct","1","1","4","¿Cuánto pesa un elefante Africano?","6000 kilos","5400 kilos","","0","0","0","competitive","right","0.596961975098","3314.240412","4.4030380249","3318.81455779","3.4698009491","3322.28441787","2.5301990509","3324.86568379","3326.22155786","3326.29961681","3329.30256987","0","3329.31719899","3336.02429485",""
"sujeto_1d9a94b2","1","4","16","112","3336.16827798","inverse","1","1","2","¿Qué porcentaje de 
la población es zurda?","10%","7%","","1","1","0","competitive","left","0.512312173843","3336.68065786","4.48768782616","3341.32708097","3.80547094345","3345.1326139","2.19452905655","3347.37911081","3348.62223482","3348.69663095","3351.6995759","1","3351.71427488","3357.69399786",""
"sujeto_1d9a94b2","1","4","17","113","3357.83248591","direct","1","1","2","¿En qué año se estrenó
Volver al futuro?","1984","1985","","0","0","1","competitive","right","0.717293977737","3358.5498929","4.28270602226","3363.00548387","2.64825296402","3365.65377784","3.35174703598","3369.05591202","3370.6176908","3370.691082","3373.69402695","0","3373.70864892","3380.79998779",""
"sujeto_1d9a94b2","1","4","18","114","3380.94290996","inverse","3","1","2","¿Cuántos jugadores hay en un 
equipo de baseball?","9","8","","1","1","0","competitive","left","0.471043109894","3381.41400695","4.52895689011","3386.11746097","2.86051511765","3388.978019","3.13948488235","3392.15141988","3393.76564479","3393.85353279","3396.85652184","1","3396.87086582","3401.8481288",""
"sujeto_1d9a94b2","1","4","19","115","3402.00524092","direct","2","1","1","¿Cuántos Oscar ganó
 la película titanic?","13","11","","1","1","1","competitive","left","0.936878919601","3402.94218493","4.0631210804","3407.17686296","3.17022919655","3410.34713101","2.82977080345","3413.22951388","3414.53158188","3414.61432481","3417.61731791","1","3417.63155293","3422.23422194",""
"sujeto_1d9a94b2","1","4","20","116","3422.384655","inverse","4","1","4","¿En qué año comenzó
la segunda guerra mundial?","1939","1976","left","0","0","1","competitive","left","0.70361995697","3423.08833981","4.29638004303","3427.55594087","3.37933897972","3430.93532085","2.62066102028","3433.6063168","3435.40616202","3435.49144387","3438.49440598","1","3438.50900483","3442.49620295",""
"sujeto_1d9a94b2","1","4","21","117","3442.64404082","direct","2","1","4","¿Cuántos biomas hay en Uruguay?","5","4","","0","0","1","competitive","left","0.499414920807","3443.14350796","4.50058507919","3447.79946685","3.29500985146","3451.09453583","2.70499014854","3453.83377099","3455.63114882","3455.70228195","3458.70529795","0","3458.71999192","3464.96903896",""
"sujeto_1d9a94b2","1","4","22","118","3465.10427785","inverse","2","1","3","¿Cuándo murió Pablo Escobar?","1993","1997","","1","1","1","competitive","right","0.575346946716","3465.67966986","4.42465305328","3470.261832","2.87678003311","3473.13865185","3.12321996689","3476.31261992","3478.095474","3478.18079495","3481.183779","1","3481.19799089","3486.90162802",""
"sujeto_1d9a94b2","1","4","23","119","3487.04421091","direct","1","1","4","¿Qué serie ha ganado mas premios?","Friends","Murphy Brown","","1","1","0","competitive","right","0.827606916428","3487.87193489","4.17239308357","3492.20409894","3.29974102974","3495.50391889","2.70025897026","3498.25591993","3499.60835481","3499.69136691","3502.69437194","1","3502.70873499","3508.27036381",""
"sujeto_1d9a94b2","1","4","24","120","3508.40967584","inverse","4","1","2","¿Cuántas fichas tiene el dominó?","26","28","","1","1","1","competitive","left","0.618299007416","3509.02804279","4.38170099258","3513.56755781","2.17144799232","3515.73906493","3.82855200768","3519.618083","3520.67340589","3520.75342202","3523.75641394","1","3523.7700398","3529.01317883",""
"sujeto_1d9a94b2","1","4","25","121","3529.15521693","direct","2","1","4","¿Cuántos son los dientes de leche?","20","25","","0","0","1","competitive","left","0.571897029877","3529.72715688","4.42810297012","3534.31115699","2.79394006729","3537.10513282","3.20605993271","3540.34499002","3542.05537295","3542.1419189","3545.1449368","0","3545.15943789","3547.30405283",""
"sujeto_1d9a94b2","1","4","26","122","3547.443295","inverse","3","1","3","¿Cuántos gramos son una onza?","22","28","","0","0","1","competitive","right","0.645955085754","3548.08931994","4.35404491425","3552.60387588","3.27043294907","3555.87437487","2.72956705093","3558.65532684","3560.6501689","3560.72373486","3563.72673488","0","3563.74110389","3570.03132987",""
"sujeto_1d9a94b2","1","4","27","123","3570.17632079","direct","3","1","1","¿Cuándo salió el primer album
 de los Beatles?","1963","1962","","1","1","1","competitive","right","0.586129903793","3570.76252484","4.41387009621","3575.34482002","3.13666009903","3578.48154497","2.86333990097","3581.39755487","3582.561198","3582.64911795","3585.65211701","1","3585.66669679","3589.43874598",""
"sujeto_1d9a94b2","1","4","28","124","3589.58445597","inverse","3","1","3","¿Quién fundó la empresa apple?","Carlos Slim","Steve Jobs","","1","1","1","competitive","right","0.625229120255","3590.20975399","4.37477087975","3594.74336386","3.39928889275","3598.14271283","2.60071110725","3600.79404998","3601.90794492","3601.99394894","3604.9969399","1","3605.01064301","3611.30851197",""
"sujeto_1d9a94b2","1","4","29","125","3611.44541097","direct","4","1","2","¿Cuántos municipios hay
 en Montevideo?","8","7","","1","1","1","competitive","left","0.57343506813","3612.01897502","4.42656493187","3616.60456896","3.22525215149","3619.82988095","2.77474784851","3622.65595484","3624.57071185","3624.6569798","3627.65997982","1","3627.67446494","3629.75563097",""
"sujeto_1d9a94b2","1","4","30","126","3629.9097178","inverse","1","1","1","¿Cuántos kilómetros hay
 de Montevideo a Artigas?","632","599","","0","0","0","competitive","left","0.587330102921","3630.49713397","4.41266989708","3635.06395292","3.61210584641","3638.67609882","2.38789415359","3641.09874582","3642.58185697","3642.66691279","3645.66993189","0","3645.68417096","3651.7363019",""
"sujeto_1d9a94b2","1","4","31","127","3651.88548899","direct","2","1","2","¿En qué año nació 
Leonardo Da Vinci?","1452","1511","","1","1","0","competitive","right","0.525621175766","3652.41117692","4.47437882423","3657.05732799","3.65493893623","3660.71230793","2.34506106377","3663.10737896","3664.96102095","3665.04177094","3668.04476595","1","3668.05947399","3671.20591187",""
"sujeto_1d9a94b2","1","4","32","128","3671.34355497","inverse","3","1","1","¿A qué continente
 pertenece el país Gabón?","Africa","Oceanía","","0","0","1","competitive","right","0.719752073288","3672.06335092","4.28024792671","3676.51984","3.76847696304","3680.288378","2.23152303696","3682.57011485","3684.3817699","3684.45520282","3687.4582088","0","3687.4727869","3692.7107048",""
