"code","nro_aplicante","nro_bloque","nro_trial_bloque","nro_trial_global","show_game_type","choice_order","rival","pay_individual","pay_competitive","question","answer_left_text","answer_right_text","correct_answer","outcome_individual","outcome_competitive","outcome_rival","game_type","answer","social_time","rt_game_type","feedback_delay","show_question","answer_time","rt_answer_global","feedback_delay_2","show_jitter","jitter_time","show_outcome","outcome_time","outcome_participant_real","show_final_jitter","second_jitter_time","inicio_descanso"
"sujeto_685cae59","1","1","1","1","72.7963829041","direct","3","1","4","¿Cuántos centímetros corresponden
al talle 36 del calzado?","23","24","","0","0","1","competitive","left","1.9777739048","74.7741990089","3.0222260952","77.9842648506","3.64589095116","81.6302268505","2.35410904884","84.0191919804","85.0474848747","85.1200840473","88.1230258942","0","88.1372740269","90.2998099327",""
"sujeto_685cae59","1","1","2","2","90.4555149078","inverse","3","1","2","¿Cuántas metros mide la Intendencia
Municipal de Montevideo? ","84","78","","0","0","1","competitive","left","2.83965396881","93.295238018","2.16034603119","95.6235408783","3.86767101288","99.4912729263","2.13232898712","101.659510851","103.537535906","103.609892845","106.612894058","0","106.627552032","108.719295025",""
"sujeto_685cae59","1","1","3","3","108.863688946","direct","1","1","3","¿Cuántas La Pasiva
 hay en uruguay?","15","11","","1","1","1","competitive","right","2.05951786041","110.923253059","2.94048213959","114.020807981","2.50243020058","116.523278952","3.49756979942","120.070041895","121.681725025","121.755568027","124.758542061","1","124.772804976","129.051105976",""
"sujeto_685cae59","1","1","4","4","129.191071987","inverse","3","1","3","¿De que color es la camiseta de uruguay?","blanca","celeste","right","1","1","1","individual","right","2.57019019127","131.76133585","2.42980980873","134.363285065","3.30988192558","137.673209906","2.69011807442","140.414880991","141.619674921","141.66603303","144.66901803","1","144.683809042","148.136981964",""
"sujeto_685cae59","1","1","5","5","148.284874916","direct","2","1","1","¿Cuánto metros mide
la torre Eiffel?","333","324","","1","1","1","competitive","left","1.98346996307","150.268390894","3.01653003693","153.44064188","2.26066303253","155.701372862","3.73933696747","159.490248919","161.01164794","161.092113018","164.095093012","1","164.109829903","171.14653492",""
"sujeto_685cae59","1","1","6","6","171.294359922","inverse","3","1","4","¿Cuantas ciudades existen
 en todo el uruguay?","63","72","","0","0","1","competitive","right","1.77704000473","173.071442842","3.22295999527","176.452751875","2.91459107399","179.367405891","3.08540892601","182.502580881","183.557361841","183.638066053","186.641054869","0","186.653790951","194.280324936",""
"sujeto_685cae59","1","1","7","7","194.42236805","direct","1","1","1","¿Cuantos estados tiene África?","52","54","","1","1","0","competitive","left","1.44051098824","195.862973928","3.55948901176","199.580451965","2.92301678658","202.503530979","3.07698321342","205.631260872","207.495287895","207.56597805","210.568968058","1","210.583323956","216.34432888",""
"sujeto_685cae59","1","1","8","8","216.501186848","inverse","4","1","4","¿En qué año nació
 Stephen Hawking?","1952","1942","","0","0","1","individual","left","1.83429503441","218.335530043","3.16570496559","221.674958944","2.0326461792","223.707644939","3.9673538208","227.723698854","229.168030977","229.208919048","232.211865902","0","232.226525068","238.325101852",""
"sujeto_685cae59","1","1","9","9","238.461500883","direct","2","1","3","¿Cuánto años tenía Artigas
 cuando se fue a Paraguay?","56","57","","1","1","1","individual","right","1.94113302231","240.402709007","3.05886697769","243.619777918","2.18676805496","245.806584835","3.81323194504","249.669960976","251.219445944","251.272202969","254.275178909","1","254.288967848","260.336281061",""
"sujeto_685cae59","1","1","10","10","260.490392923","inverse","1","1","2","¿Cuantos milímetros 
mide una hoja A2?","420x592","420x594","","0","0","1","competitive","left","1.28228497505","261.77274704","3.71771502495","265.64844203","2.63922405243","268.287726879","3.36077594757","271.698329926","273.26600194","273.350227833","276.353229046","0","276.367709875","283.441340923",""
"sujeto_685cae59","1","1","11","11","283.586889982","direct","3","1","3","¿Cuál es la menor temperatura 
registrada en Uruguay?","-5.4","-7.4","","0","0","1","individual","left","2.39485502243","285.981797934","2.60514497757","288.760900974","3.04091191292","291.801879883","2.95908808708","294.811203957","296.493264914","296.545543909","299.548550844","0","299.563171864","303.296478033",""
"sujeto_685cae59","1","1","12","12","303.448706865","inverse","2","1","2","¿Cuantos años hace que 
se fundó facebook?","18","17","","0","0","0","competitive","right","1.41927909851","304.868057966","3.58072090149","308.603950977","2.78688716888","311.390879869","3.21311283112","314.654109955","316.026792049","316.105582952","319.108585835","0","319.12337184","321.897968054",""
"sujeto_685cae59","1","1","13","13","322.041718006","direct","1","1","4","¿Cuál animal es más
 pesado en promedio?","Rinoceronte","Hipopotamo","","0","0","0","competitive","left","1.46016097069","323.501946926","3.53983902931","327.195384979","4.21456003189","331.41001606","1.78543996811","333.279062986","334.358283997","334.430888891","337.433861971","0","337.447501898","341.288477898",""
"sujeto_685cae59","1","1","14","14","341.418335915","inverse","1","1","2","¿Qué personaje de dragon ball 
murió más veces?","Chaoz","Krillin","","1","1","0","competitive","right","1.4285838604","342.846963882","3.5714161396","346.574136972","2.3768658638","348.95104599","3.6231341362","352.623613834","354.081446886","354.159142017","357.162118912","1","357.176759005","364.949718952",""
"sujeto_685cae59","1","1","15","15","365.077152014","direct","3","1","2","La universidad de oxford. 
existe desde:","1096","1249","","1","1","0","individual","right","1.6189930439","366.696192026","3.3810069561","370.235395908","3.82878088951","374.064237833","2.17121911049","376.270983934","377.319773912","377.371278048","380.374250889","1","380.38862586","387.079470873",""
"sujeto_685cae59","1","1","16","16","387.206758976","inverse","3","1","1","¿Qué escritor latino ganó antes
 el premio nobel?"," García Marquez","Neruda","","0","0","1","individual","left","2.77311897278","389.979997873","2.22688102722","392.379861832","4.00434708595","396.384275913","1.99565291405","398.432510853","400.172533989","400.216753006","403.219727039","0","403.234086037","406.694614887",""
"sujeto_685cae59","1","1","17","17","406.851207972","direct","4","1","3","¿Cuántos dientes tiene un
 tiburón blanco?","6000","3000","","0","0","1","individual","right","2.00112986565","408.852411032","2.99887013435","412.023962975","3.20531415939","415.229318857","2.79468584061","418.074621916","419.113639832","419.158956051","422.161915064","0","422.176734924","426.986392021",""
"sujeto_685cae59","1","1","18","18","427.12788105","inverse","4","1","1","¿Cuánto mide el paralelo Ecuador?","40.000km","70.000km","","0","0","1","individual","right","1.84955596924","428.977483988","3.15044403076","432.318757057","3.69773006439","436.016531944","2.30226993561","438.368888855","440.325037956","440.370121956","443.373090029","0","443.388144016","446.990720034",""
"sujeto_685cae59","1","1","19","19","447.14013505","direct","4","1","2","¿Cuál fue el primer libro 
de Stephen King?","Carrie","The Stand","","1","1","1","individual","left","2.37338495255","449.513584852","2.62661504745","452.296496868","4.13004207611","456.426609993","1.86995792389","458.346894979","460.091033936","460.130795002","463.133780956","1","463.1483109","467.622752905",""
"sujeto_685cae59","1","1","20","20","467.766712904","inverse","2","1","3","¿Qué civilización practicaba
 la momificación?","Grecia","Egipto","right","0","0","1","competitive","right","1.87597703934","469.642734051","3.12402296066","472.956809044","3.3018488884","476.258724928","2.6981511116","479.005156994","480.944421053","481.022856951","484.025866032","1","484.040475845","488.269278049",""
"sujeto_685cae59","1","1","21","21","488.409241915","direct","4","1","4","¿Cuántos millones de visitas
 recibe google por minuto?","3.0","4.5","","0","0","1","individual","right","1.35456395149","489.763874054","3.64543604851","493.566917896","3.80086779594","497.367835999","2.19913220406","499.617712021","501.132551908","501.185721874","504.188679934","0","504.202002048","511.324689865",""
"sujeto_685cae59","1","1","22","22","511.470357895","inverse","1","1","3","La máquina de fax. se inventó en:","1843","1960","","0","0","1","competitive","right","1.79449605942","513.264932871","3.20550394058","516.629175901","5.43579888344","522.065038919","0.564201116562","522.681047916","523.923163891","524.014276981","527.017255068","0","527.031959057","530.268278837",""
"sujeto_685cae59","1","1","23","23","530.416962862","direct","2","1","4","En la verdadera historia de los
 300 espartanos. habían:","300 soldados","4300 soldados","","1","1","1","competitive","left","2.32509207726","532.742100954","2.67490792274","535.604023933","4.29504799843","539.899140835","1.70495200157","541.640516043","542.901763916","542.973573923","545.976551056","1","545.991852999","549.793647051",""
"sujeto_685cae59","1","1","24","24","549.942725897","inverse","1","1","4","¿Cuántos milímetros crece
 el pelo por día?","0.4","0.04","","0","0","0","competitive","right","1.05438089371","550.997180939","3.94561910629","555.110966921","4.20123291016","559.312240839","1.79876708984","561.162783861","562.923477888","562.996748924","565.99899292","0","566.014816999","572.749974966",""
"sujeto_685cae59","1","1","25","25","572.899688959","direct","4","1","1","¿Cuánto mide la baldosa gris 
clásica de Montevideo?","22x22 cm.","20x20 cm.","","1","1","1","competitive","right","1.36861610413","574.268372059","3.63138389587","578.060958862","3.41935920715","581.480366945","2.58064079285","584.1113379","586.106554985","586.176735878","589.179683924","1","589.192335844","594.73504591",""
"sujeto_685cae59","1","1","26","26","594.877372026","inverse","2","1","2","¿Cuántas películas de rápidos
 y furiosos hay?","10","11","","1","1","0","competitive","left","1.45502710342","596.33246398","3.54497289658","600.022228956","3.48624300957","603.508512974","2.51375699043","606.073302031","607.431294918","607.50689292","610.509865999","1","610.525239944","612.559942007",""
"sujeto_685cae59","1","1","27","27","612.709616899","direct","3","1","1","¿Cuántos masters 1000
 ganó Del Potro?","1","2","","1","1","1","competitive","left","1.31891489029","614.028594971","3.68108510971","617.865316868","2.70024609566","620.565603018","3.29975390434","623.91257906","625.667216063","625.746873856","628.749825001","1","628.765045881","636.161442995",""
"sujeto_685cae59","1","1","28","28","636.319154978","inverse","2","1","4","¿Cuántos meses dura el 
embarazo de una leona?","3 meses","4 meses","","0","0","1","competitive","right","1.59352612495","637.912744045","3.40647387505","641.47727704","2.47446203232","643.95179987","3.52553796768","647.524747849","648.635825872","648.710034847","651.713029861","0","651.727771997","658.450261831",""
"sujeto_685cae59","1","1","29","29","658.595921993","direct","1","1","1","¿En qué año fue creado
 el sandwich?","1762","1653","","1","1","0","competitive","left","1.67588114738","660.271873951","3.32411885262","663.754575968","2.92530298233","666.67997098","3.07469701767","669.805346012","671.403892994","671.489842892","674.492807865","1","674.507338047","677.977980852",""
"sujeto_685cae59","1","1","30","30","678.12565589","inverse","4","1","2","El nombre de la moneda de Vietnam es:","Dinar","Dong","","0","0","1","individual","right","1.83232903481","679.958058834","3.16767096519","683.299507856","2.61445999146","685.914007902","3.38554000854","689.349216938","690.781219006","690.817951918","693.82089901","0","693.83553791","700.003955841",""
"sujeto_685cae59","1","1","31","31","700.153805017","direct","2","1","1","¿cuantos aleteos puede dar 
un colibrí por segundo?","120","50","","0","0","0","competitive","left","1.20925378799","701.363132","3.79074621201","705.310390949","3.80972981453","709.120164871","2.19027018547","711.34483695","713.07723403","713.162222862","716.165214062","0","716.179451942","720.391726017",""
"sujeto_685cae59","1","1","32","32","720.54804492","inverse","4","1","3","¿Qué altura promedio tienen
 los hombres uruguayos?","1.73 m","1.72 m","","1","1","1","individual","right","1.46520805359","722.013301849","3.53479194641","725.716537952","2.88371491432","728.600292921","3.11628508568","731.767482042","733.029932976","733.070144892","736.073107958","1","736.086770058","740.562713861",""
"sujeto_685cae59","1","2","1","33","912.282274008","direct","1","1","1","¿En qué año nació 
el actor Bradd Pitt?","1967","1963","","1","1","1","competitive","right","2.08538508415","914.367722988","2.91461491585","917.451845884","1.98682999611","919.438745975","4.01317000389","923.50748992","924.603364944","924.68471384","927.687644005","1","927.708132982","933.6356709","740.578645945"
"sujeto_685cae59","1","2","2","34","933.791550875","inverse","2","1","1","¿Cual es el segundo 
monte más alto?","Kanchenjunga","K2","","1","1","1","competitive","right","1.30834102631","935.100034952","3.69165897369","938.948971033","2.63536310196","941.584380865","3.36463689804","945.001735926","946.45399785","946.537185907","949.540143013","1","949.554419041","952.984289885",""
"sujeto_685cae59","1","2","3","35","953.138318062","direct","3","1","1","¿Cuándo finalizó la construcción
 del Palacio Legislativo?","1925","1917","","0","0","1","competitive","right","0.995656967163","954.134052992","4.00434303284","958.29211688","2.6579079628","960.950088978","3.3420920372","964.345375061","965.987099886","966.061375856","969.063292027","0","969.081704855","974.779240847",""
"sujeto_685cae59","1","2","4","36","974.917079926","inverse","3","1","3","¿Cuántos integrantes tenía
 en su inicio  el cuarteto de nos?","3","4","","1","1","1","competitive","right","1.55613994598","976.473273993","3.44386005402","980.071251869","2.96594905853","983.037268877","3.03405094147","986.123503923","987.25604701","987.340772867","990.343014002","1","990.359722853","996.009495974",""
"sujeto_685cae59","1","2","5","37","996.161010981","direct","2","1","3","¿Qué valor tiene el número pi?","3.14","4.18","left","0","0","1","competitive","left","2.10728001595","998.268368959","2.89271998405","1001.32912302","1.53750395775","1002.86666799","4.46249604225","1007.38316894","1008.83697295","1008.91919088","1011.92205","1","1011.93826199","1018.85904503",""
"sujeto_685cae59","1","2","6","38","1019.00764585","inverse","2","1","2","¿Cuál es la esperanza de vida
 en Uruguay?","75","77","","1","1","0","competitive","left","1.25978207588","1020.26747799","3.74021792412","1024.17722487","2.12031507492","1026.29760599","3.87968492508","1030.22766304","1031.88102388","1031.96359396","1034.96651983","1","1034.98082089","1041.44385195",""
"sujeto_685cae59","1","2","7","39","1041.58623385","direct","1","1","2","¿Cuantos pisos tiene la torre 
de las comunicaciones?","26","32","","1","1","0","competitive","left","1.08339500427","1042.66968083","3.91660499573","1046.75333786","2.45838999748","1049.21177101","3.54161000252","1052.79146194","1054.62000203","1054.71034598","1057.71296906","1","1057.72782588","1059.87400293",""
"sujeto_685cae59","1","2","8","40","1060.02763295","inverse","2","1","4","¿En qué país sudamericano 
no hay McDonalds?","Bolivia","Venezuela","","0","0","1","competitive","right","1.62721896172","1061.6549499","3.37278103828","1065.18007183","4.12578105927","1069.30594206","1.87421894073","1071.23432994","1072.54370403","1072.61963701","1075.62257695","0","1075.63735104","1081.99698806",""
"sujeto_685cae59","1","2","9","41","1082.15654302","direct","3","1","1","¿En qué año empieza
 la Edad Media?","476","512","","1","1","1","competitive","right","1.52247309685","1083.67908406","3.47752690315","1087.30963993","2.40593695641","1089.71566606","3.59406304359","1093.3618269","1094.76500607","1094.84697485","1097.84896994","1","1097.864676","1100.85299993",""
"sujeto_685cae59","1","2","10","42","1101.00006604","inverse","3","1","4","¿Hace cuántos años surgió
 el ser humano?","200mil","300mil","","0","0","0","individual","left","1.43405103683","1102.43419003","3.56594896317","1106.168715","3.2985060215","1109.46726298","2.7014939785","1112.20620894","1114.09208488","1114.13875198","1117.14101386","0","1117.15926886","1120.46975398",""
"sujeto_685cae59","1","2","11","43","1120.67362785","direct","3","1","4","¿Cuántas cuadras tiene
 actualmente 18 de julio? ","36","33","","0","0","1","competitive","left","1.24867010117","1121.92234492","3.75132989883","1125.84622097","2.8241379261","1128.6703999","3.1758620739","1131.88340592","1133.58561707","1133.66669202","1136.66964889","0","1136.68523502","1141.41099286",""
"sujeto_685cae59","1","2","12","44","1141.58696485","inverse","1","1","4","¿Qué juego de equipo se 
considera mas rápido?","Lacrosse","Badminton","","0","0","0","competitive","left","1.4765150547","1143.06354403","3.5234849453","1146.74049091","3.79604792595","1150.53660297","2.20395207405","1152.77712107","1154.02024484","1154.11119485","1157.1140399","0","1157.12970901","1165.12481093",""
"sujeto_685cae59","1","2","13","45","1165.30135703","direct","1","1","3","¿Qué promedio de edad 
vive una jirafa? ","25","20","","0","0","1","competitive","left","1.31536006927","1166.616786","3.68463993073","1170.45180988","2.31490087509","1172.76677394","3.68509912491","1176.48853087","1178.25002003","1178.32457089","1181.32696295","0","1181.34053802","1187.29596305",""
"sujeto_685cae59","1","2","14","46","1187.44277406","inverse","1","1","2","¿Cuántos grandes lagos hay?","7","5","","0","0","1","competitive","left","1.94919109344","1189.392102","3.05080890656","1192.61406088","1.65887904167","1194.27301884","4.34112095833","1198.65122604","1199.942981","1200.03443599","1203.03698492","0","1203.05395603","1210.87530088",""
"sujeto_685cae59","1","2","15","47","1211.02741289","direct","3","1","2","¿Cuántos discos de estudio
 grabó Johhny Cash? ","54","43","","1","1","0","competitive","right","1.63664388657","1212.66411996","3.36335611343","1216.19253302","2.79355216026","1218.98612905","3.20644783974","1222.23045588","1223.50897884","1223.58255005","1226.58499098","1","1226.59872794","1233.24964905",""
"sujeto_685cae59","1","2","16","48","1233.40068007","inverse","4","1","1","¿Cuántos barrios tiene
 Montevideo? ","71","62","","0","0","1","competitive","right","1.280616045","1234.68133998","3.719383955","1238.55237198","1.90893602371","1240.46135092","4.09106397629","1244.59259796","1245.59967089","1245.67705393","1248.67999506","0","1248.69364095","1254.15500784",""
"sujeto_685cae59","1","2","17","49","1254.31246495","direct","3","1","3","¿Qué edad tiene Homero Simpson?","36","42","","0","0","1","competitive","left","1.1299431324","1255.44245005","3.8700568676","1259.48224902","2.51822900772","1262.00054598","3.48177099228","1265.53542399","1266.91103888","1266.98559499","1269.98851299","0","1270.00472784","1274.39297104",""
"sujeto_685cae59","1","2","18","50","1274.53811789","inverse","4","1","2","¿Cuántos países con monarquía 
hay en europa actualmente? ","6","10","","1","1","1","individual","right","1.87445402145","1276.41262197","3.12554597855","1279.7438879","2.57269906998","1282.31667995","3.42730093002","1285.79301691","1287.23096991","1287.28060198","1290.28356504","1","1290.29941106","1296.45618296",""
"sujeto_685cae59","1","2","19","51","1296.61867404","direct","2","1","3","¿Cuántos capítulos de
 Friends existen? ","236","228","","1","1","1","competitive","left","2.37779808044","1298.9965179","2.62220191956","1301.77113104","2.77623391151","1304.547436","3.22376608849","1307.80788898","1309.11339903","1309.19079185","1312.19298196","1","1312.21053195","1314.58615184",""
"sujeto_685cae59","1","2","20","52","1314.72727704","inverse","1","1","3","¿Cuántas óperas compuso Mozart? ","27","22","","1","1","1","competitive","right","1.15217208862","1315.87951398","3.84782791138","1319.86257792","2.76159191132","1322.62421584","3.23840808868","1325.90123487","1327.19339395","1327.26860905","1330.27100396","1","1330.28621984","1337.59704185",""
"sujeto_685cae59","1","2","21","53","1337.73878288","direct","4","1","3","¿Cuántos mundiales de fútbol 
femenino ha realizado FIFA? ","9","7","","1","1","1","individual","left","1.56431293488","1339.30316687","3.43568706512","1342.90772891","2.90728282928","1345.81507492","3.09271717072","1348.94487786","1350.18856406","1350.22807789","1353.23101187","1","1353.24685788","1359.34900403",""
"sujeto_685cae59","1","2","22","54","1359.53420901","inverse","3","1","2","¿Cuál es la temperatura 
media anual en Montevideo? ","17.5","16.3","","0","0","1","competitive","left","1.96612000465","1361.50038195","3.03387999535","1364.70233107","1.90444493294","1366.60681891","4.09555506706","1370.7546649","1372.69300199","1372.77345395","1375.77598405","0","1375.79304004","1382.36255288",""
"sujeto_685cae59","1","2","23","55","1382.54445791","direct","2","1","2","¿En qué año se estrenó el
 videojuego The Sims? ","2000","2002","","0","0","0","individual","left","2.39620995522","1384.94073296","2.60379004478","1387.71373796","2.71786785126","1390.43167901","3.28213214874","1393.76860285","1395.63063693","1395.68207598","1398.68505287","0","1398.70331502","1406.095999",""
"sujeto_685cae59","1","2","24","56","1406.25670195","inverse","2","1","1","¿Cuál es la canción con 
mas covers? ","Yesterday","Stand by me","","0","0","0","individual","right","2.11778879166","1408.37453485","2.88221120834","1411.42544103","2.67200398445","1414.09748793","3.32799601555","1417.47812986","1418.87665796","1418.92929602","1421.93202901","0","1421.94834995","1426.11915803",""
"sujeto_685cae59","1","2","25","57","1426.26701593","direct","1","1","4","¿Cuánto duró la guerra
 de los 100 años?","116","123","","0","0","0","competitive","left","2.521682024","1428.78880692","2.478317976","1431.42019486","1.96611595154","1433.38635683","4.03388404846","1437.4731009","1438.95393205","1439.04108","1442.04399991","0","1442.05989194","1444.37909102",""
"sujeto_685cae59","1","2","26","58","1444.54288197","inverse","4","1","4","¿Qué color tiene la  bandera de Brasil?","Amarillo","Naranja","left","0","0","1","competitive","left","2.23591995239","1446.77884603","2.76408004761","1449.71212006","2.29212594032","1452.00430989","3.70787405968","1455.74968886","1457.31613994","1457.39903092","1460.40202093","1","1460.41851592","1463.45126486",""
"sujeto_685cae59","1","2","27","59","1463.60162592","direct","4","1","3","¿Qué carabela de 
Colon no volvió del viaje?","Santa María","La pinta","","0","0","1","competitive","left","1.76154303551","1465.36321402","3.23845696449","1468.77299905","3.88609910011","1472.65914297","2.11390089989","1474.82352996","1476.31395793","1476.39227295","1479.3934679","0","1479.41181397","1481.51123595",""
"sujeto_685cae59","1","2","28","60","1481.66063285","inverse","4","1","4","¿Cuántos huesos tiene
 un adulto humano?","217","206","","0","0","1","competitive","right","1.7594408989","1483.42012191","3.2405591011","1486.81511092","2.35694289207","1489.17211795","3.64305710793","1492.86669898","1494.13704801","1494.2200079","1497.22204304","0","1497.23745704","1505.07500505",""
"sujeto_685cae59","1","2","29","61","1505.25876188","direct","1","1","1","¿Qué país africano fue 
fundado por esclavos?","Liberia","Chad","","0","0","0","competitive","right","1.78829407692","1507.04712605","3.21170592308","1510.42799902","3.16290283203","1513.59097695","2.83709716797","1516.46349192","1518.45516205","1518.52935505","1521.53200698","0","1521.54794598","1529.53876996",""
"sujeto_685cae59","1","2","30","62","1529.68595695","inverse","4","1","2","¿A cuánto asciende la cima
 del monte Everest?","7.990 mts","8.848 mts","","0","0","1","competitive","right","2.46687889099","1532.15288186","2.53312110901","1534.85550404","2.46931815147","1537.32486486","3.53068184853","1540.90979791","1542.094069","1542.17602801","1545.17897105","0","1545.19583893","1552.37806296",""
"sujeto_685cae59","1","2","31","63","1552.53013301","direct","4","1","1","¿Cuál es el país mas chico?","Sealand","Luxemburgo","","1","1","1","individual","right","1.90174818039","1554.43201184","3.09825181961","1557.71617389","3.71058082581","1561.42682004","2.28941917419","1563.75452495","1565.61801291","1565.6706779","1568.67276001","1","1568.69102287","1571.81302094",""
"sujeto_685cae59","1","2","32","64","1571.9743259","inverse","2","1","4","¿Cuántas pirámides hay en Egipto?","10000","11000","","1","1","1","competitive","right","1.25240302086","1573.22677684","3.74759697914","1577.14307404","3.28567814827","1580.42882085","2.71432185173","1583.18077397","1584.21399283","1584.29881692","1587.30099607","1","1587.31704903","1592.42601395",""
"sujeto_685cae59","1","3","1","65","1742.44895506","direct","2","1","2","¿Cuál es el quinto país con 
mas extensión?","Canadá","Brasil","","1","1","0","competitive","left","1.54558300972","1743.99458599","3.45441699028","1747.60964894","3.34387993813","1750.95357299","2.65612006187","1753.64632797","1754.97963405","1755.06491399","1758.06789303","1","1758.08249998","1765.80888796","1592.44152284"
"sujeto_685cae59","1","3","2","66","1765.95102692","inverse","1","1","2","¿Qué rasgo facial no tiene
 la Mona Lisa?","Cejas","Pómulos","","0","0","1","competitive","left","2.75348997116","1768.70458984","2.24651002884","1771.10621405","2.75029110909","1773.85656595","3.24970889091","1777.15856099","1778.90899897","1778.99414492","1781.99710798","0","1782.01478291","1788.28611803",""
"sujeto_685cae59","1","3","3","67","1788.43433595","direct","4","1","3","¿Cuál es el país con 
mayor población?","Esados Unidos","China","right","0","0","1","competitive","right","2.18319487572","1790.61759496","2.81680512428","1793.60268092","1.52276396751","1795.12548804","4.47723603249","1799.65446687","1801.30007195","1801.39110088","1804.39408088","1","1804.40783","1807.77516794",""
"sujeto_685cae59","1","3","4","68","1807.92530704","inverse","1","1","1","La palabra dinosaurio significa","Lagarto Terrible","Lagarto Dragón","","1","1","0","competitive","","2.65717697144","1810.58254886","2.34282302856","1813.07821298","6","1819.07834291","0","1819.09754896","1820.26789093","1820.34943199","1823.352391","0","1823.36760998","1826.22940803",""
"sujeto_685cae59","1","3","5","69","1826.36795688","direct","2","1","3","¿Qué es el membrillero?","Arbol","Arbusto","","0","0","0","competitive","left","1.22256493568","1827.59056306","3.77743506432","1831.50314403","2.65739297867","1834.16058397","3.34260702133","1837.56012702","1839.51426291","1839.59413099","1842.59712291","0","1842.61026406","1849.07429504",""
"sujeto_685cae59","1","3","6","70","1849.21309185","inverse","3","1","3","¿Alrededor de qué planeta orbita 
el satélite Europa?","Jupiter","Saturno","","1","1","1","competitive","right","2.46749711037","1851.68063402","2.53250288963","1854.38217998","3.27538514137","1857.65760899","2.72461485863","1860.43455291","1861.97936988","1862.05339289","1865.05637002","1","1865.07536697","1867.28051901",""
"sujeto_685cae59","1","3","7","71","1867.42258501","direct","3","1","1","¿Donde fue el mundial de 
fútbol de 1954?","Suiza","Suecia","","1","1","1","competitive","left","2.1460351944","1869.56868601","2.8539648056","1872.59238887","2.81020402908","1875.402637","3.18979597092","1878.63118696","1879.88380289","1879.965415","1882.96841097","1","1882.982687","1886.89445996",""
"sujeto_685cae59","1","3","8","72","1887.03265595","inverse","1","1","4","¿Cuál de los 7 enanitos
no tenía barba?","Bashful","Mudito","","1","1","0","competitive","right","1.97406697273","1889.00683188","3.02593302727","1892.20134807","2.48523712158","1894.68663096","3.51476287842","1898.25460601","1899.83473492","1899.90597892","1902.90894103","1","1902.92340684","1907.84903598",""
"sujeto_685cae59","1","3","9","73","1907.99133897","direct","3","1","2","¿Cual red social es
mas utilizada mundialmente?","Instagram","Facebook","","1","1","0","individual","left","1.74333786964","1909.73474503","3.25666213036","1913.14450097","2.35013389587","1915.49470305","3.64986610413","1919.19826484","1921.11563492","1921.16683006","1924.16981506","1","1924.18450594","1927.11901498",""
"sujeto_685cae59","1","3","10","74","1927.26906204","inverse","4","1","1","¿Cuándo se inició la copa
 América de fútbol?","1916","1923","","1","1","1","competitive","right","3.06272101402","1930.33183002","1.93727898598","1932.42214894","3.49450588226","1935.91670084","2.50549411774","1938.45830297","1940.355762","1940.42927289","1943.43226099","1","1943.44715786","1946.10328984",""
"sujeto_685cae59","1","3","11","75","1946.24934387","direct","3","1","4","¿Cuántos presidentes de EEUU
han muerto asesinados?","3","4","","0","0","1","competitive","right","1.70740604401","1947.95681405","3.29259395599","1951.40082884","2.52293801308","1953.92382693","3.47706198692","1957.45440197","1958.93835592","1959.02238107","1962.02537894","0","1962.04056692","1965.68466306",""
"sujeto_685cae59","1","3","12","76","1965.82451892","inverse","2","1","4","¿Cuántas veces participó EEUU
 en la copa América?","4","5","","0","0","1","competitive","right","0.961310863495","1966.78589892","4.03868913651","1970.97679996","2.23500919342","1973.21185303","3.76499080658","1977.03007102","1978.47415686","1978.54917097","1981.55216384","0","1981.56686401","1987.68405795",""
"sujeto_685cae59","1","3","13","77","1987.83408403","direct","4","1","1","¿Cuál de estos países 
no formaba la URSS?","Azeribayán","Afganistán","","0","0","1","individual","right","2.66077804565","1990.49492693","2.33922195435","1992.98969197","3.28011584282","1996.26984906","2.71988415718","1999.04144192","2000.35453105","2000.39298105","2003.39596391","0","2003.41069388","2011.39281487",""
"sujeto_685cae59","1","3","14","78","2011.5304029","inverse","1","1","1","¿En qué año se inauguró
 el teatro Solís?","1867","1856","","0","0","0","individual","right","1.82349300385","2013.35398984","3.17650699615","2016.68485904","2.27401995659","2018.95894098","3.72598004341","2022.73862195","2023.79492784","2023.83883095","2026.84175897","0","2026.85634494","2033.50419402",""
"sujeto_685cae59","1","3","15","79","2033.65642786","direct","1","1","4","¿A qué velocidad vuela 
el avión más rápido?","3529","3874","","0","0","0","competitive","right","1.48554897308","2035.14202094","3.51445102692","2038.82641006","2.71861505508","2041.54507399","3.28138494492","2044.87946391","2046.634969","2046.71515989","2049.71813893","0","2049.73236489","2051.84265995",""
"sujeto_685cae59","1","3","16","80","2051.98446393","inverse","3","1","4","¿De qué año es la primer 
película cinematográfica?","1897","1888","","0","0","0","competitive","left","1.67356395721","2053.65807605","3.32643604279","2057.13802695","2.19898581505","2059.33705401","3.80101418495","2063.18932986","2064.32229304","2064.40817094","2067.41107893","0","2067.42574096","2072.83552885",""
"sujeto_685cae59","1","3","17","81","2072.97662187","direct","2","1","3","¿Cuántos países 
tiene nuestro planeta?","191","194","","1","1","1","competitive","right","1.39451289177","2074.37121105","3.60548710823","2078.11635303","3.07273101807","2081.18915105","2.92726898193","2084.17062187","2085.52785397","2085.60493183","2088.60795784","1","2088.62262297","2091.86093497",""
"sujeto_685cae59","1","3","18","82","2092.00680399","inverse","2","1","2","¿Cuántos habitantes
 tiene Buenos Aires?","2.9000.000","3650000","","0","0","0","competitive","left","0.774310112","2092.78118587","4.225689888","2097.17618799","2.62483906746","2099.80106401","3.37516093254","2103.23009396","2104.62736297","2104.71185184","2107.71403384","0","2107.7295289","2113.55895996",""
"sujeto_685cae59","1","3","19","83","2113.69858003","direct","2","1","1","¿Cuántos kilos forman una tonelada?","1000","1500","left","1","1","1","individual","left","1.34855699539","2115.04718304","3.65144300461","2118.85133791","2.78985905647","2121.64126492","3.21014094353","2124.90457797","2126.79194784","2126.83942199","2129.84240985","1","2129.85732198","2135.81474185",""
"sujeto_685cae59","1","3","20","84","2135.94152284","inverse","4","1","4","¿Cuántos estados tiene la 
República del Perú? ","24","23","","0","0","1","competitive","left","1.3487970829","2137.29037094","3.6512029171","2141.09643793","3.01185321808","2144.1083529","2.98814678192","2147.13438296","2148.15601087","2148.23649502","2151.23948884","0","2151.25418997","2156.19950795",""
"sujeto_685cae59","1","3","21","85","2156.33892393","direct","3","1","3","¿En qué año nació Cristóbal Colón? ","1451","1447","","0","0","1","competitive","left","1.22643995285","2157.5654099","3.77356004715","2161.49168086","3.01069188118","2164.50242186","2.98930811882","2167.52813387","2169.37402487","2169.44717097","2172.45016098","0","2172.46489787","2176.68905497",""
"sujeto_685cae59","1","3","22","86","2176.83323193","inverse","4","1","4","¿Cuánto mide la 
Montaña Aconcagua? ","6234","6962","","0","0","1","competitive","right","1.28819298744","2178.12147284","3.71180701256","2182.00239396","1.50404500961","2183.50650597","4.49595499039","2188.05587196","2189.34520793","2189.42552686","2192.42848086","0","2192.44288993","2199.62656093",""
"sujeto_685cae59","1","3","23","87","2199.77515507","direct","2","1","4","¿Cuánto mide el punto
 más profundo del océano? ","12508","11003","","0","0","1","competitive","right","1.40539908409","2201.18062496","3.59460091591","2204.94325399","2.3303129673","2207.27361202","3.6696870327","2210.97883487","2212.23036289","2212.31458402","2215.31754804","0","2215.33152103","2219.53778696",""
"sujeto_685cae59","1","3","24","88","2219.68386698","inverse","1","1","3","¿Cuántos álbumes ha publicado 
el cantante Jaime Roos? ","41","34","","0","0","1","competitive","left","1.05175614357","2220.73568797","3.94824385643","2224.83810687","2.15751695633","2226.99566793","3.84248304367","2230.87526798","2232.36512899","2232.44135785","2235.443995","0","2235.458781","2241.65199399",""
"sujeto_685cae59","1","3","25","89","2241.79459095","direct","4","1","3","¿En qué año nació el 
ex-presidente Jorge Battle? ","1921","1927","","1","1","1","individual","left","1.37811899185","2243.17275906","3.62188100815","2246.94884586","3.57990884781","2250.5288229","2.42009115219","2252.98604202","2254.71672297","2254.75377893","2257.75673485","1","2257.77099204","2261.25703192",""
"sujeto_685cae59","1","3","26","90","2261.38986492","inverse","1","1","3","¿Cuántas presidencias 
constitucionales  hubo en Uruguay? ","41","42","","0","0","1","competitive","right","2.36196684837","2263.75189686","2.63803315163","2266.54344201","2.78839302063","2269.33190084","3.21160697937","2272.599123","2273.80289006","2273.88262987","2276.88562799","0","2276.89987683","2282.68353796",""
"sujeto_685cae59","1","3","27","91","2282.81862402","direct","1","1","2","¿Quién escribió mas sinfonías?","Mozart","Haydn","","1","1","0","individual","left","1.83933782578","2284.65803695","3.16066217422","2287.97241688","2.19353699684","2290.16599488","3.80646300316","2294.02529502","2295.24204302","2295.29408383","2298.29705906","1","2298.31173706","2302.06315398",""
"sujeto_685cae59","1","3","28","92","2302.2124579","inverse","4","1","2","¿En qué año nació Michael Jackson?","1958","1953","","1","1","1","individual","right","1.52555394173","2303.73805785","3.47444605827","2307.36619306","1.98785614967","2309.35408998","4.01214385033","2313.41965103","2315.39787006","2315.44063687","2318.44362092","1","2318.45812392","2324.32044792",""
"sujeto_685cae59","1","3","29","93","2324.47549605","direct","3","1","2","¿En qué año entró en vigencia 
la ley antitabaco en Uruguay?","2005","2006","","1","1","1","competitive","left","1.72363805771","2326.19919896","3.27636194229","2329.64481592","3.40329504013","2333.04815197","2.59670495987","2335.6986649","2337.29295993","2337.36602998","2340.36898994","1","2340.38380885","2345.71780705",""
"sujeto_685cae59","1","3","30","94","2345.86877084","inverse","3","1","1","¿Cuándo se subió el 
primer video a youtube?","2004","2005","","0","0","1","individual","right","1.70044088364","2347.56927299","3.29955911636","2351.02219391","3.08203887939","2354.10429287","2.91796112061","2357.05958891","2358.36520791","2358.41035485","2361.41333103","0","2361.4278059","2369.18342495",""
"sujeto_685cae59","1","3","31","95","2369.32529688","direct","2","1","1","¿Cuántos habitantes tiene India?","1200 millones","1300 millones","","0","0","0","individual","left","2.06301403046","2371.38838196","2.93698596954","2374.48032904","2.15397715569","2376.6343739","3.84602284431","2380.53366303","2382.50327086","2382.55222607","2385.55518293","0","2385.56973195","2391.61721301",""
"sujeto_685cae59","1","3","32","96","2391.75330806","inverse","4","1","2","¿A qué edad murió Bob Marley?","36","37","","0","0","1","individual","left","1.33608293533","2393.0894599","3.66391706467","2396.90668392","1.88273477554","2398.78945899","4.11726522446","2402.94314384","2404.84100103","2404.87738085","2407.88032603","0","2407.90213203","2411.00460792",""
"sujeto_685cae59","1","4","1","97","2531.65108585","direct","2","1","1","¿Cuantos años dirigió la selección 
uruguaya Tabarez?","15 años","13 años","","0","0","0","individual","left","1.81605601311","2533.46718884","3.18394398689","2536.80588484","3.12232398987","2539.92827296","2.87767601013","2542.85858893","2544.04974985","2544.10833883","2547.11096907","0","2547.13006902","2554.19901896","2411.02049398"
"sujeto_685cae59","1","4","2","98","2554.38271594","inverse","4","1","1","¿Cuantas teclas tiene un teclado 
de computadora generalmente? ","Entre 99 y 108","Entre 109 y 113","","1","1","1","competitive","right","1.92468380928","2556.30748105","3.07531619072","2559.55234504","4.47693800926","2564.02934694","1.52306199074","2565.58752584","2566.59023404","2566.67164683","2569.67456794","1","2569.69049692","2572.06108689",""
"sujeto_685cae59","1","4","3","99","2572.20710802","direct","1","1","1","¿Cuál Departamento tiene
 mayor superficie?","Río Negro","Soriano","","0","0","0","competitive","right","2.17828798294","2574.38546205","2.82171201706","2577.37816501","3.80828404427","2581.18649292","2.19171595573","2583.42945886","2585.14199996","2585.21679187","2588.21904993","0","2588.23388004","2592.55904388",""
"sujeto_685cae59","1","4","4","100","2592.70407391","inverse","3","1","2","¿Cuál es el apellido de las 
hermanastras  de  cenicienta?","Tremaine","Truman","","0","0","1","competitive","right","1.46137404442","2594.16549492","3.53862595558","2597.87179995","3.02771401405","2600.89955902","2.97228598595","2603.92410684","2605.79293489","2605.87574005","2608.87866187","0","2608.89586687","2611.59103799",""
"sujeto_685cae59","1","4","5","101","2611.74347901","direct","4","1","4","¿Cuál película ganó un
 Oscar a mejor película?","Alto Impacto","Cache","","0","0","1","competitive","left","1.46512198448","2613.2086699","3.53487801552","2616.91601491","1.94758987427","2618.86364794","4.05241012573","2622.97017503","2624.08899403","2624.16742206","2627.16808486","0","2627.18602586","2629.45061994",""
"sujeto_685cae59","1","4","6","102","2629.60306191","inverse","1","1","3","¿A cuántos centímetros
equivale la medida pié?","25","30","","0","0","1","competitive","right","1.35666894913","2630.95977783","3.64333105087","2634.75794387","3.79178404808","2638.54977083","2.20821595192","2640.79576898","2641.83573389","2641.91188788","2644.91482186","0","2644.930439","2650.33137488",""
"sujeto_685cae59","1","4","7","103","2650.48162293","direct","2","1","2","¿Qué departamento es mas grande?","Cerro Largo","Paysandú","","0","0","0","competitive","right","2.27023100853","2652.75190091","2.72976899147","2655.63810802","2.84876394272","2658.48693705","3.15123605728","2661.689183","2663.28798985","2663.3742249","2666.37706685","0","2666.39177489","2670.50104594",""
"sujeto_685cae59","1","4","8","104","2670.65899587","inverse","2","1","3","¿Quién pintó la Mona Lisa?","Picasso","Da Vinci","right","0","0","1","competitive","right","1.11290097237","2671.7719779","3.88709902763","2675.81201005","1.96094298363","2677.772995","4.03905701637","2681.84911394","2683.45496988","2683.53447795","2686.53704786","1","2686.55188704","2688.7141819",""
"sujeto_685cae59","1","4","9","105","2688.86688185","direct","4","1","3","¿Cuántos litros hay en un galon?","3.54","3.78","","1","1","1","competitive","right","1.00516891479","2689.87209487","3.99483108521","2694.02252793","2.47650098801","2696.49911904","3.52349901199","2700.05957389","2701.57698703","2701.6592629","2704.66201687","1","2704.67793894","2710.47001791",""
"sujeto_685cae59","1","4","10","106","2710.61500406","inverse","4","1","1","¿Cuántas teclas tiene
 un piano moderno?","80","88","","0","0","1","individual","right","1.66819000244","2712.28325891","3.33180999756","2715.783252","2.64297199249","2718.42627096","3.35702800751","2721.820611","2722.82902884","2722.86967397","2725.87260985","0","2725.88985395","2732.68757701",""
"sujeto_685cae59","1","4","11","107","2732.85847688","direct","4","1","3","¿Cuántos países hay en África?","54","62","","0","0","1","competitive","right","1.67381691933","2734.53233886","3.32618308067","2738.01081085","2.27255606651","2740.28341103","3.72744393349","2744.06366801","2745.75419784","2745.833009","2748.83597684","0","2748.85105205","2756.65582585",""
"sujeto_685cae59","1","4","12","108","2756.85424089","inverse","1","1","3","¿En qué siglo se crearon
 las primeras pistolas?","XV","XIII","","1","1","1","competitive","left","1.85922789574","2758.71359897","3.14077210426","2762.04089785","3.54857707024","2765.58953691","2.45142292976","2768.07662106","2770.02450895","2770.11293697","2773.11502099","1","2773.13034296","2776.3629849",""
"sujeto_685cae59","1","4","13","109","2776.52999401","direct","3","1","4","¿En qué año se estrenó 
la serie friends?","1994","1995","","0","0","1","competitive","left","1.0725209713","2777.602561","3.9274790287","2781.69965887","2.64689993858","2784.34660292","3.35310006142","2787.73753786","2789.61201787","2789.68811703","2792.69104099","0","2792.70796204","2797.71299887",""
"sujeto_685cae59","1","4","14","110","2797.89064884","inverse","3","1","4","¿En qué año nació Hitler?","1889","1887","","0","0","1","competitive","right","1.4850590229","2799.37577987","3.5149409771","2803.04679489","2.24598503113","2805.29284692","3.75401496887","2809.08304286","2810.19743395","2810.28212595","2813.28508592","0","2813.30157685","2818.32797503",""
"sujeto_685cae59","1","4","15","111","2818.469172","direct","1","1","4","¿Cuánto pesa un elefante Africano?","6000 kilos","5400 kilos","","0","0","0","competitive","right","1.32565903664","2819.79487395","3.67434096336","2823.63882589","2.44103884697","2826.07992697","3.55896115303","2829.69214392","2831.04797983","2831.12717485","2834.12996697","0","2834.14495897","2840.85102606",""
"sujeto_685cae59","1","4","16","112","2840.997962","inverse","1","1","2","¿Qué porcentaje de 
la población es zurda?","10%","7%","","1","1","0","individual","right","1.81500506401","2842.81301188","3.18499493599","2846.18376684","2.36319208145","2848.54702401","3.63680791855","2852.22093987","2853.46404886","2853.50506306","2856.50799489","1","2856.52373886","2862.50348306",""
"sujeto_685cae59","1","4","17","113","2862.64230204","direct","1","1","2","¿En qué año se estrenó
Volver al futuro?","1984","1985","","0","0","1","individual","left","1.68679094315","2864.32916903","3.31320905685","2867.81173205","2.00438809395","2869.81617188","3.99561190605","2873.86377597","2875.42560887","2875.46717906","2878.47016501","0","2878.48416686","2885.57497907",""
"sujeto_685cae59","1","4","18","114","2885.72300291","inverse","3","1","2","¿Cuántos jugadores hay en un 
equipo de baseball?","9","8","","1","1","0","individual","left","1.94749283791","2887.67059898","3.05250716209","2890.88924694","2.88900589943","2893.77831292","3.11099410057","2896.94399095","2898.55824995","2898.61055493","2901.61281586","1","2901.63096905","2906.60819983",""
"sujeto_685cae59","1","4","19","115","2906.76450586","direct","2","1","1","¿Cuántos Oscar ganó
 la película titanic?","13","11","","1","1","1","competitive","left","2.11994791031","2908.88459301","2.88005208969","2911.93540692","1.77302789688","2913.70850396","4.22697210312","2917.9872179","2919.28920007","2919.37381506","2922.37602496","1","2922.39123201","2926.99386597",""
"sujeto_685cae59","1","4","20","116","2927.14259791","inverse","4","1","4","¿En qué año comenzó
la segunda guerra mundial?","1939","1976","left","0","0","1","competitive","left","0.996942996979","2928.13958502","4.00305700302","2932.29703593","2.9834959507","2935.28060102","3.0165040493","2938.34928989","2940.14911985","2940.23357701","2943.23605585","1","2943.25231004","2947.23902488",""
"sujeto_685cae59","1","4","21","117","2947.38643289","direct","2","1","4","¿Cuántos biomas hay en Uruguay?","5","4","","0","0","1","competitive","left","1.26122689247","2948.64771485","3.73877310753","2952.55586195","1.97974801064","2954.53565288","4.02025198936","2958.59341693","2960.39072394","2960.47664905","2963.47960305","0","2963.49670291","2969.74607491",""
"sujeto_685cae59","1","4","22","118","2969.89869189","inverse","2","1","3","¿Cuándo murió Pablo Escobar?","1993","1997","","1","1","1","competitive","right","2.56104683876","2972.45978689","2.43895316124","2975.05233097","2.13841795921","2977.19081187","3.86158204079","2981.10396194","2982.88598084","2982.97248101","2985.97346997","1","2985.99193501","2991.69506884",""
"sujeto_685cae59","1","4","23","119","2991.82687187","direct","1","1","4","¿Qué serie ha ganado mas premios?","Friends","Murphy Brown","","1","1","0","competitive","left","0.977012872696","2992.80398798","4.0229871273","2996.976794","1.92914605141","2998.90601707","4.07085394859","3003.01704288","3004.36904097","3004.45036697","3007.452981","1","3007.46840906","3013.02999306",""
"sujeto_685cae59","1","4","24","120","3013.18795991","inverse","4","1","2","¿Cuántas fichas tiene el dominó?","26","28","","1","1","1","competitive","right","1.1770939827","3014.36511993","3.8229060173","3018.3420279","2.54103589058","3020.88310599","3.45896410942","3024.39276695","3025.44803691","3025.52904701","3028.53100801","1","3028.5468719","3033.7899549",""
"sujeto_685cae59","1","4","25","121","3033.94800591","direct","2","1","4","¿Cuántos son los dientes de leche?","20","25","","0","0","1","competitive","left","0.800137996674","3034.74821091","4.19986200333","3039.11734295","2.0398581028","3041.15726495","3.9601418972","3045.17034698","3046.879987","3046.97323704","3049.975981","0","3049.99094391","3052.13597584",""
"sujeto_685cae59","1","4","26","122","3052.27649093","inverse","3","1","3","¿Cuántos gramos son una onza?","22","28","","0","0","1","competitive","left","1.23180389404","3053.5083859","3.76819610596","3057.43164396","2.84472179413","3060.27642894","3.15527820587","3063.46483088","3065.45900393","3065.54805183","3068.55104899","0","3068.56747794","3074.85699105",""
"sujeto_685cae59","1","4","27","123","3075.00246406","direct","3","1","1","¿Cuándo salió el primer album
 de los Beatles?","1963","1962","","1","1","1","individual","right","2.12399601936","3077.12652493","2.87600398064","3080.15845895","2.69199800491","3082.85049891","3.30800199509","3086.20833588","3087.37196493","3087.42368388","3090.42599702","1","3090.44655299","3094.21803689",""
"sujeto_685cae59","1","4","28","124","3094.36450505","inverse","3","1","3","¿Quién fundó la empresa apple?","Carlos Slim","Steve Jobs","","1","1","1","competitive","right","0.978074073792","3095.34262395","4.02192592621","3099.51308084","1.88959002495","3101.40272903","4.11040997505","3105.56892991","3106.68356085","3106.77013898","3109.77298689","1","3109.78884101","3116.08667207",""
"sujeto_685cae59","1","4","29","125","3116.25841188","direct","4","1","2","¿Cuántos municipios hay
 en Montevideo?","8","7","","1","1","1","competitive","left","2.73121881485","3118.98969007","2.26878118515","3121.42698002","3.09078001976","3124.517802","2.90921998024","3127.47903991","3129.3938179","3129.48224592","3132.48516703","1","3132.50192785","3134.58305788",""
"sujeto_685cae59","1","4","30","126","3134.75002503","inverse","1","1","1","¿Cuántos kilómetros hay
 de Montevideo a Artigas?","632","599","","0","0","0","individual","left","1.30384302139","3136.05397797","3.69615697861","3139.92133689","4.50350904465","3144.42489004","1.49649095535","3145.97288299","3147.45596695","3147.50524497","3150.50818706","0","3150.52699995","3156.57909584",""
"sujeto_685cae59","1","4","31","127","3156.72885299","direct","2","1","2","¿En qué año nació 
Leonardo Da Vinci?","1452","1511","","1","1","0","competitive","right","1.16314315796","3157.89204288","3.83685684204","3161.89703798","1.55195498466","3163.44905996","4.44804501534","3167.93611097","3169.78903198","3169.86925697","3172.87202001","1","3172.88887596","3176.03501987",""
"sujeto_685cae59","1","4","32","128","3176.18652105","inverse","3","1","1","¿A qué continente
 pertenece el país Gabón?","Africa","Oceanía","","0","0","1","competitive","right","1.48657894135","3177.67316103","3.51342105865","3181.34306097","3.64509105682","3184.98819494","2.35490894318","3187.37806296","3189.18897486","3189.26292086","3192.26311398","0","3192.28147006","3197.5193119",""
