"code","nro_aplicante","nro_bloque","nro_trial_bloque","nro_trial_global","show_game_type","choice_order","rival","pay_individual","pay_competitive","question","answer_left_text","answer_right_text","correct_answer","outcome_individual","outcome_competitive","outcome_rival","game_type","answer","social_time","rt_game_type","feedback_delay","show_question","answer_time","rt_answer_global","feedback_delay_2","show_jitter","jitter_time","show_outcome","outcome_time","outcome_participant_real","show_final_jitter","second_jitter_time","inicio_descanso"
"sujeto_fddffe87","1","1","1","1","655.988692045","direct","3","1","4","¿Cuántos centímetros corresponden
al talle 36 del calzado?","23","24","","0","0","1","competitive","right","4.47357988358","660.462336063","0.526420116425","661.159053087","4.79153108597","665.950644016","1.20846891403","667.212481022","668.240730047","668.308542013","671.3115201","0","671.324002981","673.486513138",""
"sujeto_fddffe87","1","1","2","2","673.610619068","inverse","3","1","2","¿Cuántas metros mide la Intendencia
Municipal de Montevideo? ","84","78","","0","0","1","competitive","left","3.53793811798","677.148618937","1.46206188202","678.767307043","5.01770281792","683.785077095","0.982297182083","684.807163","686.68514204","686.773584127","689.776571035","0","689.791692972","691.88418293",""
"sujeto_fddffe87","1","1","3","3","692.027966976","direct","1","1","3","¿Cuántas La Pasiva
 hay en uruguay?","15","11","","1","1","1","competitive","left","3.47307085991","695.501101017","1.52692914009","697.181956053","4.2554910183","701.437513113","1.7445089817","703.231048107","704.842684984","704.915213108","707.916188955","1","707.932485104","712.208163977",""
"sujeto_fddffe87","1","1","4","4","712.337364912","inverse","3","1","3","¿De que color es la camiseta de uruguay?","blanca","celeste","right","1","1","1","competitive","right","2.97120499611","715.308634043","2.02879500389","717.493170977","3.16486692429","720.658078909","2.83513307571","723.52839303","724.733123064","724.813260078","727.816210985","1","727.830446005","731.284198046",""
"sujeto_fddffe87","1","1","5","5","731.414485931","direct","2","1","1","¿Cuánto metros mide
la torre Eiffel?","333","324","","1","1","1","individual","right","2.58179306984","733.996341944","2.41820693016","736.56913805","3.6136341095","740.182831049","2.3863658905","742.604795933","744.126191139","744.172526121","747.175487995","1","747.189477921","754.226170063",""
"sujeto_fddffe87","1","1","6","6","754.358138084","inverse","3","1","4","¿Cuantas ciudades existen
 en todo el uruguay?","63","72","","0","0","1","competitive","right","1.82841420174","756.186593056","3.17158579826","759.514580965","4.54949188232","764.064119101","1.45050811768","765.563328028","766.618134975","766.697130919","769.700114012","0","769.71440196","777.340135098",""
"sujeto_fddffe87","1","1","7","7","777.486145973","direct","1","1","1","¿Cuantos estados tiene África?","52","54","","1","1","0","individual","left","2.00300502777","779.489205122","2.99699497223","782.641152143","3.28051900864","785.921708107","2.71948099136","788.674010992","790.538005114","790.574594975","793.577573061","1","793.591022015","799.352028131",""
"sujeto_fddffe87","1","1","8","8","799.49458003","inverse","4","1","4","¿En qué año nació
 Stephen Hawking?","1952","1942","","0","0","1","competitive","left","2.01335692406","801.507985115","2.98664307594","804.650331974","3.87922286987","808.529592037","2.12077713013","810.686201096","812.130465031","812.204103947","815.207080126","0","815.220355034","821.319714069",""
"sujeto_fddffe87","1","1","9","9","821.473452091","direct","2","1","3","¿Cuánto años tenía Artigas
 cuando se fue a Paraguay?","56","57","","1","1","1","competitive","right","1.69861698151","823.172148943","3.30138301849","826.629333019","4.82628703117","831.455677032","1.17371296883","832.662714005","834.21222496","834.280333996","837.283333063","1","837.297390938","843.344177008",""
"sujeto_fddffe87","1","1","10","10","843.46517396","inverse","1","1","2","¿Cuantos milímetros 
mide una hoja A2?","420x592","420x594","","0","0","1","competitive","left","2.51902413368","845.984241962","2.48097586632","848.61928606","5.70068907738","854.320017099","0.299310922623","854.65760994","856.226042986","856.307707071","859.308160067","0","859.325570107","866.399204969",""
"sujeto_fddffe87","1","1","11","11","866.526381969","direct","3","1","3","¿Cuál es la menor temperatura 
registrada en Uruguay?","-5.4","-7.4","","0","0","1","competitive","right","1.37637901306","867.902807951","3.62362098694","871.682352066","5.84216213226","877.524555922","0.157837867737","877.717200041","879.39922595","879.483653069","882.486632109","0","882.501006126","886.234296083",""
"sujeto_fddffe87","1","1","12","12","886.371274948","inverse","2","1","2","¿Cuantos años hace que 
se fundó facebook?","18","17","","0","0","0","competitive","left","4.46193003654","890.833243132","0.538069963455","891.526803017","4.56236600876","896.089230061","1.43763399124","897.561902046","898.934611082","899.01315403","902.016134977","0","902.029616117","904.804250956",""
"sujeto_fddffe87","1","1","13","13","904.945055008","direct","1","1","4","¿Cuál animal es más
 pesado en promedio?","Rinoceronte","Hipopotamo","","0","0","0","competitive","right","1.68605399132","906.631151915","3.31394600868","910.103794098","4.46227002144","914.566132069","1.53772997856","916.18719697","917.266434908","917.337671995","920.34018898","0","920.35530901","924.196304083",""
"sujeto_fddffe87","1","1","14","14","924.355288029","inverse","1","1","2","¿Qué personaje de dragon ball 
murió más veces?","Chaoz","Krillin","","1","1","0","competitive","left","1.64263486862","925.997961998","3.35736513138","929.510870934","4.99802303314","934.508934021","1.00197696686","935.563312054","937.021131992","937.095997095","940.098974943","1","940.114290953","947.880193949",""
"sujeto_fddffe87","1","1","15","15","948.018261909","direct","3","1","2","La universidad de oxford. 
existe desde:","1096","1249","","1","1","0","competitive","left","1.98272490501","950.001029968","3.01727509499","953.173712015","5.58627390862","958.760026932","0.413726091385","959.227802038","960.276623011","960.360535145","963.363523006","1","963.37785697","970.06873107",""
"sujeto_fddffe87","1","1","16","16","970.196972132","inverse","3","1","1","¿Qué escritor latino ganó antes
 el premio nobel?"," García Marquez","Neruda","","0","0","1","individual","left","1.86811304092","972.065148115","3.13188695908","975.370077133","4.39106297493","979.761204004","1.60893702507","981.404067039","983.144043922","983.189007044","986.191980124","0","986.206277132","989.666805983",""
"sujeto_fddffe87","1","1","17","17","989.790570974","direct","4","1","3","¿Cuántos dientes tiene un
 tiburón blanco?","6000","3000","","0","0","1","competitive","right","1.32964205742","991.120258093","3.67035794258","994.946542978","4.63680100441","999.583389997","1.36319899559","1000.99798012","1002.03695798","1002.11588907","1005.11888099","0","1005.13319302","1009.94018698",""
"sujeto_fddffe87","1","1","18","18","1010.08012414","inverse","4","1","1","¿Cuánto mide el paralelo Ecuador?","40.000km","70.000km","","0","0","1","individual","right","1.37141609192","1011.4515841","3.62858390808","1015.23855805","4.03307414055","1019.27169895","1.96692585945","1021.29026794","1023.24638891","1023.29167414","1026.29464006","0","1026.30975509","1029.9123311",""
"sujeto_fddffe87","1","1","19","19","1030.04524207","direct","4","1","2","¿Cuál fue el primer libro 
de Stephen King?","Carrie","The Stand","","1","1","1","competitive","left","2.07569408417","1032.12098598","2.92430591583","1035.20174003","5.23332190514","1040.43510699","0.766678094864","1041.25389314","1042.997967","1043.07051396","1046.07347894","1","1046.08832312","1050.56276703",""
"sujeto_fddffe87","1","1","20","20","1050.69030404","inverse","2","1","3","¿Qué civilización practicaba
 la momificación?","Grecia","Egipto","right","0","0","1","competitive","right","1.10799598694","1051.79837108","3.89200401306","1055.84581208","5.5256819725","1061.37155914","0.474318027496","1061.88143706","1063.82019091","1063.89759612","1066.90055513","1","1066.91568398","1071.14448214",""
"sujeto_fddffe87","1","1","21","21","1071.28490591","direct","4","1","4","¿Cuántos millones de visitas
 recibe google por minuto?","3.0","4.5","","0","0","1","competitive","right","1.23097491264","1072.51594591","3.76902508736","1076.45659709","4.8694691658","1081.32610393","1.1305308342","1082.50893402","1084.02381992","1084.10965705","1087.11265707","0","1087.12676311","1094.24943495",""
"sujeto_fddffe87","1","1","22","22","1094.37782812","inverse","1","1","3","La máquina de fax. se inventó en:","1843","1960","","0","0","1","competitive","","1.19674706459","1095.57464504","3.80325293541","1099.5357151","6","1105.53584504","0","1105.55168796","1106.79377604","1106.87161708","1109.8746171","0","1109.88892603","1113.12523413",""
"sujeto_fddffe87","1","1","23","23","1113.273875","direct","2","1","4","En la verdadera historia de los
 300 espartanos. habían:","300 soldados","4300 soldados","","1","1","1","competitive","right","1.21321582794","1114.48716092","3.78678417206","1118.42992091","4.70145893097","1123.13143992","1.29854106903","1124.48169494","1125.74291992","1125.81519008","1128.81818199","1","1128.83251905","1132.63428211",""
"sujeto_fddffe87","1","1","24","24","1132.76989508","inverse","1","1","4","¿Cuántos milímetros crece
 el pelo por día?","0.4","0.04","","0","0","0","competitive","right","0.958832979202","1133.72879505","4.0411670208","1137.90664506","3.9513771534","1141.85806704","2.0486228466","1143.95823598","1145.71897793","1145.79238892","1148.79537201","0","1148.81165695","1155.54675198",""
"sujeto_fddffe87","1","1","25","25","1155.67911005","direct","4","1","1","¿Cuánto mide la baldosa gris 
clásica de Montevideo?","22x22 cm.","20x20 cm.","","1","1","1","individual","right","1.56248497963","1157.24166107","3.43751502037","1160.83631301","5.07252883911","1165.90890598","0.927471160889","1166.87194514","1168.867172","1168.90508294","1171.90802813","1","1171.92311811","1177.46419692",""
"sujeto_fddffe87","1","1","26","26","1177.59144711","inverse","2","1","2","¿Cuántas películas de rápidos
 y furiosos hay?","10","11","","1","1","0","competitive","right","1.16899514198","1178.76050997","3.83100485802","1182.74719214","2.80553889275","1185.552773","3.19446110725","1188.79909611","1190.15712094","1190.23478198","1193.23772907","1","1193.25196695","1195.28667808",""
"sujeto_fddffe87","1","1","27","27","1195.41956306","direct","3","1","1","¿Cuántos masters 1000
 ganó Del Potro?","1","2","","1","1","1","individual","","1.45961618423","1196.87924504","3.54038381577","1200.55914211","6","1206.55927014","0","1206.57411098","1208.3281951","1208.37539911","1211.37617898","0","1211.3924911","1218.78886604",""
"sujeto_fddffe87","1","1","28","28","1218.94739914","inverse","2","1","4","¿Cuántos meses dura el 
embarazo de una leona?","3 meses","4 meses","","0","0","1","competitive","right","1.04985904694","1219.99732399","3.95014095306","1224.10565114","4.13195800781","1228.23766804","1.86804199219","1230.15593791","1231.26701498","1231.34119511","1234.34419703","0","1234.35832405","1241.080832",""
"sujeto_fddffe87","1","1","29","29","1241.20906711","direct","1","1","1","¿En qué año fue creado
 el sandwich?","1762","1653","","1","1","0","individual","left","1.42119312286","1242.63032603","3.57880687714","1246.35088301","3.62472081184","1249.975667","2.37527918816","1252.40235996","1254.00016212","1254.03633714","1257.03928995","1","1257.05429792","1260.52417612",""
"sujeto_fddffe87","1","1","30","30","1260.65532303","inverse","4","1","2","El nombre de la moneda de Vietnam es:","Dinar","Dong","","0","0","1","competitive","right","1.10277295113","1261.75816107","3.89722704887","1265.81058908","3.74289512634","1269.553545","2.25710487366","1271.84192801","1273.27392292","1273.36071801","1276.36368012","0","1276.37795305","1282.54638696",""
"sujeto_fddffe87","1","1","31","31","1282.6841011","direct","2","1","1","¿cuantos aleteos puede dar 
un colibrí por segundo?","120","50","","0","0","0","individual","left","1.24307107925","1283.92723608","3.75692892075","1287.84073114","3.6727669239","1291.51355696","2.3272330761","1293.89174509","1295.62415314","1295.67638493","1298.67936897","0","1298.69373202","1302.906003",""
"sujeto_fddffe87","1","1","32","32","1303.04552293","inverse","4","1","3","¿Qué altura promedio tienen
 los hombres uruguayos?","1.73 m","1.72 m","","1","1","1","competitive","left","1.49667787552","1304.54227304","3.50332212448","1308.20227695","3.48421502113","1311.686553","2.51578497887","1314.25330591","1315.51571107","1315.58801198","1318.59101605","1","1318.60505009","1323.08098292",""
"sujeto_fddffe87","1","2","1","33","1447.44602513","direct","1","1","1","¿En qué año nació 
el actor Bradd Pitt?","1967","1963","","1","1","1","individual","left","1.61297297478","1449.059062","3.38702702522","1452.60115504","3.77624988556","1456.37747312","2.22375011444","1458.635782","1459.7316401","1459.77067995","1462.77215695","1","1462.78737712","1468.71218514","1323.09267902"
"sujeto_fddffe87","1","2","2","34","1468.87407708","inverse","2","1","1","¿Cual es el segundo 
monte más alto?","Kanchenjunga","K2","","1","1","1","individual","right","1.08710002899","1469.96122098","3.91289997101","1474.01327705","5.26649403572","1479.2798121","0.733505964279","1480.06493306","1481.51617098","1481.56618905","1484.56915307","1","1484.58310604","1488.01216507",""
"sujeto_fddffe87","1","2","3","35","1488.17042494","direct","3","1","1","¿Cuándo finalizó la construcción
 del Palacio Legislativo?","1925","1917","","0","0","1","individual","left","0.886965036392","1489.05745792","4.11303496361","1493.32294297","3.64682388306","1496.96981502","2.35317611694","1499.37424898","1501.01594305","1501.05851293","1504.06145811","0","1504.07568192","1509.77112508",""
"sujeto_fddffe87","1","2","4","36","1509.93089008","inverse","3","1","3","¿Cuántos integrantes tenía
 en su inicio  el cuarteto de nos?","3","4","","1","1","1","competitive","right","1.00470709801","1510.93564105","3.99529290199","1515.06994414","4.92809295654","1519.99807811","1.07190704346","1521.1053791","1522.23850203","1522.32198","1525.32496691","1","1525.33930993","1530.98912001",""
"sujeto_fddffe87","1","2","5","37","1531.12481093","direct","2","1","3","¿Qué valor tiene el número pi?","3.14","4.18","left","0","0","1","competitive","left","0.92263507843","1532.04749298","4.07736492157","1536.28241992","3.09185004234","1539.37433791","2.90814995766","1542.33319902","1543.78740191","1543.86777592","1546.87075496","1","1546.88524199","1553.80398202",""
"sujeto_fddffe87","1","2","6","38","1553.93979001","inverse","2","1","2","¿Cuál es la esperanza de vida
 en Uruguay?","75","77","","1","1","0","competitive","right","0.914439201355","1554.85429192","4.08556079865","1559.09496808","3.60364603996","1562.69867206","2.39635396004","1565.14614797","1566.79997206","1566.88071704","1569.88370299","1","1569.89883113","1576.36185908",""
"sujeto_fddffe87","1","2","7","39","1576.48325706","direct","1","1","2","¿Cuantos pisos tiene la torre 
de las comunicaciones?","26","32","","1","1","0","competitive","left","0.935328006744","1577.4186511","4.06467199326","1581.65398598","5.66809296608","1587.32213712","0.33190703392","1587.70785093","1589.53664899","1589.60716891","1592.61015296","1","1592.62541294","1594.77163005",""
"sujeto_fddffe87","1","2","8","40","1594.89378905","inverse","2","1","4","¿En qué país sudamericano 
no hay McDonalds?","Bolivia","Venezuela","","0","0","1","competitive","right","0.851915121078","1595.74574709","4.14808487892","1600.05246305","4.36079907417","1604.41330099","1.63920092583","1606.08701706","1607.39639497","1607.47097802","1610.47396302","0","1610.48833013","1616.84810805",""
"sujeto_fddffe87","1","2","9","41","1616.97342014","direct","3","1","1","¿En qué año empieza
 la Edad Media?","476","512","","1","1","1","individual","left","1.25062513351","1618.22414207","3.74937486649","1622.13235211","5.11426901817","1627.24666095","0.885730981827","1628.18358803","1629.587358","1629.63400006","1632.63698101","1","1632.65121007","1635.63976097",""
"sujeto_fddffe87","1","2","10","42","1635.76955199","inverse","3","1","4","¿Hace cuántos años surgió
 el ser humano?","200mil","300mil","","0","0","0","competitive","right","0.854696989059","1636.62437296","4.14530301094","1640.93852592","4.60818791389","1645.54675603","1.39181208611","1646.97516894","1648.86015201","1648.94302297","1651.94597101","0","1651.96107411","1655.27150393",""
"sujeto_fddffe87","1","2","11","43","1655.39586711","direct","3","1","4","¿Cuántas cuadras tiene
 actualmente 18 de julio? ","36","33","","0","0","1","competitive","right","0.905658006668","1656.30163598","4.09434199333","1660.53707099","5.13691997528","1665.67405796","0.863080024719","1666.58918405","1668.2914691","1668.37329793","1671.37617207","0","1671.39031506","1676.11658406",""
"sujeto_fddffe87","1","2","12","44","1676.24225402","inverse","1","1","4","¿Qué juego de equipo se 
considera mas rápido?","Lacrosse","Badminton","","0","0","0","competitive","left","0.906512022018","1677.14881301","4.09348797798","1681.38244796","5.49293589592","1686.87544894","0.50706410408","1687.41784811","1688.66095901","1688.72958803","1691.7325561","0","1691.74604392","1699.74120212",""
"sujeto_fddffe87","1","2","13","45","1699.88168406","direct","1","1","3","¿Qué promedio de edad 
vive una jirafa? ","25","20","","0","0","1","competitive","right","1.04123902321","1700.92304111","3.95876097679","1705.02975011","4.19602417946","1709.22583508","1.80397582054","1711.06410909","1712.82414913","1712.89879203","1715.90177202","0","1715.91701293","1721.87273812",""
"sujeto_fddffe87","1","2","14","46","1722.01968312","inverse","1","1","2","¿Cuántos grandes lagos hay?","7","5","","0","0","1","competitive","right","1.08687806129","1723.10662413","3.91312193871","1727.15814805","5.3019618988","1732.4601481","0.698038101196","1733.21093512","1734.50311494","1734.57825303","1737.58124399","0","1737.59528899","1745.41667199",""
"sujeto_fddffe87","1","2","15","47","1745.55216408","direct","3","1","2","¿Cuántos discos de estudio
 grabó Johhny Cash? ","54","43","","1","1","0","competitive","right","1.11297512054","1746.665205","3.88702487946","1750.70088506","4.105230093","1754.80615497","1.894769907","1756.7534411","1758.03204203","1758.10419798","1761.10716295","1","1761.12164092","1767.77252603",""
"sujeto_fddffe87","1","2","16","48","1767.90918612","inverse","4","1","1","¿Cuántos barrios tiene
 Montevideo? ","71","62","","0","0","1","individual","right","1.12629914284","1769.03555202","3.87370085716","1773.06404209","3.95198011398","1777.01609206","2.04801988602","1779.11365294","1780.12072206","1780.16517591","1783.16811109","0","1783.18131709","1788.64334106",""
"sujeto_fddffe87","1","2","17","49","1788.78285098","direct","3","1","3","¿Qué edad tiene Homero Simpson?","36","42","","0","0","1","competitive","right","1.23195505142","1790.01486993","3.76804494858","1793.938241","3.52428984642","1797.46259403","2.47571015358","1799.98854494","1801.36456203","1801.43822908","1804.44019413","0","1804.45636392","1808.84420013",""
"sujeto_fddffe87","1","2","18","50","1808.989079","inverse","4","1","2","¿Cuántos países con monarquía 
hay en europa actualmente? ","6","10","","1","1","1","competitive","left","2.66339802742","1811.65258503","2.33660197258","1814.14324403","4.81913495064","1818.96244693","1.18086504936","1820.19646907","1821.63475108","1821.71311712","1824.71610403","1","1824.73057294","1830.88735294",""
"sujeto_fddffe87","1","2","19","51","1831.04807901","direct","2","1","3","¿Cuántos capítulos de
 Friends existen? ","236","228","","1","1","1","competitive","left","0.827605009079","1831.87575006","4.17239499092","1836.21461511","3.74783110619","1839.96248293","2.25216889381","1842.25061798","1843.55618501","1843.63534212","1846.63831806","1","1846.65161109","1849.02725911",""
"sujeto_fddffe87","1","2","20","52","1849.17045712","inverse","1","1","3","¿Cuántas óperas compuso Mozart? ","27","22","","1","1","1","competitive","right","1.0398170948","1850.21031809","3.9601829052","1854.30993414","3.88632893562","1858.19632292","2.11367106438","1860.36112309","1861.65327597","1861.72897196","1864.73195195","1","1864.74529696","1872.05613708",""
"sujeto_fddffe87","1","2","21","53","1872.19652295","direct","4","1","3","¿Cuántos mundiales de fútbol 
femenino ha realizado FIFA? ","9","7","","1","1","1","competitive","right","1.2420399189","1873.43862796","3.7579600811","1877.35269594","4.34100389481","1881.69375992","1.65899610519","1883.38734913","1884.63098502","1884.70426702","1887.707232","1","1887.72121906","1893.82368898",""
"sujeto_fddffe87","1","2","22","54","1893.96518993","inverse","3","1","2","¿Cuál es la temperatura 
media anual en Montevideo? ","17.5","16.3","","0","0","1","competitive","left","1.03819608688","1895.00343204","3.96180391312","1899.12938213","3.60222005844","1902.73166704","2.39777994156","1905.17867112","1907.1172421","1907.19723105","1910.20018196","0","1910.21421599","1916.78373408",""
"sujeto_fddffe87","1","2","23","55","1916.95055008","direct","2","1","2","¿En qué año se estrenó el
 videojuego The Sims? ","2000","2002","","0","0","0","competitive","left","0.9007999897","1917.85139298","4.0992000103","1922.118752","4.36689186096","1926.48570609","1.63310813904","1928.1709311","1930.03292394","1930.12131214","1933.12429905","0","1933.13947201","1940.53313112",""
"sujeto_fddffe87","1","2","24","56","1940.67847991","inverse","2","1","1","¿Cuál es la canción con 
mas covers? ","Yesterday","Stand by me","","0","0","0","individual","left","1.0659930706","1941.74453998","3.9340069294","1945.84822011","5.13151502609","1950.97980309","0.868484973907","1951.89985108","1953.29842114","1953.35068607","1956.35362291","0","1956.36703396","1960.53787112",""
"sujeto_fddffe87","1","2","25","57","1960.68711805","direct","1","1","4","¿Cuánto duró la guerra
 de los 100 años?","116","123","","0","0","0","competitive","left","0.89297914505","1961.58014297","4.10702085495","1965.84129095","4.57413482666","1970.41546607","1.42586517334","1971.892488","1973.37329698","1973.45892906","1976.46019602","0","1976.47651911","1978.79627895",""
"sujeto_fddffe87","1","2","26","58","1979.12909412","inverse","4","1","4","¿Qué color tiene la  bandera de Brasil?","Amarillo","Naranja","left","0","0","1","competitive","left","0.786780118942","1979.91592097","4.21321988106","1984.28287697","4.32652807236","1988.60944605","1.67347192764","1990.31675196","1991.88326097","1991.96735597","1994.97031713","1","1994.98531604","1998.01809907",""
"sujeto_fddffe87","1","2","27","59","1998.20195198","direct","4","1","3","¿Qué carabela de 
Colon no volvió del viaje?","Santa María","La pinta","","0","0","1","competitive","right","0.867965936661","1999.0699861","4.13203406334","2003.37327909","4.80008006096","2008.17341805","1.19991993904","2009.42509103","2010.91609907","2010.99155903","2013.99453712","0","2014.00887513","2016.10833192",""
"sujeto_fddffe87","1","2","28","60","2016.24531507","inverse","4","1","4","¿Cuántos huesos tiene
 un adulto humano?","217","206","","0","0","1","competitive","left","0.906658887863","2017.15204191","4.09334111214","2021.39998412","4.33056306839","2025.73059297","1.66943693161","2027.45029593","2028.72130108","2028.80213404","2031.80512094","0","2031.81830096","2039.65598106",""
"sujeto_fddffe87","1","2","29","61","2039.78677797","direct","1","1","1","¿Qué país africano fue 
fundado por esclavos?","Liberia","Chad","","0","0","0","individual","left","1.20219087601","2040.98901105","3.79780912399","2044.94225001","4.43243980408","2049.37473202","1.56756019592","2050.99366999","2052.98415494","2053.02793193","2056.03088307","0","2056.04601812","2064.03687501",""
"sujeto_fddffe87","1","2","30","62","2064.184165","inverse","4","1","2","¿A cuánto asciende la cima
 del monte Everest?","7.990 mts","8.848 mts","","0","0","1","competitive","right","0.906958818436","2065.0911901","4.09304118156","2069.35645795","4.96342802048","2074.31993008","1.03657197952","2075.40697312","2076.59179807","2076.67480898","2079.67778993","0","2079.69198203","2086.87602901",""
"sujeto_fddffe87","1","2","31","63","2087.0426991","direct","4","1","1","¿Cuál es el país mas chico?","Sealand","Luxemburgo","","1","1","1","individual","right","1.07474112511","2088.11751103","3.92525887489","2092.19641709","3.86685609818","2096.06334305","2.13314390182","2098.24832606","2100.11186004","2100.14936209","2103.15233397","1","2103.16677499","2106.28904605",""
"sujeto_fddffe87","1","2","32","64","2106.41838908","inverse","2","1","4","¿Cuántas pirámides hay en Egipto?","10000","11000","","1","1","1","competitive","right","0.716711997986","2107.13517714","4.28328800201","2111.57705903","3.5387570858","2115.11588097","2.4612429142","2117.62746406","2118.66106796","2118.74565601","2121.74862003","1","2121.76203108","2126.87110901",""
"sujeto_fddffe87","1","3","1","65","2285.49701309","direct","2","1","2","¿Cuál es el quinto país con 
mas extensión?","Canadá","Brasil","","1","1","0","competitive","left","1.18419909477","2286.68127608","3.81580090523","2290.66375494","5.14853692055","2295.81236291","0.851463079453","2296.71754599","2298.05084705","2298.134058","2301.13703704","1","2301.15130091","2308.87769508","2126.88289404"
"sujeto_fddffe87","1","3","2","66","2309.03652906","inverse","1","1","2","¿Qué rasgo facial no tiene
 la Mona Lisa?","Cejas","Pómulos","","0","0","1","competitive","right","0.784898996353","2309.8214941","4.21510100365","2314.21350408","5.47607302666","2319.6896441","0.523926973343","2320.24916005","2321.999578","2322.08302999","2325.08601904","0","2325.10042","2331.37175202",""
"sujeto_fddffe87","1","3","3","67","2331.52131009","direct","4","1","3","¿Cuál es el país con 
mayor población?","Esados Unidos","China","right","0","0","1","competitive","right","0.946426153183","2332.46778393","4.05357384682","2336.67531013","2.77147912979","2339.44683313","3.22852087021","2342.72544909","2344.37141991","2344.44463706","2347.44760799","1","2347.46192193","2350.829252",""
"sujeto_fddffe87","1","3","4","68","2350.96348596","inverse","1","1","1","La palabra dinosaurio significa","Lagarto Terrible","Lagarto Dragón","","1","1","0","individual","right","1.04352498055","2352.00705695","3.95647501945","2356.11963797","5.34743499756","2361.46713209","0.652565002441","2362.17088699","2363.34122491","2363.38768196","2366.38817096","1","2366.40524793","2369.26706004",""
"sujeto_fddffe87","1","3","5","69","2369.40679693","direct","2","1","3","¿Qué es el membrillero?","Arbol","Arbusto","","0","0","0","competitive","right","0.99448299408","2370.40134311","4.00551700592","2374.56123614","5.18818593025","2379.74948406","0.811814069748","2380.61270905","2382.56683397","2382.64606214","2385.6490531","0","2385.66424203","2392.12827802",""
"sujeto_fddffe87","1","3","6","70","2392.26613092","inverse","3","1","3","¿Alrededor de qué planeta orbita 
el satélite Europa?","Jupiter","Saturno","","1","1","1","competitive","left","1.00252604485","2393.26869893","3.99747395515","2397.42522001","5.33260703087","2402.75788808","0.667392969131","2403.47606897","2405.02085614","2405.11025","2408.11218596","1","2408.12835193","2410.33352804",""
"sujeto_fddffe87","1","3","7","71","2410.49500203","direct","3","1","1","¿Donde fue el mundial de 
fútbol de 1954?","Suiza","Suecia","","1","1","1","competitive","left","0.819012880325","2411.3140831","4.18098711967","2415.66761398","4.80545496941","2420.47311091","1.19454503059","2421.71915698","2422.97175694","2423.05277514","2426.05576706","1","2426.07038403","2429.9821651",""
"sujeto_fddffe87","1","3","8","72","2430.12257099","inverse","1","1","4","¿Cuál de los 7 enanitos
no tenía barba?","Bashful","Mudito","","1","1","0","competitive","right","0.904834985733","2431.02747798","4.09516501427","2435.29340291","4.23519492149","2439.52867007","1.76480507851","2441.3458631","2442.9259541","2442.99721503","2446.00018907","1","2446.01471996","2450.94377112",""
"sujeto_fddffe87","1","3","9","73","2451.08210993","direct","3","1","2","¿Cual red social es
mas utilizada mundialmente?","Instagram","Facebook","","1","1","0","competitive","left","0.907717943192","2451.98987508","4.09228205681","2456.23801899","3.38298296928","2459.62106514","2.61701703072","2462.28898692","2464.20636892","2464.2902441","2467.293293","1","2467.30770898","2470.24219799",""
"sujeto_fddffe87","1","3","10","74","2470.37637496","inverse","4","1","1","¿Cuándo se inició la copa
 América de fútbol?","1916","1923","","1","1","1","individual","right","1.16290998459","2471.53935695","3.83709001541","2475.53288913","5.12656497955","2480.65951991","0.873435020447","2481.56778598","2483.46525002","2483.51930499","2486.52224612","1","2486.53665304","2489.19271994",""
"sujeto_fddffe87","1","3","11","75","2489.33753395","direct","3","1","4","¿Cuántos presidentes de EEUU
han muerto asesinados?","3","4","","0","0","1","competitive","right","0.84721493721","2490.18481493","4.15278506279","2494.49304199","3.38275289536","2497.87583613","2.61724710464","2500.54360604","2502.02753901","2502.11163902","2505.11461902","0","2505.12969112","2508.7721591",""
"sujeto_fddffe87","1","3","12","76","2508.91414094","inverse","2","1","4","¿Cuántas veces participó EEUU
 en la copa América?","4","5","","0","0","1","competitive","left","0.925137996674","2509.83935595","4.07486200333","2514.06890512","3.7144780159","2517.78344893","2.2855219841","2520.12028503","2521.56437111","2521.65468502","2524.65766811","0","2524.67196393","2530.78915691",""
"sujeto_fddffe87","1","3","13","77","2530.94187903","direct","4","1","1","¿Cuál de estos países 
no formaba la URSS?","Azeribayán","Afganistán","","0","0","1","individual","left","1.95894813538","2532.90093708","3.04105186462","2536.09956098","4.94841003418","2541.04801702","1.05158996582","2542.15153503","2543.46462107","2543.51824307","2546.52119207","0","2546.53568912","2554.51320314",""
"sujeto_fddffe87","1","3","14","78","2554.65380812","inverse","1","1","1","¿En qué año se inauguró
 el teatro Solís?","1867","1856","","0","0","0","individual","right","1.2316031456","2555.88547611","3.7683968544","2559.81153798","4.76509404182","2564.57667208","1.23490595818","2565.86328506","2566.91957092","2566.96407008","2569.96703792","0","2569.98136592","2576.62916493",""
"sujeto_fddffe87","1","3","15","79","2576.76630712","direct","1","1","4","¿A qué velocidad vuela 
el avión más rápido?","3529","3874","","0","0","0","competitive","left","1.03871893883","2577.80510402","3.96128106117","2581.92182112","4.71845006943","2586.64033794","1.28154993057","2587.97453094","2589.73003006","2589.808357","2592.81130314","0","2592.82551312","2594.93580198",""
"sujeto_fddffe87","1","3","16","80","2595.07706594","inverse","3","1","4","¿De qué año es la primer 
película cinematográfica?","1897","1888","","0","0","0","competitive","right","0.883415937424","2595.96052504","4.11658406258","2600.24851513","4.23428106308","2604.48285508","1.76571893692","2606.30162692","2607.43463612","2607.51964307","2610.52017403","0","2610.53650093","2615.94627714",""
"sujeto_fddffe87","1","3","17","81","2616.08846712","direct","2","1","3","¿Cuántos países 
tiene nuestro planeta?","191","194","","1","1","1","competitive","right","1.0287001133","2617.11723208","3.9712998867","2621.26151299","4.25679779053","2625.51836801","1.74320220947","2627.313205","2628.67041802","2628.74697399","2631.74993491","1","2631.76438713","2635.00269413",""
"sujeto_fddffe87","1","3","18","82","2635.13312602","inverse","2","1","2","¿Cuántos habitantes
 tiene Buenos Aires?","2.9000.000","3650000","","0","0","0","competitive","left","0.8965280056","2636.02972102","4.1034719944","2640.28863502","4.86831188202","2645.15699196","1.13168811798","2646.34112906","2647.73838997","2647.82406807","2650.8270371","0","2650.84211612","2656.67150402",""
"sujeto_fddffe87","1","3","19","83","2656.81054091","direct","2","1","1","¿Cuántos kilos forman una tonelada?","1000","1500","left","1","1","1","individual","left","1.82182502747","2658.63241291","3.17817497253","2661.9843421","4.98232197762","2666.96673393","1.01767802238","2668.03596497","2669.923316","2669.96889305","2672.97186494","1","2672.98698711","2678.94440913",""
"sujeto_fddffe87","1","3","20","84","2679.10568714","inverse","4","1","4","¿Cuántos estados tiene la 
República del Perú? ","24","23","","0","0","1","competitive","right","0.796405076981","2679.90213799","4.20359492302","2684.26088905","3.91534805298","2688.17628002","2.08465194702","2690.31288195","2691.335078","2691.41371799","2694.41672802","0","2694.4311111","2699.37643099",""
"sujeto_fddffe87","1","3","21","85","2699.51553392","direct","3","1","3","¿En qué año nació Cristóbal Colón? ","1451","1447","","0","0","1","competitive","right","0.864547967911","2700.38016009","4.13545203209","2704.67404103","4.54288887978","2709.21699905","1.45711112022","2710.70858812","2712.55456996","2712.64317298","2715.64615893","0","2715.66060209","2719.88859296",""
"sujeto_fddffe87","1","3","22","86","2720.03145409","inverse","4","1","4","¿Cuánto mide la 
Montaña Aconcagua? ","6234","6962","","0","0","1","competitive","left","0.677821159363","2720.70932102","4.32217884064","2725.20194197","5.2856490612","2730.48765898","0.714350938797","2731.25337791","2732.54274106","2732.63773298","2735.64069796","0","2735.65477395","2742.83618903",""
"sujeto_fddffe87","1","3","23","87","2742.97273302","direct","2","1","4","¿Cuánto mide el punto
 más profundo del océano? ","12508","11003","","0","0","1","competitive","right","0.925352811813","2743.89815307","4.07464718819","2748.13025904","4.56609082222","2752.69639206","1.43390917778","2754.18205595","2755.43357992","2755.51703501","2758.52002096","0","2758.53405499","2762.74030113",""
"sujeto_fddffe87","1","3","24","88","2762.86883998","inverse","1","1","3","¿Cuántos álbumes ha publicado 
el cantante Jaime Roos? ","41","34","","0","0","1","competitive","right","0.94211101532","2763.81100106","4.05788898468","2768.02246094","4.25054788589","2772.27304912","1.74945211411","2774.07488513","2775.56473303","2775.64351606","2778.64649701","0","2778.66097713","2784.85713601",""
"sujeto_fddffe87","1","3","25","89","2784.99578714","direct","4","1","3","¿En qué año nació el 
ex-presidente Jorge Battle? ","1921","1927","","1","1","1","competitive","left","1.23509407043","2786.23092413","3.76490592957","2790.15329695","5.73025393486","2795.88361597","0.26974606514","2796.20527411","2797.93594599","2798.02151608","2801.024194","1","2801.03945899","2804.52551913",""
"sujeto_fddffe87","1","3","26","90","2804.657691","inverse","1","1","3","¿Cuántas presidencias 
constitucionales  hubo en Uruguay? ","41","42","","0","0","1","competitive","left","1.0823469162","2805.74012804","3.9176530838","2809.82821107","5.32685017586","2815.15510702","0.673149824142","2815.86355305","2817.06732297","2817.14703894","2820.15001702","0","2820.16419411","2825.94783711",""
"sujeto_fddffe87","1","3","27","91","2826.13271093","direct","1","1","2","¿Quién escribió mas sinfonías?","Mozart","Haydn","","1","1","0","competitive","left","0.876121044159","2827.008883","4.12387895584","2831.287431","4.04119682312","2835.32866812","1.95880317688","2837.34000802","2838.55747795","2838.64044404","2841.64342999","1","2841.65740705","2845.40882492",""
"sujeto_fddffe87","1","3","28","92","2845.55944514","inverse","4","1","2","¿En qué año nació Michael Jackson?","1958","1953","","1","1","1","competitive","left","0.996912956238","2846.55640793","4.00308704376","2850.71636796","3.50176692009","2854.21817899","2.49823307991","2856.76663399","2858.74484992","2858.81800914","2861.82098794","1","2861.83638096","2867.69620395",""
"sujeto_fddffe87","1","3","29","93","2867.85418701","direct","3","1","2","¿En qué año entró en vigencia 
la ley antitabaco en Uruguay?","2005","2006","","1","1","1","competitive","left","0.825644016266","2868.67989492","4.17435598373","2873.01047492","5.74610805511","2878.75664806","0.253891944885","2879.06185198","2880.65661407","2880.72870302","2883.73163009","1","2883.74599314","2889.076226",""
"sujeto_fddffe87","1","3","30","94","2889.21399212","inverse","3","1","1","¿Cuándo se subió el 
primer video a youtube?","2004","2005","","0","0","1","individual","right","1.21932506561","2890.43337512","3.78067493439","2894.37179399","2.98947095871","2897.36132693","3.01052904129","2900.4222641","2901.72796011","2901.77342892","2904.77637291","0","2904.79052901","2912.54614592",""
"sujeto_fddffe87","1","3","31","95","2912.69175601","direct","2","1","1","¿Cuántos habitantes tiene India?","1200 millones","1300 millones","","0","0","0","individual","right","1.00421094894","2913.69601607","3.99578905106","2917.85031891","4.226541996","2922.07692194","1.773458004","2923.90041614","2925.87004495","2925.91835999","2928.92131996","0","2928.93540597","2934.98291802",""
"sujeto_fddffe87","1","3","32","96","2935.12102413","inverse","4","1","2","¿A qué edad murió Bob Marley?","36","37","","0","0","1","competitive","left","1.13462305069","2936.25569201","3.86537694931","2940.25930595","4.79717493057","2945.05654907","1.20282506943","2946.31116796","2948.20899296","2948.29366612","2951.29665112","0","2951.30976391","2954.41216207",""
"sujeto_fddffe87","1","4","1","97","3100.07032204","direct","2","1","1","¿Cuantos años dirigió la selección 
uruguaya Tabarez?","15 años","13 años","","0","0","0","individual","left","1.3529548645","3101.4233501","3.6470451355","3105.22750592","3.47071504593","3108.69826508","2.52928495407","3111.27823591","3112.46938801","3112.51321101","3115.51617503","0","3115.53039098","3122.60242105","2954.42497993"
"sujeto_fddffe87","1","4","2","98","3122.74802995","inverse","4","1","1","¿Cuantas teclas tiene un teclado 
de computadora generalmente? ","Entre 99 y 108","Entre 109 y 113","","1","1","1","competitive","","1.23020505905","3123.97828293","3.76979494095","3127.90547705","6","3133.9056201","0","3133.92141294","3134.92413807","3135.00828695","3138.01128006","0","3138.024575","3140.39601994",""
"sujeto_fddffe87","1","4","3","99","3140.52616596","direct","1","1","1","¿Cuál Departamento tiene
 mayor superficie?","Río Negro","Soriano","","0","0","0","individual","left","1.06011199951","3141.58631992","3.93988800049","3145.68199611","4.05125308037","3149.73331499","1.94874691963","3151.73245001","3153.44591093","3153.4834671","3156.48643303","0","3156.50070095","3160.82679009",""
"sujeto_fddffe87","1","4","4","100","3160.95237207","inverse","3","1","2","¿Cuál es el apellido de las 
hermanastras  de  cenicienta?","Tremaine","Truman","","0","0","1","competitive","right","0.93189406395","3161.88433313","4.06810593605","3166.10665011","4.73659014702","3170.84327912","1.26340985298","3172.15878105","3174.02829695","3174.10829711","3177.111274","0","3177.12652993","3179.82017207",""
"sujeto_fddffe87","1","4","5","101","3179.96191692","direct","4","1","4","¿Cuál película ganó un
 Oscar a mejor película?","Alto Impacto","Cache","","0","0","1","competitive","left","1.11032104492","3181.07228804","3.88967895508","3185.11837292","4.49295306206","3189.61136699","1.50704693794","3191.15287995","3192.272228","3192.35399795","3195.35697913","0","3195.37141991","3197.6360991",""
"sujeto_fddffe87","1","4","6","102","3197.77290606","inverse","1","1","3","¿A cuántos centímetros
equivale la medida pié?","25","30","","0","0","1","competitive","right","1.02645897865","3198.79943204","3.97354102135","3202.92782092","4.33754491806","3207.26542807","1.66245508194","3208.97930193","3210.01928711","3210.09698009","3213.09996009","0","3213.11408496","3218.51505494",""
"sujeto_fddffe87","1","4","7","103","3218.64895797","direct","2","1","2","¿Qué departamento es mas grande?","Cerro Largo","Paysandú","","0","0","0","competitive","right","0.857456922531","3219.506464","4.14254307747","3223.82016301","3.9111738205","3227.73137593","2.0888261795","3229.85538507","3231.45515513","3231.53932309","3234.54226613","0","3234.55708003","3238.66423798",""
"sujeto_fddffe87","1","4","8","104","3238.80806708","inverse","2","1","3","¿Quién pintó la Mona Lisa?","Picasso","Da Vinci","right","0","0","1","competitive","right","0.807481050491","3239.61559391","4.19251894951","3243.96617794","3.58233594894","3247.54858208","2.41766405106","3250.01473308","3251.62060404","3251.69911313","3254.70019293","1","3254.71704412","3256.87937713",""
"sujeto_fddffe87","1","4","9","105","3257.03512692","direct","4","1","3","¿Cuántos litros hay en un galon?","3.54","3.78","","1","1","1","competitive","left","0.889436006546","3257.92466497","4.11056399345","3262.19160509","4.73402404785","3266.92569613","1.26597595215","3268.24366999","3269.76152205","3269.84401512","3272.84702897","1","3272.86114311","3278.65350509",""
"sujeto_fddffe87","1","4","10","106","3278.79601192","inverse","4","1","1","¿Cuántas teclas tiene
 un piano moderno?","80","88","","0","0","1","individual","right","1.1956410408","3279.99168992","3.8043589592","3283.94866014","4.05010914803","3287.99880791","1.94989085197","3290.00161195","3291.01005602","3291.05249214","3294.05548501","0","3294.0688591","3300.86661792",""
"sujeto_fddffe87","1","4","11","107","3301.02101994","direct","4","1","3","¿Cuántos países hay en África?","54","62","","0","0","1","competitive","left","0.976331949234","3301.99739504","4.02366805077","3306.18187594","2.6240708828","3308.80601501","3.3759291172","3312.23028398","3313.92014194","3313.9978931","3317.00019002","0","3317.01547003","3324.82019711",""
"sujeto_fddffe87","1","4","12","108","3324.95031214","inverse","1","1","3","¿En qué siglo se crearon
 las primeras pistolas?","XV","XIII","","1","1","1","competitive","left","1.193805933","3326.14418197","3.806194067","3330.09483504","4.9102499485","3335.00512505","1.0897500515","3336.12893391","3338.07685804","3338.16255808","3341.16553593","1","3341.18024111","3344.413342",""
"sujeto_fddffe87","1","4","13","109","3344.54862404","direct","3","1","4","¿En qué año se estrenó 
la serie friends?","1994","1995","","0","0","1","competitive","right","0.923617839813","3345.47230792","4.07638216019","3349.70434594","4.04603695869","3353.7504251","1.95396304131","3355.7386241","3357.61396599","3357.68966913","3360.69266605","0","3360.70777011","3365.71219802",""
"sujeto_fddffe87","1","4","14","110","3365.87566209","inverse","3","1","4","¿En qué año nació Hitler?","1889","1887","","0","0","1","competitive","right","0.763842105865","3366.63957596","4.23615789413","3371.04676509","3.09378409386","3374.14061713","2.90621590614","3377.08278799","3378.19716692","3378.28473091","3381.28771496","0","3381.30166912","3386.32864213",""
"sujeto_fddffe87","1","4","15","111","3386.50314307","direct","1","1","4","¿Cuánto pesa un elefante Africano?","6000 kilos","5400 kilos","","0","0","0","competitive","left","0.908811092377","3387.41208792","4.09118890762","3391.67602992","3.29666996002","3394.97276402","2.70333003998","3397.72695899","3399.08285403","3399.16197896","3402.16496611","0","3402.17932105","3408.88415813",""
"sujeto_fddffe87","1","4","16","112","3409.01367497","inverse","1","1","2","¿Qué porcentaje de 
la población es zurda?","10%","7%","","1","1","0","competitive","left","1.49430203438","3410.5080421","3.50569796562","3414.1720171","4.618060112","3418.79014492","1.381939888","3420.22281909","3421.46591806","3421.53995395","3424.54294109","1","3424.55703807","3430.53678012",""
"sujeto_fddffe87","1","4","17","113","3430.69123697","direct","1","1","2","¿En qué año se estrenó
Volver al futuro?","1984","1985","","0","0","1","competitive","right","0.978044986725","3431.6693511","4.02195501328","3435.86685801","3.84053087234","3439.70743012","2.15946912766","3441.91733813","3443.47913694","3443.55145812","3446.55444503","0","3446.56959295","3453.66105294",""
"sujeto_fddffe87","1","4","18","114","3453.78741097","inverse","3","1","2","¿Cuántos jugadores hay en un 
equipo de baseball?","9","8","","1","1","0","competitive","left","1.29309606552","3455.08054805","3.70690393448","3458.94579101","4.53484988213","3463.48070407","1.46515011787","3464.99624991","3466.61047411","3466.69741392","3469.70019102","1","3469.71427107","3474.69154096",""
"sujeto_fddffe87","1","4","19","115","3474.83294892","direct","2","1","1","¿Cuántos Oscar ganó
 la película titanic?","13","11","","1","1","1","individual","right","1.10389900208","3475.93690991","3.89610099792","3479.98481202","4.67313885689","3484.65801311","1.32686114311","3486.02085209","3487.322855","3487.37165594","3490.37465906","1","3490.38940692","3494.98814511",""
"sujeto_fddffe87","1","4","20","116","3495.17407799","inverse","4","1","4","¿En qué año comenzó
la segunda guerra mundial?","1939","1976","left","0","0","1","competitive","left","0.88809299469","3496.06223798","4.11190700531","3500.33394599","4.19234490395","3504.52635312","1.80765509605","3506.36879802","3508.168221","3508.25305414","3511.25610113","1","3511.26987004","3515.257025",""
"sujeto_fddffe87","1","4","21","117","3515.40495014","direct","2","1","4","¿Cuántos biomas hay en Uruguay?","5","4","","0","0","1","competitive","left","0.949017047882","3516.35401607","4.05098295212","3520.55918503","4.44229197502","3525.00153613","1.55770802498","3526.59555006","3528.39288402","3528.47933197","3531.48229814","0","3531.49691701","3537.74633098",""
"sujeto_fddffe87","1","4","22","118","3537.88207197","inverse","2","1","3","¿Cuándo murió Pablo Escobar?","1993","1997","","1","1","1","competitive","right","1.66174507141","3539.54386401","3.33825492859","3543.04018998","4.81469392776","3547.85494709","1.18530607224","3549.07469201","3550.85614991","3550.94218397","3553.94517207","1","3553.95928001","3559.66294599",""
"sujeto_fddffe87","1","4","23","119","3559.81065607","direct","1","1","4","¿Qué serie ha ganado mas premios?","Friends","Murphy Brown","","1","1","0","competitive","left","0.904501199722","3560.71519899","4.09549880028","3564.97973394","4.28858613968","3569.26838398","1.71141386032","3571.03224707","3572.38463902","3572.46665907","3575.46963906","1","3575.48390603","3581.04553294",""
"sujeto_fddffe87","1","4","24","120","3581.18619108","inverse","4","1","2","¿Cuántas fichas tiene el dominó?","26","28","","1","1","1","competitive","right","0.983350992203","3582.16959214","4.0166490078","3586.34604812","3.84155797958","3590.18767405","2.15844202042","3592.38029695","3593.43559504","3593.51434302","3596.51619101","1","3596.53141403","3601.77452397",""
"sujeto_fddffe87","1","4","25","121","3601.91718912","direct","2","1","4","¿Cuántos son los dientes de leche?","20","25","","0","0","1","competitive","left","1.1976749897","3603.11491013","3.8023250103","3607.07381606","4.33420920372","3611.4081161","1.66579079628","3613.12466192","3614.83498693","3614.90928912","3617.91219091","0","3617.92645311","3620.07217097",""
"sujeto_fddffe87","1","4","26","122","3620.2116251","inverse","3","1","3","¿Cuántos gramos son una onza?","22","28","","0","0","1","competitive","left","0.997614145279","3621.20932007","4.00238585472","3625.36561608","3.93073701859","3629.2964201","2.06926298141","3631.40119791","3633.39602995","3633.48598194","3636.48897314","0","3636.50307894","3642.79333806",""
"sujeto_fddffe87","1","4","27","123","3642.95448303","direct","3","1","1","¿Cuándo salió el primer album
 de los Beatles?","1963","1962","","1","1","1","individual","right","1.67418599129","3644.62874413","3.32581400871","3648.11139894","3.63036608696","3651.74182606","2.36963391304","3654.16189098","3655.32553291","3655.36288714","3658.365834","1","3658.3801291","3662.1521771",""
"sujeto_fddffe87","1","4","28","124","3662.29909205","inverse","3","1","3","¿Quién fundó la empresa apple?","Carlos Slim","Steve Jobs","","1","1","1","competitive","left","1.01586222649","3663.31502604","3.98413777351","3667.45659494","4.91358494759","3672.37024808","1.08641505241","3673.50742412","3674.62207294","3674.70832396","3677.71130705","1","3677.72469211","3684.02256012",""
"sujeto_fddffe87","1","4","29","125","3684.17678213","direct","4","1","2","¿Cuántos municipios hay
 en Montevideo?","8","7","","1","1","1","competitive","right","2.97445201874","3687.15134311","2.02554798126","3689.33162904","4.65991282463","3693.99160409","1.34008717537","3695.36938906","3697.284168","3697.37024903","3700.37327099","1","3700.38733697","3702.46818709",""
"sujeto_fddffe87","1","4","30","126","3702.62301803","inverse","1","1","1","¿Cuántos kilómetros hay
 de Montevideo a Artigas?","632","599","","0","0","0","competitive","right","2.7947371006","3705.41781998","2.2052628994","3707.79236197","4.34258103371","3712.13500214","1.65741896629","3713.84637809","3715.32950497","3715.41352892","3718.41651392","0","3718.43067193","3724.48278809",""
"sujeto_fddffe87","1","4","31","127","3724.63306594","direct","2","1","2","¿En qué año nació 
Leonardo Da Vinci?","1452","1511","","1","1","0","competitive","left","2.05311203003","3726.68622613","2.94688796997","3729.78757191","4.68077111244","3734.46840596","1.31922888756","3735.82440495","3737.67797399","3737.75829911","3740.76129413","1","3740.7755971","3743.92200994",""
"sujeto_fddffe87","1","4","32","128","3744.06126308","inverse","3","1","1","¿A qué continente
 pertenece el país Gabón?","Africa","Oceanía","","0","0","1","individual","right","1.64930605888","3745.71061397","3.35069394112","3749.2165041","5.41825413704","3754.63479996","0.581745862961","3755.26788306","3757.07956791","3757.11872196","3760.120152","0","3760.13645291","3765.37435293",""
