"code","nro_aplicante","nro_bloque","nro_trial_bloque","nro_trial_global","show_game_type","choice_order","rival","pay_individual","pay_competitive","question","answer_left_text","answer_right_text","correct_answer","outcome_individual","outcome_competitive","outcome_rival","game_type","answer","social_time","rt_game_type","feedback_delay","show_question","answer_time","rt_answer_global","feedback_delay_2","show_jitter","jitter_time","show_outcome","outcome_time","outcome_participant_real","show_final_jitter","second_jitter_time","inicio_descanso"
"sujeto_c9ac0c57","1","1","1","1","35.344753027","direct","3","1","4","¿Cuántos centímetros corresponden
al talle 36 del calzado?","23","24","","0","0","1","competitive","left","1.98999190331","37.3348150253","3.01000809669","40.5142920017","4.70844388008","45.2228019238","1.29155611992","46.550588131","47.5788340569","47.6505961418","50.6535999775","0","50.6684839725","52.8309650421",""
"sujeto_c9ac0c57","1","1","2","2","52.9710490704","inverse","3","1","2","¿Cuántas metros mide la Intendencia
Municipal de Montevideo? ","84","78","","0","0","1","competitive","left","1.64394497871","54.6150419712","3.35605502129","58.1253781319","2.91267800331","61.0380980968","3.08732199669","64.1755559444","66.0535919666","66.1271159649","69.1300899982","0","69.1444919109","71.2372570038",""
"sujeto_c9ac0c57","1","1","3","3","71.3823940754","direct","1","1","3","¿Cuántas La Pasiva
 hay en uruguay?","15","11","","1","1","1","competitive","left","1.23373913765","72.616204977","3.76626086235","76.5329959393","2.21611189842","78.7491679192","3.78388810158","82.5828831196","84.1945559978","84.2683141232","87.2712900639","1","87.2858541012","91.564193964",""
"sujeto_c9ac0c57","1","1","4","4","91.7074010372","inverse","3","1","3","¿De que color es la camiseta de uruguay?","blanca","celeste","right","1","1","1","competitive","right","1.10680389404","92.8142719269","3.89319610596","96.8456540108","2.78267598152","99.6283919811","3.21732401848","102.896075964","104.100852013","104.181013107","107.181635141","1","107.197529078","110.651456118",""
"sujeto_c9ac0c57","1","1","5","5","110.801453114","direct","2","1","1","¿Cuánto metros mide
la torre Eiffel?","333","324","","1","1","1","competitive","left","1.1989979744","112.000524044","3.8010020256","115.955411911","2.48106598854","118.436537981","3.51893401146","122.005651951","123.527040958","123.607644081","126.610630035","1","126.625952959","133.662657022",""
"sujeto_c9ac0c57","1","1","6","6","133.80902791","inverse","3","1","4","¿Cuantas ciudades existen
 en todo el uruguay?","63","72","","0","0","1","competitive","right","1.25962901115","135.068725109","3.74037098885","138.96616292","2.78855705261","141.754760027","3.21144294739","145.017844915","146.072638988","146.169371128","149.172362089","0","149.186609983","156.813192129",""
"sujeto_c9ac0c57","1","1","7","7","156.957544088","direct","1","1","1","¿Cuantos estados tiene África?","52","54","","1","1","0","competitive","right","0.953299999237","157.910907984","4.04670000076","162.111525059","3.38931012154","165.500891924","2.61068987846","168.16249299","170.026521921","170.113162994","173.116136074","1","173.130734921","178.891716003",""
"sujeto_c9ac0c57","1","1","8","8","179.049530983","inverse","4","1","4","¿En qué año nació
 Stephen Hawking?","1952","1942","","0","0","1","competitive","right","1.34847402573","180.398051023","3.65152597427","184.207718134","2.92937207222","187.13715601","3.07062792778","190.240965128","191.685236931","191.75938201","194.762362957","0","194.777024984","200.876388073",""
"sujeto_c9ac0c57","1","1","9","9","201.012144089","direct","2","1","3","¿Cuánto años tenía Artigas
 cuando se fue a Paraguay?","56","57","","1","1","1","competitive","left","1.68404078484","202.696229935","3.31595921516","206.168815136","3.63952302933","209.808408022","2.36047697067","212.219521999","213.769040108","213.854550123","216.857527971","1","216.872148991","222.919456005",""
"sujeto_c9ac0c57","1","1","10","10","223.056016922","inverse","1","1","2","¿Cuantos milímetros 
mide una hoja A2?","420x592","420x594","","0","0","1","competitive","right","1.296448946","224.352509975","3.703551054","228.214168072","4.77430915833","232.988534927","1.22569084167","234.248631954","235.817069054","235.899462938","238.902436972","0","238.916749001","245.990392923",""
"sujeto_c9ac0c57","1","1","11","11","246.148845911","direct","3","1","3","¿Cuál es la menor temperatura 
registrada en Uruguay?","-5.4","-7.4","","0","0","1","competitive","left","2.09578800201","248.244698048","2.90421199799","251.309098959","3.25561189651","254.564754009","2.74438810349","257.360794067","259.042841911","259.128448963","262.131443977","0","262.145990133","265.879281998",""
"sujeto_c9ac0c57","1","1","12","12","266.032530069","inverse","2","1","2","¿Cuantos años hace que 
se fundó facebook?","18","17","","0","0","0","competitive","left","1.71525716782","267.747843027","3.28474283218","271.187031031","2.87986183167","274.066957951","3.12013816833","277.236854076","278.609591007","278.688540936","281.691533089","0","281.706174135","284.480797052",""
"sujeto_c9ac0c57","1","1","13","13","284.625381947","direct","1","1","4","¿Cuál animal es más
 pesado en promedio?","Rinoceronte","Hipopotamo","","0","0","0","competitive","left","1.93509888649","286.560529947","3.06490111351","289.794693947","4.03236293793","293.827121973","1.96763706207","295.881681919","296.960915089","297.032220125","300.035205126","0","300.049598932","303.890599012",""
"sujeto_c9ac0c57","1","1","14","14","304.02858305","inverse","1","1","2","¿Qué personaje de dragon ball 
murió más veces?","Chaoz","Krillin","","1","1","0","competitive","left","1.08164095879","305.110289097","3.91835904121","309.170094013","4.34914088249","313.519278049","1.65085911751","315.222590923","316.680407047","316.756437063","319.759424925","1","319.774714947","327.547650099",""
"sujeto_c9ac0c57","1","1","15","15","327.69373703","direct","3","1","2","La universidad de oxford. 
existe desde:","1096","1249","","1","1","0","competitive","right","1.06664180756","328.760443926","3.93335819244","332.850865126","3.97461414337","336.825540066","2.02538585663","338.899810076","339.948629141","340.034507036","343.037482023","1","343.051055908","349.741904974",""
"sujeto_c9ac0c57","1","1","16","16","349.889889002","inverse","3","1","1","¿Qué escritor latino ganó antes
 el premio nobel?"," García Marquez","Neruda","","0","0","1","competitive","left","1.54074597359","351.430696011","3.45925402641","355.04748702","5.12308096886","360.170619965","0.876919031143","361.081231117","362.821233988","362.898896933","365.901889086","0","365.916245937","369.376754045",""
"sujeto_c9ac0c57","1","1","17","17","369.518151045","direct","4","1","3","¿Cuántos dientes tiene un
 tiburón blanco?","6000","3000","","0","0","1","competitive","right","1.22363686562","370.741830111","3.77636313438","374.656893015","2.8959479332","377.552881956","3.1040520668","380.691118956","381.730117083","381.809158087","384.812139988","0","384.826472998","389.636124134",""
"sujeto_c9ac0c57","1","1","18","18","389.778650045","inverse","4","1","1","¿Cuánto mide el paralelo Ecuador?","40.000km","70.000km","","0","0","1","competitive","right","1.62734699249","391.406068087","3.37265300751","394.934430122","4.29870200157","399.233206034","1.70129799843","400.985785007","402.941885948","403.020066977","406.023030043","0","406.037343025","409.639923096",""
"sujeto_c9ac0c57","1","1","19","19","409.788811922","direct","4","1","2","¿Cuál fue el primer libro 
de Stephen King?","Carrie","The Stand","","1","1","1","competitive","left","1.52938699722","411.31824708","3.47061300278","414.960901022","3.56433081627","418.525289059","2.43566918373","421.011559963","422.755635977","422.82895112","425.831938028","1","425.846686125","430.321140051",""
"sujeto_c9ac0c57","1","1","20","20","430.464433908","inverse","2","1","3","¿Qué civilización practicaba
 la momificación?","Grecia","Egipto","right","0","0","1","competitive","right","1.37199091911","431.836472988","3.62800908089","435.622071028","2.42932701111","438.051455975","3.57067298889","441.672150135","443.611455917","443.691703081","446.694687128","1","446.709105015","450.937891006",""
"sujeto_c9ac0c57","1","1","21","21","451.076072931","direct","4","1","4","¿Cuántos millones de visitas
 recibe google por minuto?","3.0","4.5","","0","0","1","competitive","right","1.09851789474","452.174637079","3.90148210526","456.233675003","5.04095101357","461.274692059","0.959048986435","462.268522024","463.783415079","463.868617058","466.871576071","0","466.885891914","474.008557081",""
"sujeto_c9ac0c57","1","1","22","22","474.154843092","inverse","1","1","3","La máquina de fax. se inventó en:","1843","1960","","0","0","1","competitive","right","1.26686811447","475.421781063","3.73313188553","479.311990023","2.77188181877","482.083938122","3.22811818123","485.362863064","486.604977131","486.680804968","489.683762074","0","489.698065996","492.934374094",""
"sujeto_c9ac0c57","1","1","23","23","493.081423998","direct","2","1","4","En la verdadera historia de los
 300 espartanos. habían:","300 soldados","4300 soldados","","1","1","1","competitive","right","2.63352489471","495.714994907","2.36647510529","498.253292084","4.07277107239","502.326112032","1.92722892761","504.306970119","505.568176031","505.640548944","508.643533945","1","508.658128977","512.459892035",""
"sujeto_c9ac0c57","1","1","24","24","512.610608101","inverse","1","1","4","¿Cuántos milímetros crece
 el pelo por día?","0.4","0.04","","0","0","0","competitive","left","1.58851003647","514.199182034","3.41148996353","517.76575613","4.88045811653","522.646281004","1.11954188347","523.816890955","525.577620983","525.650895119","528.65387702","0","528.668596029","535.400207043",""
"sujeto_c9ac0c57","1","1","25","25","535.555716991","direct","4","1","1","¿Cuánto mide la baldosa gris 
clásica de Montevideo?","22x22 cm.","20x20 cm.","","1","1","1","competitive","left","1.49569797516","537.051465034","3.50430202484","540.711158991","4.82924795151","545.54047513","1.17075204849","546.760854006","548.756150007","548.828782082","551.831766129","1","551.84622097","557.389033079",""
"sujeto_c9ac0c57","1","1","26","26","557.514073133","inverse","2","1","2","¿Cuántas películas de rápidos
 y furiosos hay?","10","11","","1","1","0","competitive","left","2.4014351368","559.915575027","2.5985648632","562.672359943","3.59325504303","566.265674114","2.40674495697","568.70598197","570.064013958","570.15755105","573.160485983","1","573.174720049","575.20945096",""
"sujeto_c9ac0c57","1","1","27","27","575.343091011","direct","3","1","1","¿Cuántos masters 1000
 ganó Del Potro?","1","2","","1","1","1","competitive","left","2.36461091042","577.707746029","2.63538908958","580.513643026","3.87008690834","584.383790016","2.12991309166","586.566353083","588.320936918","588.40121007","591.404182911","1","591.418945074","598.814414024",""
"sujeto_c9ac0c57","1","1","28","28","598.956844091","inverse","2","1","4","¿Cuántos meses dura el 
embarazo de una leona?","3 meses","4 meses","","0","0","1","competitive","left","1.66005587578","600.616948128","3.33994412422","604.111362934","4.10761904716","608.219031096","1.89238095284","610.162127972","611.273224115","611.346143007","614.34912014","0","614.363727093","621.086210012",""
"sujeto_c9ac0c57","1","1","29","29","621.235074997","direct","1","1","1","¿En qué año fue creado
 el sandwich?","1762","1653","","1","1","0","competitive","right","2.13702702522","623.37214613","2.86297297478","626.404709101","3.37948298454","629.784256935","2.62051701546","632.440380096","634.038929939","634.124788046","637.127430916","1","637.142734051","640.613371134",""
"sujeto_c9ac0c57","1","1","30","30","640.75634408","inverse","4","1","2","El nombre de la moneda de Vietnam es:","Dinar","Dong","","0","0","1","competitive","right","1.61301612854","642.369429111","3.38698387146","645.916116953","3.39525008202","649.311429024","2.60474991798","651.964254141","653.396183968","653.483035088","656.486052036","0","656.500746965","662.669196129",""
"sujeto_c9ac0c57","1","1","31","31","662.821623087","direct","2","1","1","¿cuantos aleteos puede dar 
un colibrí por segundo?","120","50","","0","0","0","competitive","left","1.33988809586","664.161555052","3.66011190414","667.97777009","4.3907930851","672.368624926","1.6092069149","674.012159109","675.744557142","675.82982111","678.831484079","0","678.847230911","683.059457064",""
"sujeto_c9ac0c57","1","1","32","32","683.198568106","inverse","4","1","3","¿Qué altura promedio tienen
 los hombres uruguayos?","1.73 m","1.72 m","","1","1","1","competitive","left","2.05112099648","685.249732971","2.94887900352","688.387448072","2.61831617355","691.005803108","3.38168382645","694.438774109","695.701199055","695.774142027","698.777140141","1","698.788460016","703.264411926",""
"sujeto_c9ac0c57","1","2","1","33","827.707097054","direct","1","1","1","¿En qué año nació 
el actor Bradd Pitt?","1967","1963","","1","1","1","competitive","left","1.27391219139","828.981050968","3.72608780861","832.846888065","3.03115105629","835.878075123","2.96884894371","838.897681952","839.993555069","840.066334963","843.069354057","1","843.082935095","849.010462999","703.279561996"
"sujeto_c9ac0c57","1","2","2","34","849.154555082","inverse","2","1","1","¿Cual es el segundo 
monte más alto?","Kanchenjunga","K2","","1","1","1","competitive","left","1.77466201782","850.929279089","3.22533798218","854.29156208","3.62964510918","857.921266079","2.37035489082","860.326386929","861.778795004","861.861002922","864.863399029","1","864.878420115","868.307405949",""
"sujeto_c9ac0c57","1","2","3","35","868.444248915","direct","3","1","1","¿Cuándo finalizó la construcción
 del Palacio Legislativo?","1925","1917","","0","0","1","competitive","left","1.28818392754","869.732478142","3.71181607246","873.598788023","3.67370486259","877.272557974","2.32629513741","879.651557922","881.293275118","881.369269133","884.372287989","0","884.386791945","890.084373951",""
"sujeto_c9ac0c57","1","2","4","36","890.224136114","inverse","3","1","3","¿Cuántos integrantes tenía
 en su inicio  el cuarteto de nos?","3","4","","1","1","1","competitive","right","1.33046507835","891.554645061","3.66953492165","895.362822056","4.8947930336","900.257673025","1.1052069664","901.397609949","902.530709982","902.615097046","905.618081093","1","905.632615089","911.282444954",""
"sujeto_c9ac0c57","1","2","5","37","911.433440924","direct","2","1","3","¿Qué valor tiene el número pi?","3.14","4.18","left","0","0","1","competitive","left","2.0593559742","913.492846012","2.9406440258","916.591252089","2.22658896446","918.817879915","3.77341103554","922.642053127","924.096269131","924.17624402","927.179256916","1","927.193675995","934.114670992",""
"sujeto_c9ac0c57","1","2","6","38","934.245372057","inverse","2","1","2","¿Cuál es la esperanza de vida
 en Uruguay?","75","77","","1","1","0","competitive","right","1.25556707382","935.501008034","3.74443292618","939.400573969","4.00546598434","943.406101942","1.99453401566","945.452460051","947.106271982","947.186793089","950.18975997","1","950.204260111","956.667279959",""
"sujeto_c9ac0c57","1","2","7","39","956.806195021","direct","1","1","2","¿Cuantos pisos tiene la torre 
de las comunicaciones?","26","32","","1","1","0","competitive","left","1.73096895218","958.53720808","3.26903104782","961.964601994","3.42458987236","965.389230013","2.57541012764","968.014529943","969.843349934","969.915108919","972.91810298","1","972.933315992","975.079550982",""
"sujeto_c9ac0c57","1","2","8","40","975.219814062","inverse","2","1","4","¿En qué país sudamericano 
no hay McDonalds?","Bolivia","Venezuela","","0","0","1","competitive","left","1.99263381958","977.21252203","3.00736618042","980.373990059","3.18447899818","983.558511019","2.81552100182","986.425384998","987.734762907","987.809680939","990.812672138","0","990.827183962","997.186904907",""
"sujeto_c9ac0c57","1","2","9","41","997.346137047","direct","3","1","1","¿En qué año empieza
 la Edad Media?","476","512","","1","1","1","competitive","right","2.33548998833","999.681690931","2.66451001167","1002.51827693","3.45037889481","1005.96873307","2.54962110519","1008.57071495","1009.97447801","1010.05540514","1013.05839396","1","1013.07287693","1016.0614481",""
"sujeto_c9ac0c57","1","2","10","42","1016.20854092","inverse","3","1","4","¿Hace cuántos años surgió
 el ser humano?","200mil","300mil","","0","0","0","competitive","right","1.8812379837","1018.08984804","3.1187620163","1021.39621091","3.51864600182","1024.91491914","2.48135399818","1027.44620705","1029.33137393","1029.41421103","1032.417202","0","1032.43251014","1035.74298811",""
"sujeto_c9ac0c57","1","2","11","43","1035.88389802","direct","3","1","4","¿Cuántas cuadras tiene
 actualmente 18 de julio? ","36","33","","0","0","1","competitive","left","1.48506116867","1037.36900711","3.51493883133","1041.05522704","3.23776197433","1044.29305696","2.76223802567","1047.10548592","1048.80777502","1048.89043903","1051.89342999","0","1051.90819001","1056.63449907",""
"sujeto_c9ac0c57","1","2","12","44","1056.7784431","inverse","1","1","4","¿Qué juego de equipo se 
considera mas rápido?","Lacrosse","Badminton","","0","0","0","competitive","left","1.82667613029","1058.60518312","3.17332386971","1061.95121694","4.53194403648","1066.48320007","1.46805596352","1068.00210214","1069.24517393","1069.31874204","1072.32172894","0","1072.33655405","1080.33169699",""
"sujeto_c9ac0c57","1","2","13","45","1080.47108293","direct","1","1","3","¿Qué promedio de edad 
vive una jirafa? ","25","20","","0","0","1","competitive","right","0.977298021317","1081.44845104","4.02270197868","1085.62893605","3.64351320267","1089.27251196","2.35648679733","1091.66333508","1093.42439604","1093.49759912","1096.50058794","0","1096.51531792","1102.47105598",""
"sujeto_c9ac0c57","1","2","14","46","1102.61972499","inverse","1","1","2","¿Cuántos grandes lagos hay?","7","5","","0","0","1","competitive","right","1.72981095314","1104.34958506","3.27018904686","1107.77402091","2.73253202438","1110.50661707","3.26746797562","1113.80797005","1115.10013103","1115.19361496","1118.19657993","0","1118.21185493","1126.03324103",""
"sujeto_c9ac0c57","1","2","15","47","1126.19535303","direct","3","1","2","¿Cuántos discos de estudio
 grabó Johhny Cash? ","54","43","","1","1","0","competitive","right","1.85345482826","1128.04887199","3.14654517174","1131.37041306","3.79035615921","1135.16080809","2.20964384079","1137.42177892","1138.70042706","1138.77254391","1141.77549505","1","1141.7898531","1148.44074512",""
"sujeto_c9ac0c57","1","2","16","48","1148.57472301","inverse","4","1","1","¿Cuántos barrios tiene
 Montevideo? ","71","62","","0","0","1","competitive","right","1.94826483727","1150.52306199","3.05173516273","1153.74720311","2.01380801201","1155.76107502","3.98619198799","1159.78200412","1160.78907514","1160.86693096","1163.86990309","0","1163.88450003","1169.34652996",""
"sujeto_c9ac0c57","1","2","17","49","1169.48872304","direct","3","1","3","¿Qué edad tiene Homero Simpson?","36","42","","0","0","1","competitive","right","1.18037581444","1170.66914511","3.81962418556","1174.64254403","2.64866089821","1177.29127002","3.35133910179","1180.67642713","1182.05248094","1182.13770509","1185.14069295","0","1185.16223001","1189.55099607",""
"sujeto_c9ac0c57","1","2","18","50","1189.69665003","inverse","4","1","2","¿Cuántos países con monarquía 
hay en europa actualmente? ","6","10","","1","1","1","competitive","left","1.83068799973","1191.52741408","3.16931200027","1194.86969614","3.42572689056","1198.29548097","2.57427310944","1200.9202621","1202.35851097","1202.43894291","1205.44193506","1","1205.45633602","1211.61316109",""
"sujeto_c9ac0c57","1","2","19","51","1211.75595903","direct","2","1","3","¿Cuántos capítulos de
 Friends existen? ","236","228","","1","1","1","competitive","left","1.98258399963","1213.73860908","3.01741600037","1216.93205094","4.35654187202","1221.28863406","1.64345812798","1222.98288798","1224.28846097","1224.36763597","1227.37056398","1","1227.38497996","1229.76042891",""
"sujeto_c9ac0c57","1","2","20","52","1229.92149901","inverse","1","1","3","¿Cuántas óperas compuso Mozart? ","27","22","","1","1","1","competitive","right","1.95724487305","1231.87881303","3.04275512695","1235.08990407","4.20491600037","1239.29486513","1.79508399963","1241.14158511","1242.43371892","1242.50900698","1245.51199508","1","1245.52662492","1252.83809495",""
"sujeto_c9ac0c57","1","2","21","53","1252.98120403","direct","4","1","3","¿Cuántos mundiales de fútbol 
femenino ha realizado FIFA? ","9","7","","1","1","1","competitive","left","1.25172400475","1254.23297501","3.74827599525","1258.15315104","4.8238658905","1262.97706294","1.1761341095","1264.18791103","1265.431602","1265.50518394","1268.50816107","1","1268.52284408","1274.62534308",""
"sujeto_c9ac0c57","1","2","22","54","1274.75751209","inverse","3","1","2","¿Cuál es la temperatura 
media anual en Montevideo? ","17.5","16.3","","0","0","1","competitive","right","3.67364001274","1278.43120313","1.32635998726","1279.89850998","4.57470488548","1284.47327709","1.42529511452","1285.94971204","1287.88828611","1287.966995","1290.96998811","0","1290.98521399","1297.55476403",""
"sujeto_c9ac0c57","1","2","23","55","1297.68631792","direct","2","1","2","¿En qué año se estrenó el
 videojuego The Sims? ","2000","2002","","0","0","0","competitive","left","3.07604885101","1300.76240993","1.92395114899","1302.82702494","3.70036411285","1306.52745295","2.29963588715","1308.87798405","1310.74001694","1310.81197691","1313.81496692","0","1313.83032703","1321.22399402",""
"sujeto_c9ac0c57","1","2","24","56","1321.36515999","inverse","2","1","1","¿Cuál es la canción con 
mas covers? ","Yesterday","Stand by me","","0","0","0","competitive","left","1.1894390583","1322.55464292","3.8105609417","1326.53439498","3.47125291824","1330.00571108","2.52874708176","1332.58684802","1333.98540592","1334.07101011","1337.07398891","0","1337.08862996","1341.25946999",""
"sujeto_c9ac0c57","1","2","25","57","1341.38985491","direct","1","1","4","¿Cuánto duró la guerra
 de los 100 años?","116","123","","0","0","0","competitive","left","2.60842990875","1343.99836802","2.39157009125","1346.5629971","3.69677209854","1350.25980592","2.30322790146","1352.60095692","1354.08178902","1354.16893506","1357.17192698","0","1357.18633008","1359.50610995",""
"sujeto_c9ac0c57","1","2","26","58","1359.65333796","inverse","4","1","4","¿Qué color tiene la  bandera de Brasil?","Amarillo","Naranja","left","0","0","1","competitive","left","2.75059103966","1362.40398312","2.24940896034","1364.823385","3.60159492493","1368.42503905","2.39840507507","1370.87754798","1372.44405293","1372.52834892","1375.53133202","1","1375.54554796","1378.57836413",""
"sujeto_c9ac0c57","1","2","27","59","1378.728405","direct","4","1","3","¿Qué carabela de 
Colon no volvió del viaje?","Santa María","La pinta","","0","0","1","individual","right","1.58859181404","1380.31705713","3.41140818596","1383.88565993","3.8534488678","1387.73917294","2.1465511322","1389.93491507","1391.42597413","1391.46974111","1394.47272992","0","1394.48638511","1396.58586311",""
"sujeto_c9ac0c57","1","2","28","60","1396.73920894","inverse","4","1","4","¿Cuántos huesos tiene
 un adulto humano?","217","206","","0","0","1","competitive","right","2.17105793953","1398.91033411","2.82894206047","1401.91003108","2.54332304001","1404.45341611","3.45667695999","1407.96189713","1409.23293304","1409.31424999","1412.31724","0","1412.33182001","1420.16950107",""
"sujeto_c9ac0c57","1","2","29","61","1420.31687212","direct","1","1","1","¿Qué país africano fue 
fundado por esclavos?","Liberia","Chad","","0","0","0","competitive","left","1.09264302254","1421.40955997","3.90735697746","1425.45710611","0.188403129578","1425.64557195","5.81159687042","1431.50584912","1433.49745202","1433.57609797","1436.57907295","0","1436.59399605","1444.58485103",""
"sujeto_c9ac0c57","1","2","30","62","1444.72873712","inverse","4","1","2","¿A cuánto asciende la cima
 del monte Everest?","7.990 mts","8.848 mts","","0","0","1","competitive","right","1.30692505836","1446.03570509","3.69307494164","1449.90390396","4.44184207916","1454.34580708","1.55815792084","1455.93811202","1457.122962","1457.20553493","1460.20857501","0","1460.22291708","1467.40696311",""
"sujeto_c9ac0c57","1","2","31","63","1467.55761003","direct","4","1","1","¿Cuál es el país mas chico?","Sealand","Luxemburgo","","1","1","1","competitive","left","1.33426713943","1468.89192605","3.66573286057","1472.71570706","4.03024601936","1476.74601197","1.96975398064","1478.76687312","1480.63041496","1480.71764207","1483.72063613","1","1483.734936","1486.8572371",""
"sujeto_c9ac0c57","1","2","32","64","1487.00027204","inverse","2","1","4","¿Cuántas pirámides hay en Egipto?","10000","11000","","1","1","1","competitive","left","1.02076983452","1488.02108502","3.97923016548","1492.14204907","4.59908103943","1496.7411921","1.40091896057","1498.19369197","1499.22726011","1499.31065392","1502.31364107","1","1502.32813406","1507.43719506",""
"sujeto_c9ac0c57","1","3","1","65","1638.99729204","direct","2","1","2","¿Cuál es el quinto país con 
mas extensión?","Canadá","Brasil","","1","1","0","competitive","right","1.21716117859","1640.21449614","3.78283882141","1644.15560508","3.55296111107","1647.70860505","2.44703888893","1650.20610213","1651.53939795","1651.62386894","1654.62685299","1","1654.64105606","1662.36746407","1507.44857812"
"sujeto_c9ac0c57","1","3","2","66","1662.510288","inverse","1","1","2","¿Qué rasgo facial no tiene
 la Mona Lisa?","Cejas","Pómulos","","0","0","1","competitive","left","1.72037887573","1664.23071194","3.27962112427","1667.65157795","4.69622588158","1672.34784293","1.30377411842","1673.70043302","1675.45085907","1675.53433013","1678.53735709","0","1678.55192208","1684.82325101",""
"sujeto_c9ac0c57","1","3","3","67","1684.97491693","direct","4","1","3","¿Cuál es el país con 
mayor población?","Esados Unidos","China","right","0","0","1","competitive","right","1.2810049057","1686.25596499","3.7189950943","1690.14646912","2.91452693939","1693.06103611","3.08547306061","1696.19688511","1697.84238291","1697.93179893","1700.93480897","1","1700.94962192","1704.31691408",""
"sujeto_c9ac0c57","1","3","4","68","1704.46683908","inverse","1","1","1","La palabra dinosaurio significa","Lagarto Terrible","Lagarto Dragón","","1","1","0","competitive","","1.21028518677","1705.67716908","3.78971481323","1709.62342906","6","1715.623559","0","1715.63874292","1716.80906606","1716.89092493","1719.89393306","0","1719.90766001","1722.76950192",""
"sujeto_c9ac0c57","1","3","5","69","1722.92717004","direct","2","1","3","¿Qué es el membrillero?","Arbol","Arbusto","","0","0","0","competitive","left","2.14710998535","1725.07435012","2.85289001465","1728.08307791","3.2921640873","1731.37527609","2.7078359127","1734.13337898","1736.087502","1736.16859198","1739.17157197","0","1739.18582606","1745.64985108",""
"sujeto_c9ac0c57","1","3","6","70","1745.78790712","inverse","3","1","3","¿Alrededor de qué planeta orbita 
el satélite Europa?","Jupiter","Saturno","","1","1","1","competitive","right","1.00955414772","1746.79753113","3.99044585228","1750.93998599","4.07451796532","1755.01454806","1.92548203468","1756.97520399","1758.5200181","1758.59321499","1761.5962081","1","1761.61082792","1763.81597495",""
"sujeto_c9ac0c57","1","3","7","71","1763.96246004","direct","3","1","1","¿Donde fue el mundial de 
fútbol de 1954?","Suiza","Suecia","","1","1","1","competitive","right","1.48115897179","1765.44368291","3.51884102821","1769.12066102","3.55202889442","1772.672755","2.44797110558","1775.17176104","1776.42436814","1776.50633502","1779.50935006","1","1779.52294207","1783.4346931",""
"sujeto_c9ac0c57","1","3","8","72","1783.590132","inverse","1","1","4","¿Cuál de los 7 enanitos
no tenía barba?","Bashful","Mudito","","1","1","0","competitive","right","3.41366791725","1787.00386596","1.58633208275","1788.74816012","3.82469701767","1792.57290006","2.17530298233","1794.79915905","1796.37927604","1796.4502511","1799.45325494","1","1799.46755195","1804.39390302",""
"sujeto_c9ac0c57","1","3","9","73","1804.53810096","direct","3","1","2","¿Cual red social es
mas utilizada mundialmente?","Instagram","Facebook","","1","1","0","competitive","left","1.94994497299","1806.48814201","3.05005502701","1809.69381905","3.54829883575","1813.24216509","2.45170116425","1815.74270701","1817.66003108","1817.74408293","1820.74700403","1","1820.76223493","1823.69673395",""
"sujeto_c9ac0c57","1","3","10","74","1823.84762311","inverse","4","1","1","¿Cuándo se inició la copa
 América de fútbol?","1916","1923","","1","1","1","competitive","right","2.27653717995","1826.12423611","2.72346282005","1829.01937199","3.89092493057","1832.91034698","2.10907506943","1835.07014608","1836.96762204","1837.05456996","1840.05756211","1","1840.07222009","1842.72834611",""
"sujeto_c9ac0c57","1","3","11","75","1842.87340999","direct","3","1","4","¿Cuántos presidentes de EEUU
han muerto asesinados?","3","4","","0","0","1","competitive","left","1.55594086647","1844.42942214","3.44405913353","1848.02917004","3.97625589371","1852.00548601","2.02374410629","1854.06315613","1855.54710603","1855.63116002","1858.6341691","0","1858.64858294","1862.29268813",""
"sujeto_c9ac0c57","1","3","12","76","1862.43282294","inverse","2","1","4","¿Cuántas veces participó EEUU
 en la copa América?","4","5","","0","0","1","competitive","right","1.79370093346","1864.22656608","3.20629906654","1867.58973598","2.94691801071","1870.53671408","3.05308198929","1873.63832998","1875.08244991","1875.15647912","1878.15946603","0","1878.17467594","1884.2918539",""
"sujeto_c9ac0c57","1","3","13","77","1884.4437871","direct","4","1","1","¿Cuál de estos países 
no formaba la URSS?","Azeribayán","Afganistán","","0","0","1","competitive","right","2.06999707222","1886.51384807","2.93000292778","1889.61648107","3.38230705261","1892.99884796","2.61769294739","1895.66838813","1896.98145294","1897.06950307","1900.07249212","0","1900.08706093","1908.06175208",""
"sujeto_c9ac0c57","1","3","14","78","1908.20973706","inverse","1","1","1","¿En qué año se inauguró
 el teatro Solís?","1867","1856","","0","0","0","competitive","right","1.30223321915","1909.51203299","3.69776678085","1913.36318111","3.67682003975","1917.04004312","2.32317996025","1919.39711714","1920.45339513","1920.53109503","1923.534024","0","1923.54877996","1930.19660306",""
"sujeto_c9ac0c57","1","3","15","79","1930.35345292","direct","1","1","4","¿A qué velocidad vuela 
el avión más rápido?","3529","3874","","0","0","0","competitive","left","2.03272390366","1932.38624001","2.96727609634","1935.52312613","3.74108695984","1939.26427507","2.25891304016","1941.57636714","1943.33188701","1943.41072798","1946.41371393","0","1946.42736197","1948.53765512",""
"sujeto_c9ac0c57","1","3","16","80","1948.67799497","inverse","3","1","4","¿De qué año es la primer 
película cinematográfica?","1897","1888","","0","0","0","competitive","right","2.22243595123","1950.90047908","2.77756404877","1953.85096693","4.61948394775","1958.47051191","1.38051605225","1959.90190411","1961.0349021","1961.11915493","1964.12214613","0","1964.13640809","1969.54619908",""
"sujeto_c9ac0c57","1","3","17","81","1969.70535207","direct","2","1","3","¿Cuántos países 
tiene nuestro planeta?","191","194","","1","1","1","competitive","right","1.79316902161","1971.49857998","3.20683097839","1974.87743402","3.9660410881","1978.84352899","2.0339589119","1980.92786694","1982.28509092","1982.36280608","1985.36578512","1","1985.38020802","1988.61851311",""
"sujeto_c9ac0c57","1","3","18","82","1988.76543212","inverse","2","1","2","¿Cuántos habitantes
 tiene Buenos Aires?","2.9000.000","3650000","","0","0","0","competitive","right","1.81131505966","1990.57679105","3.18868494034","1993.93879509","5.41698408127","1999.35583901","0.583015918732","1999.98969913","2001.3869071","2001.47442508","2004.47741795","0","2004.49109292","2010.32048297",""
"sujeto_c9ac0c57","1","3","19","83","2010.45920992","direct","2","1","1","¿Cuántos kilos forman una tonelada?","1000","1500","left","1","1","1","competitive","right","4.43175411224","2014.89100814","0.568245887756","2015.63226604","3.35867190361","2018.99097705","2.64132809639","2021.68456411","2023.57185292","2023.65261698","2026.65556097","0","2026.67007899","2032.623456",""
"sujeto_c9ac0c57","1","3","20","84","2032.75459909","inverse","4","1","4","¿Cuántos estados tiene la 
República del Perú? ","24","23","","0","0","1","competitive","right","2.56051516533","2035.31515694","2.43948483467","2037.91206002","3.53105187416","2041.44315004","2.46894812584","2043.94641805","2044.96858311","2045.04750204","2048.05043197","0","2048.06466103","2053.00645709",""
"sujeto_c9ac0c57","1","3","21","85","2053.1497221","direct","3","1","3","¿En qué año nació Cristóbal Colón? ","1451","1447","","0","0","1","competitive","left","1.15963506699","2054.30941606","3.84036493301","2058.28942513","4.16198205948","2062.45146704","1.83801794052","2064.32278705","2066.16869903","2066.24053192","2069.24349594","0","2069.25901794","2073.48702693",""
"sujeto_c9ac0c57","1","3","22","86","2073.627141","inverse","4","1","4","¿Cuánto mide la 
Montaña Aconcagua? ","6234","6962","","0","0","1","competitive","right","0.869356870651","2074.49656296","4.13064312935","2078.78287411","4.32475709915","2083.10768199","1.67524290085","2084.81675506","2086.106107","2086.18529296","2089.18829513","0","2089.20193696","2096.38555098",""
"sujeto_c9ac0c57","1","3","23","87","2096.53674507","direct","2","1","4","¿Cuánto mide el punto
 más profundo del océano? ","12508","11003","","0","0","1","competitive","left","1.47200012207","2098.00878906","3.52799987793","2101.69435191","4.33446311951","2106.02887797","1.66553688049","2107.74581003","2108.99733114","2109.08048701","2112.08351707","0","2112.09704709","2116.3033371",""
"sujeto_c9ac0c57","1","3","24","88","2116.44912195","inverse","1","1","3","¿Cuántos álbumes ha publicado 
el cantante Jaime Roos? ","41","34","","0","0","1","competitive","right","2.29280400276","2118.74197197","2.70719599724","2121.60578704","3.24820184708","2124.85403299","2.75179815292","2127.64001203","2129.12983894","2129.20782495","2132.21082306","0","2132.22514892","2138.42134905",""
"sujeto_c9ac0c57","1","3","25","89","2138.58115196","direct","4","1","3","¿En qué año nació el 
ex-presidente Jorge Battle? ","1921","1927","","1","1","1","competitive","left","2.66190600395","2141.2431221","2.33809399605","2143.74802804","4.70317792892","2148.45126796","1.29682207108","2149.79964614","2151.52944207","2151.61680007","2154.61979413","1","2154.63453913","2158.12058592",""
"sujeto_c9ac0c57","1","3","26","90","2158.25274801","inverse","1","1","3","¿Cuántas presidencias 
constitucionales  hubo en Uruguay? ","41","42","","0","0","1","competitive","left","1.53152084351","2159.78434205","3.46847915649","2163.41097498","2.89038491249","2166.30140114","3.10961508751","2169.46110106","2170.66487694","2170.7458241","2173.74882293","0","2173.76368499","2179.54730797",""
"sujeto_c9ac0c57","1","3","27","91","2179.68157911","direct","1","1","2","¿Quién escribió mas sinfonías?","Mozart","Haydn","","1","1","0","competitive","left","2.8328871727","2182.51450992","2.1671128273","2184.85398507","2.99954319","2187.85359597","3.00045681","2190.88954091","2192.10702801","2192.19157314","2195.19451404","1","2195.20882201","2198.96023607",""
"sujeto_c9ac0c57","1","3","28","92","2199.10406399","inverse","4","1","2","¿En qué año nació Michael Jackson?","1958","1953","","1","1","1","competitive","left","0.84162402153","2199.9457531","4.15837597847","2204.27709198","4.05860686302","2208.33576608","1.94139313698","2210.31259799","2212.2908361","2212.38060403","2215.38358593","1","2215.39813113","2221.26046491",""
"sujeto_c9ac0c57","1","3","29","93","2221.41657591","direct","3","1","2","¿En qué año entró en vigencia 
la ley antitabaco en Uruguay?","2005","2006","","1","1","1","competitive","right","1.10327601433","2222.51989508","3.89672398567","2226.57723904","3.95266795158","2230.52997303","2.04733204842","2232.62825012","2234.22300792","2234.29538894","2237.29837894","1","2237.31293392","2242.64391899",""
"sujeto_c9ac0c57","1","3","30","94","2242.79844093","inverse","3","1","1","¿Cuándo se subió el 
primer video a youtube?","2004","2005","","0","0","1","competitive","right","2.77963590622","2245.57814598","2.22036409378","2247.96957898","3.92250299454","2251.89212012","2.07749700546","2254.02257514","2255.32739401","2255.407341","2258.41034508","0","2258.42267394","2266.17828894",""
"sujeto_c9ac0c57","1","3","31","95","2266.32386708","direct","2","1","1","¿Cuántos habitantes tiene India?","1200 millones","1300 millones","","0","0","0","competitive","left","2.03138613701","2268.35532594","2.96861386299","2271.48192811","4.97133302689","2276.45334792","1.02866697311","2277.53518391","2279.50482202","2279.58610201","2282.58909512","0","2282.60443401","2288.65195012",""
"sujeto_c9ac0c57","1","3","32","96","2288.80603409","inverse","4","1","2","¿A qué edad murió Bob Marley?","36","37","","0","0","1","competitive","left","0.762439966202","2289.56853604","4.2375600338","2293.97810102","2.21445703506","2296.19261909","3.78554296494","2300.01220393","2301.91007495","2301.99811697","2305.00110602","0","2305.01541591","2308.11789298",""
"sujeto_c9ac0c57","1","4","1","97","2435.61937094","direct","2","1","1","¿Cuantos años dirigió la selección 
uruguaya Tabarez?","15 años","13 años","","0","0","0","competitive","left","0.950227022171","2436.56964111","4.04977297783","2440.77338004","3.77433395386","2444.54777312","2.22566604614","2446.82456994","2448.01567101","2448.09254503","2451.09545207","0","2451.109833","2458.18182898","2308.13245606"
"sujeto_c9ac0c57","1","4","2","98","2458.34580898","inverse","4","1","1","¿Cuantas teclas tiene un teclado 
de computadora generalmente? ","Entre 99 y 108","Entre 109 y 113","","1","1","1","competitive","","1.51421785355","2459.86009407","3.48578214645","2463.50243497","6","2469.50255895","0","2469.51744199","2470.520154","2470.60365796","2473.60664606","0","2473.62089705","2475.99233794",""
"sujeto_c9ac0c57","1","4","3","99","2476.13924003","direct","1","1","1","¿Cuál Departamento tiene
 mayor superficie?","Río Negro","Soriano","","0","0","0","competitive","left","1.29023098946","2477.42951512","3.70976901054","2481.29474401","3.95587491989","2485.25066495","2.04412508011","2487.34625602","2489.05974007","2489.13051796","2492.13351703","0","2492.14847708","2496.47456598",""
"sujeto_c9ac0c57","1","4","4","100","2496.61565804","inverse","3","1","2","¿Cuál es el apellido de las 
hermanastras  de  cenicienta?","Tremaine","Truman","","0","0","1","competitive","left","1.79823517799","2498.41393495","3.20176482201","2501.78972912","4.89127516747","2506.68106413","1.10872483253","2507.82457995","2509.69412208","2509.77456808","2512.77755904","0","2512.79210091","2515.48682809",""
"sujeto_c9ac0c57","1","4","5","101","2515.62734008","direct","4","1","4","¿Cuál película ganó un
 Oscar a mejor película?","Alto Impacto","Cache","","0","0","1","competitive","left","1.01092815399","2516.63835502","3.98907184601","2520.78272891","4.01766300201","2524.80046105","1.98233699799","2526.83374906","2527.95314312","2528.03488994","2531.03788614","0","2531.05227113","2533.31691504",""
"sujeto_c9ac0c57","1","4","6","102","2533.45369792","inverse","1","1","3","¿A cuántos centímetros
equivale la medida pié?","25","30","","0","0","1","competitive","left","1.09191989899","2534.54568791","3.90808010101","2538.60923004","4.62052512169","2543.22980094","1.37947487831","2544.65980005","2545.69979191","2545.77732396","2548.78036213","0","2548.79488206","2554.19583106",""
"sujeto_c9ac0c57","1","4","7","103","2554.33040595","direct","2","1","2","¿Qué departamento es mas grande?","Cerro Largo","Paysandú","","0","0","0","competitive","right","2.15967607498","2556.49015307","2.84032392502","2559.50152612","2.61261916161","2562.11421108","3.38738083839","2565.53733206","2567.13710713","2567.22265601","2570.2256391","0","2570.24051499","2574.35048914",""
"sujeto_c9ac0c57","1","4","8","104","2574.49178505","inverse","2","1","3","¿Quién pintó la Mona Lisa?","Picasso","Da Vinci","right","0","0","1","competitive","right","2.80968785286","2577.30153608","2.19031214714","2579.645576","2.42100286484","2582.06662107","3.57899713516","2585.69872093","2587.30457902","2587.38324904","2590.38350296","1","2590.40072203","2592.56305814",""
"sujeto_c9ac0c57","1","4","9","105","2592.71871996","direct","4","1","3","¿Cuántos litros hay en un galon?","3.54","3.78","","1","1","1","competitive","right","2.51708507538","2595.23584914","2.48291492462","2597.8899579","4.21097898483","2602.10100412","1.78902101517","2603.92275596","2605.44062114","2605.5234921","2608.52649307","1","2608.54114604","2614.33350205",""
"sujeto_c9ac0c57","1","4","10","106","2614.47620797","inverse","4","1","1","¿Cuántas teclas tiene
 un piano moderno?","80","88","","0","0","1","competitive","right","1.57395601273","2616.05023599","3.42604398727","2619.63616014","2.46013593674","2622.09634709","3.53986406326","2625.68541694","2626.69391108","2626.77111793","2629.77410507","0","2629.78779197","2636.58554292",""
"sujeto_c9ac0c57","1","4","11","107","2636.72342396","direct","4","1","3","¿Cuántos países hay en África?","54","62","","0","0","1","competitive","left","1.3091108799","2638.0325911","3.6908891201","2641.88067603","2.6590487957","2644.53976607","3.3409512043","2647.93142509","2649.621984","2649.69971204","2652.70268297","0","2652.71715307","2660.52189207",""
"sujeto_c9ac0c57","1","4","12","108","2660.66910505","inverse","1","1","3","¿En qué siglo se crearon
 las primeras pistolas?","XV","XIII","","1","1","1","competitive","right","1.0110001564","2661.68015003","3.9889998436","2665.82726908","5.35390210152","2671.18121314","0.646097898483","2671.87860394","2673.8264761","2673.91199994","2676.91439414","1","2676.92972112","2680.16284394",""
"sujeto_c9ac0c57","1","4","13","109","2680.30926514","direct","3","1","4","¿En qué año se estrenó 
la serie friends?","1994","1995","","0","0","1","competitive","left","1.9991850853","2682.30849409","3.0008149147","2685.470366","3.31517791748","2688.78560591","2.68482208252","2691.52011704","2693.395432","2693.47165704","2696.47456503","0","2696.48937392","2701.49546599",""
"sujeto_c9ac0c57","1","4","14","110","2701.63993812","inverse","3","1","4","¿En qué año nació Hitler?","1889","1887","","0","0","1","competitive","right","1.69582796097","2703.33582807","3.30417203903","2706.79881001","2.83807396889","2709.63694501","3.16192603111","2712.84883595","2713.96318197","2714.05094194","2717.05387998","0","2717.06758499","2722.09262204",""
"sujeto_c9ac0c57","1","4","15","111","2722.235847","direct","1","1","4","¿Cuánto pesa un elefante Africano?","6000 kilos","5400 kilos","","0","0","0","competitive","right","2.13727402687","2724.37317014","2.86272597313","2727.40838814","4.1168949604","2731.52535009","1.8831050396","2733.46157908","2734.81750607","2734.89564514","2737.89865804","0","2737.90981698","2744.61689901",""
"sujeto_c9ac0c57","1","4","16","112","2744.75974202","inverse","1","1","2","¿Qué porcentaje de 
la población es zurda?","10%","7%","","1","1","0","competitive","left","3.18183588982","2747.941643","1.81816411018","2749.92128706","5.36450719833","2755.28584099","0.635492801666","2755.95720506","2757.20029593","2757.27455997","2760.27757502","1","2760.29095292","2766.27070403",""
"sujeto_c9ac0c57","1","4","17","113","2766.42625713","direct","1","1","2","¿En qué año se estrenó
Volver al futuro?","1984","1985","","0","0","1","competitive","left","1.07672309875","2767.50304914","3.92327690125","2771.56471705","4.52832317352","2776.09309793","1.47167682648","2777.60008597","2779.16189909","2779.23466206","2782.23764396","0","2782.25195312","2789.34236813",""
"sujeto_c9ac0c57","1","4","18","114","2789.46982098","inverse","3","1","2","¿Cuántos jugadores hay en un 
equipo de baseball?","9","8","","1","1","0","competitive","","0.933505058289","2790.40338707","4.06649494171","2794.62885904","6","2800.62899613","0","2800.64344597","2802.25773597","2802.34494209","2805.34801197","0","2805.36268902","2810.33993697",""
"sujeto_c9ac0c57","1","4","19","115","2810.48108411","direct","2","1","1","¿Cuántos Oscar ganó
 la película titanic?","13","11","","1","1","1","competitive","left","0.951614141464","2811.43277407","4.04838585854","2815.63962603","2.97610497475","2818.61579514","3.02389502525","2821.69057608","2822.99262905","2823.07562304","2826.0786221","1","2826.09235311","2830.69501805",""
"sujeto_c9ac0c57","1","4","20","116","2830.8443861","inverse","4","1","4","¿En qué año comenzó
la segunda guerra mundial?","1939","1976","left","0","0","1","competitive","right","1.02959990501","2831.87403107","3.97040009499","2835.99983001","4.6611828804","2840.66105294","1.3388171196","2842.03536892","2843.835217","2843.91927409","2846.92227602","0","2846.93678403","2850.92395902",""
"sujeto_c9ac0c57","1","4","21","117","2851.07164097","direct","2","1","4","¿Cuántos biomas hay en Uruguay?","5","4","","0","0","1","competitive","right","1.52573394775","2852.59741902","3.47426605225","2856.22789812","3.05451512337","2859.28245902","2.94548487663","2862.27594399","2864.07331014","2864.16168714","2867.16469193","0","2867.17942309","2873.42884707",""
"sujeto_c9ac0c57","1","4","22","118","2873.57987309","inverse","2","1","3","¿Cuándo murió Pablo Escobar?","1993","1997","","1","1","1","competitive","left","2.61979413033","2876.19973397","2.38020586967","2878.75337791","2.60039496422","2881.35381293","3.39960503578","2884.79115605","2886.57397509","2886.659266","2889.66226292","1","2889.67686391","2895.380548",""
"sujeto_c9ac0c57","1","4","23","119","2895.52851892","direct","1","1","4","¿Qué serie ha ganado mas premios?","Friends","Murphy Brown","","1","1","0","competitive","left","2.58647704124","2898.11503911","2.41352295876","2900.70120907","3.32291412354","2904.02416801","2.67708587646","2906.75258207","2908.10443592","2908.18713713","2911.19010496","1","2911.20488095","2916.76651001",""
"sujeto_c9ac0c57","1","4","24","120","2916.90612698","inverse","4","1","2","¿Cuántas fichas tiene el dominó?","26","28","","1","1","1","competitive","right","2.3462870121","2919.25247502","2.6537129879","2922.07825613","3.2831890583","2925.361485","2.7168109417","2928.11382794","2929.16915512","2929.24877405","2932.25177693","1","2932.26602602","2937.50913095",""
"sujeto_c9ac0c57","1","4","25","121","2937.65110302","direct","2","1","4","¿Cuántos son los dientes de leche?","20","25","","0","0","1","competitive","left","4.47363686562","2942.12480807","0.526363134384","2942.80553603","2.78220486641","2945.58779407","3.21779513359","2948.84154296","2950.55192399","2950.62676907","2953.62969804","0","2953.64404202","2955.78974605",""
"sujeto_c9ac0c57","1","4","26","122","2955.92949009","inverse","3","1","3","¿Cuántos gramos son una onza?","22","28","","0","0","1","competitive","left","0.956519126892","2956.88607502","4.04348087311","2961.09935594","2.68367004395","2963.78308702","3.31632995605","2967.15110302","2969.14596701","2969.21894097","2972.22193694","0","2972.23661804","2978.52687502",""
"sujeto_c9ac0c57","1","4","27","123","2978.65720797","direct","3","1","1","¿Cuándo salió el primer album
 de los Beatles?","1963","1962","","1","1","1","competitive","left","1.43219304085","2980.08945608","3.56780695915","2983.81300902","4.89943480492","2988.71248412","1.10056519508","2989.8632431","2991.02688813","2991.09816194","2994.10114408","1","2994.11468911","2997.88673306",""
"sujeto_c9ac0c57","1","4","28","124","2998.03323007","inverse","3","1","3","¿Quién fundó la empresa apple?","Carlos Slim","Steve Jobs","","1","1","1","competitive","right","1.73837399483","2999.77167201","3.26162600517","3003.18920898","3.01348400116","3006.20275903","2.98651599884","3009.2396419","3010.35408401","3010.42453003","3013.4274981","1","3013.44199705","3019.73983693",""
"sujeto_c9ac0c57","1","4","29","125","3019.89292812","direct","4","1","2","¿Cuántos municipios hay
 en Montevideo?","8","7","","1","1","1","competitive","left","0.940253019333","3020.83327794","4.05974698067","3025.04884696","2.74618291855","3027.79506898","3.25381708145","3031.083395","3032.99817109","3033.08525491","3036.08826303","1","3036.10300708","3038.18415594",""
"sujeto_c9ac0c57","1","4","30","126","3038.33819604","inverse","1","1","1","¿Cuántos kilómetros hay
 de Montevideo a Artigas?","632","599","","0","0","0","competitive","right","1.46100187302","3039.79927897","3.53899812698","3043.49401498","2.82622003555","3046.32030511","3.17377996445","3049.52805495","3051.01117706","3051.09618402","3054.09918213","0","3054.11384702","3060.16596198",""
"sujeto_c9ac0c57","1","4","31","127","3060.31444907","direct","2","1","2","¿En qué año nació 
Leonardo Da Vinci?","1452","1511","","1","1","0","competitive","left","2.49713015556","3062.81164312","2.50286984444","3065.48626113","5.64330005646","3071.12962103","0.356699943542","3071.52453303","3073.37814212","3073.45769191","3076.4606781","1","3076.47594905","3079.62235904",""
"sujeto_c9ac0c57","1","4","32","128","3079.75993514","inverse","3","1","1","¿A qué continente
 pertenece el país Gabón?","Africa","Oceanía","","0","0","1","competitive","left","2.37808704376","3082.13810897","2.62191295624","3084.93296599","5.31696295738","3090.24997211","0.683037042618","3090.98421097","3092.79587102","3092.86758709","3095.87059212","0","3095.88586593","3101.12377906",""
