"code","nro_aplicante","nro_bloque","nro_trial_bloque","nro_trial_global","show_game_type","choice_order","rival","pay_individual","pay_competitive","question","answer_left_text","answer_right_text","correct_answer","outcome_individual","outcome_competitive","outcome_rival","game_type","answer","social_time","rt_game_type","feedback_delay","show_question","answer_time","rt_answer_global","feedback_delay_2","show_jitter","jitter_time","show_outcome","outcome_time","outcome_participant_real","show_final_jitter","second_jitter_time","inicio_descanso"
"sujeto_725769f0","1","1","1","1","80.5994000435","direct","3","1","4","¿Cuántos centímetros corresponden
al talle 36 del calzado?","23","24","","0","0","1","competitive","right","3.01667308807","83.6161198616","1.98332691193","85.7676920891","4.15064311028","89.918380022","1.84935688972","91.8052399158","92.8335418701","92.9226939678","95.9256880283","0","95.9403619766","98.1025660038",""
"sujeto_725769f0","1","1","2","2","98.2438058853","inverse","3","1","2","¿Cuántas metros mide la Intendencia
Municipal de Montevideo? ","84","78","","0","0","1","competitive","right","1.41592597961","99.6598050594","3.58407402039","103.397710085","4.75227594376","108.150044918","1.24772405624","109.446809053","111.324863911","111.397141933","114.400099993","0","114.415760994","116.508519888",""
"sujeto_725769f0","1","1","3","3","116.651319027","direct","1","1","3","¿Cuántas La Pasiva
 hay en uruguay?","15","11","","1","1","1","competitive","right","1.66396903992","118.315334082","3.33603096008","121.807533026","4.11602497101","125.923616886","1.88397502899","127.858463049","129.47014904","129.54264307","132.545603037","1","132.552207947","136.830550909",""
"sujeto_725769f0","1","1","4","4","136.970905066","inverse","3","1","3","¿De que color es la camiseta de uruguay?","blanca","celeste","right","1","1","1","competitive","right","1.02699494362","137.997942924","3.97300505638","142.117217064","3.17091202736","145.288188934","2.82908797264","148.168737888","149.373501062","149.453773975","152.456747055","1","152.471045971","155.924966097",""
"sujeto_725769f0","1","1","5","5","156.074874878","direct","2","1","1","¿Cuánto metros mide
la torre Eiffel?","333","324","","1","1","1","competitive","right","1.40064287186","157.475583076","3.59935712814","161.228961945","3.83468985558","165.063695908","2.16531014442","167.280059099","168.801487923","168.880668879","171.883650064","1","171.897209883","178.933887959",""
"sujeto_725769f0","1","1","6","6","179.086785078","inverse","3","1","4","¿Cuantas ciudades existen
 en todo el uruguay?","63","72","","0","0","1","competitive","right","1.00135302544","180.088203907","3.99864697456","184.240694046","4.49655914307","188.737292051","1.50344085693","190.275748014","191.330543041","191.409429073","194.412417889","0","194.427059889","202.053654909",""
"sujeto_725769f0","1","1","7","7","202.19508791","direct","1","1","1","¿Cuantos estados tiene África?","52","54","","1","1","0","individual","left","2.07060909271","204.265762091","2.92939090729","207.352988005","3.2097671032","210.56281209","2.7902328968","213.404677868","215.268709898","215.305928946","218.308876991","1","218.324258089","224.085282087",""
"sujeto_725769f0","1","1","8","8","224.226041079","inverse","4","1","4","¿En qué año nació
 Stephen Hawking?","1952","1942","","0","0","1","competitive","left","0.849138021469","225.075226068","4.15086197853","229.398463964","3.34287619591","232.741400003","2.65712380409","235.432326078","236.876641989","236.95071888","239.953686953","0","239.967952967","246.067342997",""
"sujeto_725769f0","1","1","9","9","246.221229076","direct","2","1","3","¿Cuánto años tenía Artigas
 cuando se fue a Paraguay?","56","57","","1","1","1","competitive","left","1.80934715271","248.030639887","3.19065284729","251.394269943","4.30551600456","255.699822903","1.69448399544","257.443276882","258.992763996","259.077810049","262.080775976","1","262.095556021","268.142874956",""
"sujeto_725769f0","1","1","10","10","268.283169031","inverse","1","1","2","¿Cuantos milímetros 
mide una hoja A2?","420x592","420x594","","0","0","1","competitive","","2.27396512032","270.557180882","2.72603487968","273.439423084","6","279.43956089","0","279.457705021","281.02610302","281.107950926","284.110926867","0","284.125417948","291.198534012",""
"sujeto_725769f0","1","1","11","11","291.343590975","direct","3","1","3","¿Cuál es la menor temperatura 
registrada en Uruguay?","-5.4","-7.4","","0","0","1","competitive","right","1.28678107262","292.63043499","3.71321892738","296.49969101","5.08331418037","301.583065987","0.916685819626","302.551522017","304.233558893","304.318649054","307.321606874","0","307.336267948","311.06952405",""
"sujeto_725769f0","1","1","12","12","311.206016064","inverse","2","1","2","¿Cuantos años hace que 
se fundó facebook?","18","17","","0","0","0","competitive","left","0.849730014801","312.055855036","4.1502699852","316.359049082","3.87626314163","320.235372066","2.12373685837","322.393495083","323.766174078","323.844510078","326.846571922","0","326.861718893","329.636314869",""
"sujeto_725769f0","1","1","13","13","329.762928009","direct","1","1","4","¿Cuál animal es más
 pesado en promedio?","Rinoceronte","Hipopotamo","","0","0","0","competitive","right","1.1590731144","330.922041893","3.8409268856","334.913089991","3.66672897339","338.579859972","2.33327102661","340.965466976","342.044651031","342.11550498","345.11847496","0","345.132164955","348.973166943",""
"sujeto_725769f0","1","1","14","14","349.152755976","inverse","1","1","2","¿Qué personaje de dragon ball 
murió más veces?","Chaoz","Krillin","","1","1","0","competitive","right","1.38181591034","350.534631968","3.61818408966","354.295218945","3.91812586784","358.213401079","2.08187413216","360.345809937","361.803634882","361.879755974","364.882744074","1","364.896820068","372.665647984",""
"sujeto_725769f0","1","1","15","15","372.80272007","direct","3","1","2","La universidad de oxford. 
existe desde:","1096","1249","","1","1","0","competitive","right","1.57340312004","374.37618494","3.42659687996","377.95592308","4.59108614922","382.547054052","1.40891385078","383.990181923","385.038995028","385.125185966","388.128134966","1","388.141628981","394.832501888",""
"sujeto_725769f0","1","1","16","16","394.980623007","inverse","3","1","1","¿Qué escritor latino ganó antes
 el premio nobel?"," García Marquez","Neruda","","0","0","1","competitive","left","0.843250989914","395.823939085","4.15674901009","400.133255005","3.00047779083","403.133795023","2.99952220917","406.184048891","407.924057007","408.003093958","411.006074905","0","411.020614862","414.481142044",""
"sujeto_725769f0","1","1","17","17","414.619962931","direct","4","1","3","¿Cuántos dientes tiene un
 tiburón blanco?","6000","3000","","0","0","1","competitive","right","0.881685018539","415.501689911","4.11831498146","419.775393009","3.37413811684","423.14958787","2.62586188316","425.826452971","426.865434885","426.944983959","429.945549965","0","429.962306023","434.771991014",""
"sujeto_725769f0","1","1","18","18","434.915209055","inverse","4","1","1","¿Cuánto mide el paralelo Ecuador?","40.000km","70.000km","","0","0","1","competitive","left","0.926373004913","435.841628075","4.07362699509","440.071265936","4.61526298523","444.686589956","1.38473701477","446.122189999","448.078321934","448.156383038","451.159352064","0","451.174081087","454.776659012",""
"sujeto_725769f0","1","1","19","19","454.909182072","direct","4","1","2","¿Cuál fue el primer libro 
de Stephen King?","Carrie","The Stand","","1","1","1","individual","right","2.20534610748","457.114572048","2.79465389252","460.098466873","4.06505298615","464.16356492","1.93494701385","466.149345875","467.893464088","467.933304071","470.936284065","1","470.949807882","475.424259901",""
"sujeto_725769f0","1","1","20","20","475.569263935","inverse","2","1","3","¿Qué civilización practicaba
 la momificación?","Grecia","Egipto","right","0","0","1","competitive","right","1.40527391434","476.974593878","3.59472608566","480.723557949","3.22090697289","483.944540024","2.77909302711","486.776124001","488.715357065","488.793715","491.79666996","1","491.811961889","496.040759087",""
"sujeto_725769f0","1","1","21","21","496.211899042","direct","4","1","4","¿Cuántos millones de visitas
 recibe google por minuto?","3.0","4.5","","0","0","1","competitive","right","1.31761908531","497.529563904","3.68238091469","501.368891954","4.03751087189","505.406491995","1.96248912811","507.420003891","508.934891939","509.020910978","512.023895979","0","512.038419962","519.16112709",""
"sujeto_725769f0","1","1","22","22","519.293483019","inverse","1","1","3","La máquina de fax. se inventó en:","1843","1960","","0","0","1","competitive","right","0.849166154861","520.142716885","4.15083384514","524.447875023","2.82872414589","527.276638985","3.17127585411","530.477986097","531.720083952","531.793467999","534.796477079","0","534.810872078","538.047188044",""
"sujeto_725769f0","1","1","23","23","538.17959404","direct","2","1","4","En la verdadera historia de los
 300 espartanos. habían:","300 soldados","4300 soldados","","1","1","1","competitive","right","1.15413999557","539.333776951","3.84586000443","543.341058969","5.71866393089","549.059762955","0.281336069107","549.392865896","550.654102087","550.725904942","553.728887081","1","553.743124962","557.544890881",""
"sujeto_725769f0","1","1","24","24","557.692851067","inverse","1","1","4","¿Cuántos milímetros crece
 el pelo por día?","0.4","0.04","","0","0","0","individual","right","1.37692499161","559.069851875","3.62307500839","562.846817017","4.72797703743","567.574862957","1.27202296257","568.882735014","570.643488884","570.682705879","573.685678959","0","573.701340914","580.436435938",""
"sujeto_725769f0","1","1","25","25","580.56951499","direct","4","1","1","¿Cuánto mide la baldosa gris 
clásica de Montevideo?","22x22 cm.","20x20 cm.","","1","1","1","individual","right","1.67847084999","582.248030901","3.32152915001","585.729985952","3.61196684837","589.342020988","2.38803315163","591.778588057","593.773806095","593.81239295","596.815366983","1","596.831009865","602.373352051",""
"sujeto_725769f0","1","1","26","26","602.51582408","inverse","2","1","2","¿Cuántas películas de rápidos
 y furiosos hay?","10","11","","1","1","0","competitive","right","1.29526400566","603.811130047","3.70473599434","607.658115864","3.80605697632","611.464235067","2.19394302368","613.709066868","615.06704092","615.142951012","618.14597106","1","618.160729885","620.194535971",""
"sujeto_725769f0","1","1","27","27","620.34224987","direct","3","1","1","¿Cuántos masters 1000
 ganó Del Potro?","1","2","","1","1","1","individual","right","1.71700310707","622.059326887","3.28299689293","625.500629902","3.67869400978","629.179384947","2.32130599022","631.534664869","633.288587093","633.335874081","636.338851929","1","636.353991985","643.750329971",""
"sujeto_725769f0","1","1","28","28","643.892554998","inverse","2","1","4","¿Cuántos meses dura el 
embarazo de una leona?","3 meses","4 meses","","0","0","1","competitive","right","1.18596601486","645.078562975","3.81403398514","649.044825077","3.04275488853","652.08762002","2.95724511147","655.079468012","656.190547943","656.264561892","659.267494917","0","659.281663895","666.00413394",""
"sujeto_725769f0","1","1","29","29","666.151311874","direct","1","1","1","¿En qué año fue creado
 el sandwich?","1762","1653","","1","1","0","individual","right","2.51341891289","668.664793968","2.48658108711","671.305320024","3.51046204567","674.815841913","2.48953795433","677.358324051","678.956885099","679.009937048","682.012904882","1","682.027215958","685.497833014",""
"sujeto_725769f0","1","1","30","30","685.629801989","inverse","4","1","2","El nombre de la moneda de Vietnam es:","Dinar","Dong","","0","0","1","individual","left","1.42615485191","687.056025982","3.57384514809","690.784991026","3.86294794083","694.647976875","2.13705205917","696.818392992","698.249542952","698.286834002","701.289834976","0","701.304008961","707.472429037",""
"sujeto_725769f0","1","1","31","31","707.609405994","direct","2","1","1","¿cuantos aleteos puede dar 
un colibrí por segundo?","120","50","","0","0","0","individual","left","2.14775300026","709.757256031","2.85224699974","712.777955055","4.54227113724","717.32029295","1.45772886276","718.830983877","720.563395023","720.615236998","723.618151903","0","723.6334939","727.845782042",""
"sujeto_725769f0","1","1","32","32","727.985903025","inverse","4","1","3","¿Qué altura promedio tienen
 los hombres uruguayos?","1.73 m","1.72 m","","1","1","1","competitive","right","2.46741700172","730.453366995","2.53258299828","733.154814005","2.82556796074","735.980424881","3.17443203926","739.206367016","740.468795061","740.541172028","743.544142962","1","743.558839083","748.034781933",""
"sujeto_725769f0","1","2","1","33","890.623895884","direct","1","1","1","¿En qué año nació 
el actor Bradd Pitt?","1967","1963","","1","1","1","individual","left","1.98282289505","892.606785059","3.01717710495","895.776963949","3.43392300606","899.210956097","2.56607699394","901.815667868","902.911531925","902.96393609","905.966516018","1","905.983824968","911.911431074","748.049860001"
"sujeto_725769f0","1","2","2","34","912.066906929","inverse","2","1","1","¿Cual es el segundo 
monte más alto?","Kanchenjunga","K2","","1","1","1","individual","right","1.42742085457","913.494369984","3.57257914543","917.222197056","4.01838207245","921.240640879","1.98161792755","923.275804043","924.728169918","924.776715994","927.779680967","1","927.796000004","931.225871086",""
"sujeto_725769f0","1","2","3","35","931.361198902","direct","3","1","1","¿Cuándo finalizó la construcción
 del Palacio Legislativo?","1925","1917","","0","0","1","individual","right","1.71370196342","933.074944019","3.28629803658","936.517330885","4.58478093147","941.102175951","1.41521906853","942.567980051","944.209696054","944.253221035","947.255258083","0","947.273740053","952.971286058",""
"sujeto_725769f0","1","2","4","36","953.125863075","inverse","3","1","3","¿Cuántos integrantes tenía
 en su inicio  el cuarteto de nos?","3","4","","1","1","1","competitive","right","1.96394610405","955.089896917","3.03605389595","958.293981075","4.23685002327","962.530895948","1.76314997673","964.347867966","965.480556965","965.566607952","968.569623947","1","968.584488869","974.233577967",""
"sujeto_725769f0","1","2","5","37","974.38736105","direct","2","1","3","¿Qué valor tiene el número pi?","3.14","4.18","left","0","0","1","competitive","left","2.24271011353","976.630120993","2.75728988647","979.53856802","3.12768602371","982.666296959","2.87231397629","985.575999975","987.029512882","987.110894918","990.113511086","1","990.130002975","997.050973892",""
"sujeto_725769f0","1","2","6","38","997.218087912","inverse","2","1","2","¿Cuál es la esperanza de vida
 en Uruguay?","75","77","","1","1","0","competitive","left","1.62562894821","998.843765974","3.37437105179","1002.37001991","3.18794393539","1005.55800605","2.81205606461","1008.42098689","1010.07451987","1010.15688992","1013.15951991","1","1013.1750021","1019.63796496",""
"sujeto_725769f0","1","2","7","39","1019.79258299","direct","1","1","2","¿Cuantos pisos tiene la torre 
de las comunicaciones?","26","32","","1","1","0","competitive","right","2.46468687057","1022.25731897","2.53531312943","1024.96378994","4.5546169281","1029.51845407","1.4453830719","1031.01784897","1032.84657598","1032.93639302","1035.93853593","1","1035.95478892","1038.10101891",""
"sujeto_725769f0","1","2","8","40","1038.254426","inverse","2","1","4","¿En qué país sudamericano 
no hay McDonalds?","Bolivia","Venezuela","","0","0","1","competitive","right","0.876339912415","1039.13083601","4.12366008759","1043.40807509","3.52282595634","1046.93094087","2.47717404366","1049.46036601","1050.76958108","1050.84638405","1053.84932208","0","1053.86474991","1060.22354507",""
"sujeto_725769f0","1","2","9","41","1060.39950395","direct","3","1","1","¿En qué año empieza
 la Edad Media?","476","512","","1","1","1","individual","right","1.79575991631","1062.19530702","3.20424008369","1065.5848999","5.08053708076","1070.66550899","0.919462919235","1071.624089","1073.0275209","1073.07367897","1076.07651305","1","1076.09191895","1079.07950687",""
"sujeto_725769f0","1","2","10","42","1079.22794604","inverse","3","1","4","¿Hace cuántos años surgió
 el ser humano?","200mil","300mil","","0","0","0","competitive","left","0.808813810349","1080.0368681","4.19118618965","1084.3807869","4.62923502922","1089.01013589","1.37076497078","1090.41760898","1092.30354404","1092.38162088","1095.38456702","0","1095.40401006","1098.71357393",""
"sujeto_725769f0","1","2","11","43","1098.85306501","direct","3","1","4","¿Cuántas cuadras tiene
 actualmente 18 de julio? ","36","33","","0","0","1","competitive","right","1.34410500526","1100.19724488","3.65589499474","1104.00779295","3.71953988075","1107.72737598","2.28046011925","1110.05951095","1111.76139307","1111.84388804","1114.84681106","0","1114.86333799","1119.58956194",""
"sujeto_725769f0","1","2","12","44","1119.76310492","inverse","1","1","4","¿Qué juego de equipo se 
considera mas rápido?","Lacrosse","Badminton","","0","0","0","competitive","left","1.84248781204","1121.60563803","3.15751218796","1124.93570089","3.95806002617","1128.89380503","2.04193997383","1130.97153091","1132.2146349","1132.3030889","1135.30552101","0","1135.32494497","1143.320081",""
"sujeto_725769f0","1","2","13","45","1143.46038604","direct","1","1","3","¿Qué promedio de edad 
vive una jirafa? ","25","20","","0","0","1","competitive","left","1.78685116768","1145.24728203","3.21314883232","1148.61546087","3.01676511765","1151.632267","2.98323488235","1154.65149307","1156.41304207","1156.50205898","1159.50498605","0","1159.52100396","1165.47651601",""
"sujeto_725769f0","1","2","14","46","1165.62251401","inverse","1","1","2","¿Cuántos grandes lagos hay?","7","5","","0","0","1","competitive","left","0.77610206604","1166.3986609","4.22389793396","1170.77540398","4.30843901634","1175.08388805","1.69156098366","1176.81349802","1178.10559392","1178.19419909","1181.19662905","0","1181.21612096","1189.03657603",""
"sujeto_725769f0","1","2","15","47","1189.17023396","direct","3","1","2","¿Cuántos discos de estudio
 grabó Johhny Cash? ","54","43","","1","1","0","competitive","right","1.83383202553","1191.00411296","3.16616797447","1194.33755803","4.80765914917","1199.14526105","1.19234085083","1200.37581086","1201.65441799","1201.72839594","1204.73057294","1","1204.745399","1211.39631605",""
"sujeto_725769f0","1","2","16","48","1211.54737902","inverse","4","1","1","¿Cuántos barrios tiene
 Montevideo? ","71","62","","0","0","1","individual","right","1.38720917702","1212.93466806","3.61279082298","1216.71636105","3.19029402733","1219.90671897","2.80970597267","1222.77027988","1223.77736187","1223.8216989","1226.82462001","0","1226.83979607","1232.30155897",""
"sujeto_725769f0","1","2","17","49","1232.47567701","direct","3","1","3","¿Qué edad tiene Homero Simpson?","36","42","","0","0","1","competitive","right","1.42622613907","1233.90196896","3.57377386093","1237.62950087","3.15462708473","1240.78419995","2.84537291527","1243.67716289","1245.05250907","1245.13359404","1248.13653493","0","1248.15132499","1252.53617191",""
"sujeto_725769f0","1","2","18","50","1252.68674898","inverse","4","1","2","¿Cuántos países con monarquía 
hay en europa actualmente? ","6","10","","1","1","1","individual","right","1.4525821209","1254.13937497","3.5474178791","1257.85475302","4.7477440834","1262.60254097","1.2522559166","1263.89378405","1265.33151102","1265.37584591","1268.37853289","1","1268.39621186","1274.55257297",""
"sujeto_725769f0","1","2","19","51","1274.71638393","direct","2","1","3","¿Cuántos capítulos de
 Friends existen? ","236","228","","1","1","1","competitive","left","4.10842084885","1278.82486892","0.891579151154","1279.86840796","3.12677502632","1282.99525309","2.87322497368","1285.90526509","1287.21055198","1287.28864908","1290.29153609","1","1290.30815792","1292.68353987",""
"sujeto_725769f0","1","2","20","52","1292.82421494","inverse","1","1","3","¿Cuántas óperas compuso Mozart? ","27","22","","1","1","1","competitive","left","2.93999004364","1295.764256","2.06000995636","1297.97911286","2.48609495163","1300.465271","3.51390504837","1304.03154302","1305.32366204","1305.39807892","1308.40054107","1","1308.41783595","1315.7285111",""
"sujeto_725769f0","1","2","21","53","1315.87049508","direct","4","1","3","¿Cuántos mundiales de fútbol 
femenino ha realizado FIFA? ","9","7","","1","1","1","competitive","right","2.51107811928","1318.38163996","2.48892188072","1321.04053187","4.45361089706","1325.49423909","1.54638910294","1327.08990002","1328.3336041","1328.40997005","1331.41255498","1","1331.42894292","1337.53119588",""
"sujeto_725769f0","1","2","22","54","1337.6976459","inverse","3","1","2","¿Cuál es la temperatura 
media anual en Montevideo? ","17.5","16.3","","0","0","1","competitive","left","2.13834905624","1339.83605909","2.86165094376","1342.86682796","3.30526280403","1346.17215395","2.69473719597","1348.9206059","1350.85853887","1350.93861699","1353.93916202","0","1353.95768809","1360.52715993",""
"sujeto_725769f0","1","2","23","55","1360.67586994","direct","2","1","2","¿En qué año se estrenó el
 videojuego The Sims? ","2000","2002","","0","0","0","competitive","left","1.13552498817","1361.81150007","3.86447501183","1365.82931995","3.98924398422","1369.8186121","2.01075601578","1371.88183498","1373.74353194","1373.82110906","1376.82403708","0","1376.83729506","1384.23093009",""
"sujeto_725769f0","1","2","24","56","1384.38969398","inverse","2","1","1","¿Cuál es la canción con 
mas covers? ","Yesterday","Stand by me","","0","0","0","individual","left","0.994100809097","1385.38384104","4.0058991909","1389.54373193","4.61257100105","1394.15640903","1.38742899895","1395.58049202","1396.97855401","1397.03068805","1400.03351808","0","1400.05023289","1404.22053599",""
"sujeto_725769f0","1","2","25","57","1404.36649895","direct","1","1","4","¿Cuánto duró la guerra
 de los 100 años?","116","123","","0","0","0","competitive","right","0.818703889847","1405.18525195","4.18129611015","1409.52031803","4.06399512291","1413.58437991","1.93600487709","1415.55527186","1417.03614187","1417.12526608","1420.12754488","0","1420.14407086","1422.46351504",""
"sujeto_725769f0","1","2","26","58","1422.60933495","inverse","4","1","4","¿Qué color tiene la  bandera de Brasil?","Amarillo","Naranja","left","0","0","1","competitive","left","0.79723405838","1423.40661407","4.20276594162","1427.76402402","3.26959204674","1431.03367901","2.73040795326","1433.81714296","1435.38300395","1435.46699095","1438.46993899","1","1438.48709106","1441.51902199",""
"sujeto_725769f0","1","2","27","59","1441.68675089","direct","4","1","3","¿Qué carabela de 
Colon no volvió del viaje?","Santa María","La pinta","","0","0","1","individual","right","0.775111913681","1442.46190786","4.22488808632","1446.85584998","5.78223204613","1452.63821006","0.217767953873","1452.90836096","1454.39938998","1454.44525194","1457.44751191","0","1457.46305704","1459.56248498",""
"sujeto_725769f0","1","2","28","60","1459.71256089","inverse","4","1","4","¿Cuántos huesos tiene
 un adulto humano?","217","206","","0","0","1","competitive","right","0.898566961288","1460.61119103","4.10143303871","1464.8659761","2.00429606438","1466.87034202","3.99570393562","1470.91406894","1472.185045","1472.27109003","1475.27353287","0","1475.28899693","1483.12612891",""
"sujeto_725769f0","1","2","29","61","1483.29229307","direct","1","1","1","¿Qué país africano fue 
fundado por esclavos?","Liberia","Chad","","0","0","0","individual","left","2.36226201057","1485.65459895","2.63773798943","1488.444098","4.81657099724","1493.26071","1.18342900276","1494.48113108","1496.47251606","1496.51619291","1499.51817799","0","1499.53531599","1507.525563",""
"sujeto_725769f0","1","2","30","62","1507.67039609","inverse","4","1","2","¿A cuánto asciende la cima
 del monte Everest?","7.990 mts","8.848 mts","","0","0","1","individual","left","1.23354101181","1508.9040041","3.76645898819","1512.84089708","4.46221113205","1517.30317092","1.53778886795","1518.87950897","1520.06351709","1520.11224008","1523.11454606","0","1523.13129306","1530.31445789",""
"sujeto_725769f0","1","2","31","63","1530.46719408","direct","4","1","1","¿Cuál es el país mas chico?","Sealand","Luxemburgo","","1","1","1","individual","right","1.07613992691","1531.54337692","3.92386007309","1535.62153101","2.73492217064","1538.35650206","3.26507782936","1541.67442393","1543.53792","1543.59022999","1546.5930829","1","1546.61057687","1549.73281503",""
"sujeto_725769f0","1","2","32","64","1549.87677288","inverse","2","1","4","¿Cuántas pirámides hay en Egipto?","10000","11000","","1","1","1","competitive","left","0.731890916824","1550.60872793","4.26810908318","1555.03136587","3.56345796585","1558.59489989","2.43654203415","1561.06845188","1562.10156989","1562.18589592","1565.188519","1","1565.20353198","1570.31253791",""
"sujeto_725769f0","1","3","1","65","1688.7011559","direct","2","1","2","¿Cuál es el quinto país con 
mas extensión?","Canadá","Brasil","","1","1","0","competitive","left","1.73686289787","1690.43806195","3.26313710213","1693.87100697","3.52212691307","1697.39319587","2.47787308693","1699.92336392","1701.25651288","1701.34167695","1704.34452009","1","1704.36113191","1712.08654404","1570.33454108"
"sujeto_725769f0","1","3","2","66","1712.23207808","inverse","1","1","2","¿Qué rasgo facial no tiene
 la Mona Lisa?","Cejas","Pómulos","","0","0","1","competitive","right","3.47535705566","1715.70751309","1.52464294434","1717.38408899","4.7184548378","1722.10260797","1.2815451622","1723.43576288","1725.18614507","1725.27129197","1728.27350807","0","1728.28983998","1734.56054187",""
"sujeto_725769f0","1","3","3","67","1734.70882106","direct","4","1","3","¿Cuál es el país con 
mayor población?","Esados Unidos","China","right","0","0","1","competitive","right","1.5229101181","1736.23177409","3.4770898819","1739.879004","3.75384783745","1743.63291597","2.24615216255","1745.93169904","1747.57755208","1747.65222096","1750.65452194","1","1750.66877389","1754.03606892",""
"sujeto_725769f0","1","3","4","68","1754.18615603","inverse","1","1","1","La palabra dinosaurio significa","Lagarto Terrible","Lagarto Dragón","","1","1","0","individual","right","1.11595201492","1755.30215406","3.88404798508","1759.33755088","4.63368010521","1763.97127891","1.36631989479","1765.37653899","1766.54652405","1766.593889","1769.59653807","1","1769.61268306","1772.47447395",""
"sujeto_725769f0","1","3","5","69","1772.62922597","direct","2","1","3","¿Qué es el membrillero?","Arbol","Arbusto","","0","0","0","competitive","left","1.22716784477","1773.85644388","3.77283215523","1777.78185701","4.12868404388","1781.91058397","1.87131595612","1783.81953907","1785.77365088","1785.85272598","1788.85554194","0","1788.872334","1795.33555508",""
"sujeto_725769f0","1","3","6","70","1795.50960207","inverse","3","1","3","¿Alrededor de qué planeta orbita 
el satélite Europa?","Jupiter","Saturno","","1","1","1","competitive","left","2.39421701431","1797.90388393","2.60578298569","1800.65942192","4.56150007248","1805.22098494","1.43849992752","1806.69773102","1808.24251795","1808.33321905","1811.33614898","1","1811.34983706","1813.55455399",""
"sujeto_725769f0","1","3","7","71","1813.70300698","direct","3","1","1","¿Donde fue el mundial de 
fútbol de 1954?","Suiza","Suecia","","1","1","1","individual","left","1.21103286743","1814.91410398","3.78896713257","1818.85468888","4.68681812286","1823.54154992","1.31318187714","1824.90686107","1826.15946603","1826.20897508","1829.20945907","1","1829.22787499","1833.13961005",""
"sujeto_725769f0","1","3","8","72","1833.27846909","inverse","1","1","4","¿Cuál de los 7 enanitos
no tenía barba?","Bashful","Mudito","","1","1","0","competitive","right","0.848905086517","1834.127455","4.15109491348","1838.43094993","4.06158399582","1842.49257708","1.93841600418","1844.46897388","1846.04904604","1846.13470101","1849.13762903","1","1849.15417194","1854.08327699",""
"sujeto_725769f0","1","3","9","73","1854.23884702","direct","3","1","2","¿Cual red social es
mas utilizada mundialmente?","Instagram","Facebook","","1","1","0","competitive","left","2.51292204857","1856.75181198","2.48707795143","1859.39338207","2.88850498199","1862.28193402","3.11149501801","1865.44585299","1867.36325097","1867.44826508","1870.45053697","1","1870.46553302","1873.39957905",""
"sujeto_725769f0","1","3","10","74","1873.54931903","inverse","4","1","1","¿Cuándo se inició la copa
 América de fútbol?","1916","1923","","1","1","1","individual","right","1.15872502327","1874.70808792","3.84127497673","1878.70349503","5.42170405388","1884.12524295","0.578295946121","1884.73993707","1886.63735104","1886.68926001","1889.69213891","1","1889.70987892","1892.36602497",""
"sujeto_725769f0","1","3","11","75","1892.50893903","direct","3","1","4","¿Cuántos presidentes de EEUU
han muerto asesinados?","3","4","","0","0","1","competitive","right","0.988467216492","1893.49750996","4.01153278351","1897.64782","3.22067093849","1900.86853409","2.77932906151","1903.6987009","1905.18260503","1905.26849389","1908.27051306","0","1908.286129","1911.92951703",""
"sujeto_725769f0","1","3","12","76","1912.1188581","inverse","2","1","4","¿Cuántas veces participó EEUU
 en la copa América?","4","5","","0","0","1","competitive","right","1.17082309723","1913.28972602","3.82917690277","1917.27472806","4.25904798508","1921.53383899","1.74095201492","1923.32145691","1924.76560402","1924.86060691","1927.86362696","0","1927.87962604","1933.99138093",""
"sujeto_725769f0","1","3","13","77","1934.14800096","direct","4","1","1","¿Cuál de estos países 
no formaba la URSS?","Azeribayán","Afganistán","","0","0","1","competitive","left","1.29304790497","1935.44109392","3.70695209503","1939.3025279","5.42762899399","1944.73022604","0.572371006012","1945.33965802","1946.65269208","1946.73889494","1949.74152803","0","1949.75658488","1957.73871207",""
"sujeto_725769f0","1","3","14","78","1957.87788296","inverse","1","1","1","¿En qué año se inauguró
 el teatro Solís?","1867","1856","","0","0","0","individual","left","1.03647685051","1958.91440392","3.96352314949","1963.04724002","3.74534916878","1966.79263592","2.25465083122","1969.08545709","1970.14173198","1970.18416595","1973.18659401","0","1973.2034359","1979.851264",""
"sujeto_725769f0","1","3","15","79","1979.98975396","direct","1","1","4","¿A qué velocidad vuela 
el avión más rápido?","3529","3874","","0","0","0","competitive","left","0.948057889938","1980.93788099","4.05194211006","1985.14207196","4.11280918121","1989.25493097","1.88719081879","1991.17992902","1992.93453193","1993.01339102","1996.01637197","0","1996.0329659","1998.14257908",""
"sujeto_725769f0","1","3","16","80","1998.29949093","inverse","3","1","4","¿De qué año es la primer 
película cinematográfica?","1897","1888","","0","0","0","competitive","right","1.46352481842","1999.76308107","3.53647518158","2003.45136905","4.66484308243","2008.11625409","1.33515691757","2009.48903394","2010.62154508","2010.70685005","2013.70952296","0","2013.72494388","2019.13451195",""
"sujeto_725769f0","1","3","17","81","2019.2766881","direct","2","1","3","¿Cuántos países 
tiene nuestro planeta?","191","194","","1","1","1","competitive","right","3.43477010727","2022.7115171","1.56522989273","2024.43142509","4.17108106613","2028.60258198","1.82891893387","2030.48300695","2031.83955097","2031.9171679","2034.92010999","1","2034.93605709","2038.17357802",""
"sujeto_725769f0","1","3","18","82","2038.32163095","inverse","2","1","2","¿Cuántos habitantes
 tiene Buenos Aires?","2.9000.000","3650000","","0","0","0","competitive","right","1.9089910984","2040.23072505","3.0910089016","2043.49103403","5.45383214951","2048.94492888","0.546167850494","2049.54268909","2050.93951297","2051.01346898","2054.0155201","0","2054.03008294","2059.85858488",""
"sujeto_725769f0","1","3","19","83","2060.01690793","direct","2","1","1","¿Cuántos kilos forman una tonelada?","1000","1500","left","1","1","1","individual","left","2.6001830101","2062.61715293","2.3998169899","2065.18469787","3.95743513107","2069.14217806","2.04256486893","2071.22251296","2073.10958791","2073.15665388","2076.159549","1","2076.17476392","2082.12753701",""
"sujeto_725769f0","1","3","20","84","2082.31010389","inverse","4","1","4","¿Cuántos estados tiene la 
República del Perú? ","24","23","","0","0","1","competitive","left","0.949368953705","2083.25955296","4.0506310463","2087.47967505","3.28386092186","2090.76360106","2.71613907814","2093.51590991","2094.53756809","2094.6167469","2097.61951709","0","2097.636415","2102.58171606",""
"sujeto_725769f0","1","3","21","85","2102.7226851","direct","3","1","3","¿En qué año nació Cristóbal Colón? ","1451","1447","","0","0","1","competitive","right","2.16008090973","2104.88281393","2.83991909027","2107.87558389","2.99229502678","2110.86792493","3.00770497322","2113.92623997","2115.77215695","2115.84711695","2118.84958196","0","2118.86396289","2123.09189987",""
"sujeto_725769f0","1","3","22","86","2123.24815607","inverse","4","1","4","¿Cuánto mide la 
Montaña Aconcagua? ","6234","6962","","0","0","1","competitive","right","0.727879047394","2123.97610188","4.27212095261","2128.40265703","3.62861919403","2132.03138494","2.37138080597","2134.43951488","2135.72852302","2135.80528402","2138.80821991","0","2138.82475305","2146.00840497",""
"sujeto_725769f0","1","3","23","87","2146.14491796","direct","2","1","4","¿Cuánto mide el punto
 más profundo del océano? ","12508","11003","","0","0","1","competitive","left","1.83496284485","2147.97993302","3.16503715515","2151.32892299","4.38573312759","2155.71470404","1.61426687241","2157.385221","2158.63653398","2158.71938109","2161.72153401","0","2161.73691702","2165.943151",""
"sujeto_725769f0","1","3","24","88","2166.1065259","inverse","1","1","3","¿Cuántos álbumes ha publicado 
el cantante Jaime Roos? ","41","34","","0","0","1","competitive","right","1.03722190857","2167.14381194","3.96277809143","2171.27301502","3.77285003662","2175.04590797","2.22714996338","2177.32334495","2178.81255507","2178.89574289","2181.89851499","0","2181.91391397","2188.11002088",""
"sujeto_725769f0","1","3","25","89","2188.25005102","direct","4","1","3","¿En qué año nació el 
ex-presidente Jorge Battle? ","1921","1927","","1","1","1","competitive","right","1.96965122223","2190.21982408","3.03034877777","2193.4196589","4.06856489182","2197.48829103","1.93143510818","2199.47219896","2201.20285892","2201.28984904","2204.29252005","1","2204.31044602","2207.795578",""
"sujeto_725769f0","1","3","26","90","2207.94151402","inverse","1","1","3","¿Cuántas presidencias 
constitucionales  hubo en Uruguay? ","41","42","","0","0","1","competitive","right","0.772906064987","2208.71449089","4.22709393501","2213.09848094","3.50402593613","2216.60257006","2.49597406387","2219.14929008","2220.35253692","2220.43455791","2223.43750691","0","2223.45406389","2229.23768497",""
"sujeto_725769f0","1","3","27","91","2229.37306809","direct","1","1","2","¿Quién escribió mas sinfonías?","Mozart","Haydn","","1","1","0","competitive","left","1.21878194809","2230.59192109","3.78121805191","2234.54169798","2.4690849781","2237.01086187","3.5309150219","2240.59496808","2241.81154799","2241.89724994","2244.89958596","1","2244.91434598","2248.66572595",""
"sujeto_725769f0","1","3","28","92","2248.82980609","inverse","4","1","2","¿En qué año nació Michael Jackson?","1958","1953","","1","1","1","competitive","left","2.19133806229","2251.02119398","2.80866193771","2254.00269508","3.22143292427","2257.22423387","2.77856707573","2260.05504394","2262.03328705","2262.1227181","2265.12554789","1","2265.14103389","2271.00332689",""
"sujeto_725769f0","1","3","29","93","2271.1460259","direct","3","1","2","¿En qué año entró en vigencia 
la ley antitabaco en Uruguay?","2005","2006","","1","1","1","competitive","left","1.8394010067","2272.985497","3.1605989933","2276.32936692","5.07925391197","2281.40869093","0.920746088028","2282.3675499","2283.962327","2284.05275702","2287.05554008","1","2287.0701139","2292.40356207",""
"sujeto_725769f0","1","3","30","94","2292.55488396","inverse","3","1","1","¿Cuándo se subió el 
primer video a youtube?","2004","2005","","0","0","1","competitive","left","2.06189703941","2294.61684608","2.93810296059","2297.72624397","3.06562805176","2300.79193401","2.93437194824","2303.77893305","2305.08459187","2305.16209888","2308.1649859","0","2308.18153501","2315.93653488",""
"sujeto_725769f0","1","3","31","95","2316.08557391","direct","2","1","1","¿Cuántos habitantes tiene India?","1200 millones","1300 millones","","0","0","0","competitive","right","2.65458607674","2318.74022698","2.34541392326","2321.25354791","3.94170999527","2325.19532204","2.05829000473","2327.30667806","2329.27554107","2329.35751605","2332.35980892","0","2332.37719798","2338.42467093",""
"sujeto_725769f0","1","3","32","96","2338.57824802","inverse","4","1","2","¿A qué edad murió Bob Marley?","36","37","","0","0","1","individual","left","1.47130894661","2340.04960799","3.52869105339","2343.75018501","2.84438610077","2346.59461689","3.15561389923","2349.79670596","2351.69450903","2351.73579097","2354.73852897","0","2354.75638008","2357.85851407",""
"sujeto_725769f0","1","4","1","97","2499.24984002","direct","2","1","1","¿Cuantos años dirigió la selección 
uruguaya Tabarez?","15 años","13 años","","0","0","0","individual","left","1.26920008659","2500.51910686","3.73079991341","2504.41816902","3.88299202919","2508.30120301","2.11700797081","2510.47244692","2511.66351604","2511.70448804","2514.70739603","0","2514.72361708","2521.79562092","2357.87409902"
"sujeto_725769f0","1","4","2","98","2521.94530797","inverse","4","1","1","¿Cuantas teclas tiene un teclado 
de computadora generalmente? ","Entre 99 y 108","Entre 109 y 113","","1","1","1","individual","left","2.70612597466","2524.65153503","2.29387402534","2527.12940788","5.58816099167","2532.7176199","0.411839008331","2533.18235993","2534.18456507","2534.23401093","2537.23695207","1","2537.25240493","2539.62382197",""
"sujeto_725769f0","1","4","3","99","2539.7846489","direct","1","1","1","¿Cuál Departamento tiene
 mayor superficie?","Río Negro","Soriano","","0","0","0","individual","left","1.98905992508","2541.77375603","3.01094007492","2544.94078994","3.57004189491","2548.51091194","2.42995810509","2550.99117994","2552.70468307","2552.74410009","2555.74655795","0","2555.76208687","2560.08797693",""
"sujeto_725769f0","1","4","4","100","2560.24716902","inverse","3","1","2","¿Cuál es el apellido de las 
hermanastras  de  cenicienta?","Tremaine","Truman","","0","0","1","individual","right","1.21485614777","2561.46209407","3.78514385223","2565.41876388","5.09539699554","2570.51422501","0.904603004456","2571.45473099","2573.32350492","2573.37065196","2576.37353492","0","2576.38977599","2579.08575702",""
"sujeto_725769f0","1","4","5","101","2579.24057889","direct","4","1","4","¿Cuál película ganó un
 Oscar a mejor película?","Alto Impacto","Cache","","0","0","1","competitive","left","0.962738990784","2580.20338202","4.03726100922","2584.39502788","4.64243602753","2589.03752804","1.35756397247","2590.43075895","2591.5501411","2591.63027906","2594.63328099","0","2594.65041804","2596.91502595",""
"sujeto_725769f0","1","4","6","102","2597.08099794","inverse","1","1","3","¿A cuántos centímetros
equivale la medida pié?","25","30","","0","0","1","competitive","left","1.79866886139","2598.87971306","3.20133113861","2602.25388908","4.41663599014","2606.67059398","1.58336400986","2608.29077291","2609.33052993","2609.40735102","2612.41030097","0","2612.42624402","2617.82721901",""
"sujeto_725769f0","1","4","7","103","2617.97565293","direct","2","1","2","¿Qué departamento es mas grande?","Cerro Largo","Paysandú","","0","0","0","individual","right","2.09930205345","2620.07501698","2.90069794655","2623.12999296","4.90004897118","2628.03008699","1.09995102882","2629.16671205","2630.76649904","2630.81679702","2633.81953597","0","2633.83759403","2637.94754004",""
"sujeto_725769f0","1","4","8","104","2638.08989","inverse","2","1","3","¿Quién pintó la Mona Lisa?","Picasso","Da Vinci","right","0","0","1","competitive","right","1.25936579704","2639.349334","3.74063420296","2643.24177289","3.90257310867","2647.14439702","2.09742689133","2649.29599094","2650.90153909","2650.97817588","2653.98109508","1","2653.99861002","2656.15906787",""
"sujeto_725769f0","1","4","9","105","2656.31322694","direct","4","1","3","¿Cuántos litros hay en un galon?","3.54","3.78","","1","1","1","competitive","left","1.18028187752","2657.4935739","3.81971812248","2661.46701097","3.2186999321","2664.68578005","2.7813000679","2667.51873589","2669.03657007","2669.12149906","2672.12352204","1","2672.14068389","2677.93299294",""
"sujeto_725769f0","1","4","10","106","2678.092484","inverse","4","1","1","¿Cuántas teclas tiene
 un piano moderno?","80","88","","0","0","1","individual","right","0.914901971817","2679.00750589","4.08509802818","2683.24603009","2.75600910187","2686.00208592","3.24399089813","2689.29773307","2690.30556989","2690.34892607","2693.351542","0","2693.36913109","2700.16655588",""
"sujeto_725769f0","1","4","11","107","2700.32166791","direct","4","1","3","¿Cuántos países hay en África?","54","62","","0","0","1","competitive","left","0.84961104393","2701.171345","4.15038895607","2705.474298","2.78104186058","2708.25538301","3.21895813942","2711.51211905","2713.20257187","2713.2787149","2716.2815311","0","2716.29742002","2724.10159802",""
"sujeto_725769f0","1","4","12","108","2724.24892092","inverse","1","1","3","¿En qué siglo se crearon
 las primeras pistolas?","XV","XIII","","1","1","1","competitive","","2.63769388199","2726.88666391","2.36230611801","2729.4031179","6","2735.40325403","0","2735.42360592","2737.37155509","2737.44319201","2740.44612694","0","2740.46042895","2743.69351792",""
"sujeto_725769f0","1","4","13","109","2743.84461188","direct","3","1","4","¿En qué año se estrenó 
la serie friends?","1994","1995","","0","0","1","competitive","right","1.34231901169","2745.18697309","3.65768098831","2749.01567006","2.90332603455","2751.91905904","3.09667396545","2755.06666398","2756.94196701","2757.02121186","2760.02354407","0","2760.03788304","2765.04354405",""
"sujeto_725769f0","1","4","14","110","2765.22291899","inverse","3","1","4","¿En qué año nació Hitler?","1889","1887","","0","0","1","competitive","right","2.48837804794","2767.711339","2.51162195206","2770.37635398","2.76601481438","2773.14244795","3.23398518562","2776.41288805","2777.52651596","2777.61394","2780.61652708","0","2780.63137507","2785.65837288",""
"sujeto_725769f0","1","4","15","111","2785.80206609","direct","1","1","4","¿Cuánto pesa un elefante Africano?","6000 kilos","5400 kilos","","0","0","0","competitive","left","0.785588026047","2786.58772492","4.21441197395","2790.96947408","4.96429204941","2795.93382907","1.03570795059","2797.00689387","2798.36253309","2798.43904901","2801.44058108","0","2801.45910406","2808.1655159",""
"sujeto_725769f0","1","4","16","112","2808.31414008","inverse","1","1","2","¿Qué porcentaje de 
la población es zurda?","10%","7%","","1","1","0","competitive","right","2.42183804512","2810.73604202","2.57816195488","2813.48048306","2.41153001785","2815.89205694","3.58846998215","2819.5206039","2820.76369405","2820.83626509","2823.8370111","1","2823.85492992","2829.834692",""
"sujeto_725769f0","1","4","17","113","2829.98982596","direct","1","1","2","¿En qué año se estrenó
Volver al futuro?","1984","1985","","0","0","1","competitive","right","1.21853685379","2831.20845699","3.78146314621","2835.15862393","3.88580298424","2839.04450202","2.11419701576","2841.21125388","2842.77306294","2842.84947205","2845.852386","0","2845.86627889","2852.95755386",""
"sujeto_725769f0","1","4","18","114","2853.103091","inverse","3","1","2","¿Cuántos jugadores hay en un 
equipo de baseball?","9","8","","1","1","0","competitive","left","2.43762779236","2855.54081988","2.56237220764","2858.25458694","4.22718095779","2862.48181105","1.77281904221","2864.29350901","2865.90753388","2866.00395703","2869.00653696","1","2869.01330709","2873.98950005",""
"sujeto_725769f0","1","4","19","115","2874.12997508","direct","2","1","1","¿Cuántos Oscar ganó
 la película titanic?","13","11","","1","1","1","individual","left","1.03395915031","2875.16400003","3.96604084969","2879.29960203","3.62076711655","2882.92045593","2.37923288345","2885.35314989","2886.65517497","2886.70272589","2889.70555496","1","2889.72290206","2894.32566905",""
"sujeto_725769f0","1","4","20","116","2894.50955105","inverse","4","1","4","¿En qué año comenzó
la segunda guerra mundial?","1939","1976","left","0","0","1","competitive","left","0.922806978226","2895.43240595","4.07719302177","2899.67746902","3.6519370079","2903.32949996","2.3480629921","2905.72953987","2907.52938104","2907.61451697","2910.61747289","1","2910.63433504","2914.62147903",""
"sujeto_725769f0","1","4","21","117","2914.78443408","direct","2","1","4","¿Cuántos biomas hay en Uruguay?","5","4","","0","0","1","competitive","left","0.887325048447","2915.67183399","4.11267495155","2919.93747687","2.88827085495","2922.82579088","3.11172914505","2925.99067187","2927.78798389","2927.87736106","2930.87952995","0","2930.89360595","2937.14297795",""
"sujeto_725769f0","1","4","22","118","2937.27975702","inverse","2","1","3","¿Cuándo murió Pablo Escobar?","1993","1997","","1","1","1","competitive","right","1.32927680016","2938.60910106","3.67072319984","2942.4334631","2.97763895988","2945.411165","3.02236104012","2948.47154403","2950.25355792","2950.33765006","2953.34052396","1","2953.35715103","2959.06053805",""
"sujeto_725769f0","1","4","23","119","2959.20823097","direct","1","1","4","¿Qué serie ha ganado mas premios?","Friends","Murphy Brown","","1","1","0","competitive","left","0.757102966309","2959.96539998","4.24289703369","2964.37810993","3.67438793182","2968.05256391","2.32561206818","2970.43120909","2971.78354692","2971.864815","2974.86751294","1","2974.88467789","2980.44631791",""
"sujeto_725769f0","1","4","24","120","2980.63470387","inverse","4","1","2","¿Cuántas fichas tiene el dominó?","26","28","","1","1","1","individual","right","1.51599693298","2982.15077209","3.48400306702","2985.80597496","2.85978484154","2988.66582394","3.14021515846","2991.84411788","2992.89936209","2992.94291687","2995.94555306","1","2995.96252489","3001.20563293",""
"sujeto_725769f0","1","4","25","121","3001.34721088","direct","2","1","4","¿Cuántos son los dientes de leche?","20","25","","0","0","1","competitive","right","0.719204902649","3002.06648993","4.28079509735","3006.51616406","3.07795000076","3009.59418201","2.92204999924","3012.55461097","3014.26455688","3014.35650492","3017.35945892","0","3017.37409687","3019.51978207",""
"sujeto_725769f0","1","4","26","122","3019.69087195","inverse","3","1","3","¿Cuántos gramos son una onza?","22","28","","0","0","1","competitive","left","2.24341583252","3021.93435502","2.75658416748","3024.84461308","3.81479215622","3028.65958309","2.18520784378","3030.88062501","3032.87550592","3032.95075798","3035.9537549","0","3035.96703386","3042.25730395",""
"sujeto_725769f0","1","4","27","123","3042.40268898","direct","3","1","1","¿Cuándo salió el primer album
 de los Beatles?","1963","1962","","1","1","1","individual","right","1.45503997803","3043.85777497","3.54496002197","3047.55662394","3.7471549511","3051.30384994","2.2528450489","3053.59209895","3054.75570107","3054.79420304","3057.79653597","1","3057.81233406","3061.58357787",""
"sujeto_725769f0","1","4","28","124","3061.73174787","inverse","3","1","3","¿Quién fundó la empresa apple?","Carlos Slim","Steve Jobs","","1","1","1","competitive","right","2.37317013741","3064.10495305","2.62682986259","3066.90023208","2.86385512352","3069.76414895","3.13614487648","3072.95389891","3074.06880188","3074.15496588","3077.15790701","1","3077.17113709","3083.46903491",""
"sujeto_725769f0","1","4","29","125","3083.62348104","direct","4","1","2","¿Cuántos municipios hay
 en Montevideo?","8","7","","1","1","1","individual","left","1.00880718231","3084.63233495","3.99119281769","3088.77836204","2.84505701065","3091.62351298","3.15494298935","3094.81427407","3096.72852802","3096.78196192","3099.78454208","1","3099.80170608","3101.88257599",""
"sujeto_725769f0","1","4","30","126","3102.03589106","inverse","1","1","1","¿Cuántos kilómetros hay
 de Montevideo a Artigas?","632","599","","0","0","0","individual","left","0.881755113602","3102.91769004","4.1182448864","3107.20430803","4.7513999939","3111.95575309","1.2486000061","3113.25766706","3114.74052906","3114.79032707","3117.79256606","0","3117.81070709","3123.86275792",""
"sujeto_725769f0","1","4","31","127","3124.01289296","direct","2","1","2","¿En qué año nació 
Leonardo Da Vinci?","1452","1511","","1","1","0","competitive","left","2.19856595993","3126.21153688","2.80143404007","3129.18194008","4.83617711067","3134.01817989","1.16382288933","3135.22060895","3137.07355404","3137.15420008","3140.15651107","1","3140.17213106","3143.31855989",""
"sujeto_725769f0","1","4","32","128","3143.47176003","inverse","3","1","1","¿A qué continente
 pertenece el país Gabón?","Africa","Oceanía","","0","0","1","competitive","right","2.36054205894","3145.83236599","2.63945794106","3148.62707591","4.07030296326","3152.69742107","1.92969703674","3154.6784699","3156.49011087","3156.58123994","3159.58355808","0","3159.59920597","3164.83652806",""
