"code","nro_aplicante","nro_bloque","nro_trial_bloque","nro_trial_global","show_game_type","choice_order","rival","pay_individual","pay_competitive","question","answer_left_text","answer_right_text","correct_answer","outcome_individual","outcome_competitive","outcome_rival","game_type","answer","social_time","rt_game_type","feedback_delay","show_question","answer_time","rt_answer_global","feedback_delay_2","show_jitter","jitter_time","show_outcome","outcome_time","outcome_participant_real","show_final_jitter","second_jitter_time","inicio_descanso"
"sujeto_9d0bd287","1","1","1","1","814.505458832","direct","3","1","4","¿Cuántos centímetros corresponden
al talle 36 del calzado?","23","24","","0","0","1","competitive","left","1.9629740715","816.468495846","3.0370259285","819.692965984","3.15747213364","822.850498915","2.84252786636","825.746747017","826.775053024","826.846756935","829.84969306","0","829.864676952","832.026933908",""
"sujeto_9d0bd287","1","1","2","2","832.183056831","inverse","3","1","2","¿Cuántas metros mide la Intendencia
Municipal de Montevideo? ","84","78","","0","0","1","competitive","left","1.70858597755","833.891708851","3.29141402245","837.338253975","4.0224480629","841.360762835","1.9775519371","843.389448881","845.267519951","845.357149839","848.360136986","0","848.374420881","850.467190027",""
"sujeto_9d0bd287","1","1","3","3","850.60944891","direct","1","1","3","¿Cuántas La Pasiva
 hay en uruguay?","15","11","","1","1","1","competitive","left","1.70535588264","852.314890862","3.29464411736","855.764843941","2.81805300713","858.582957983","3.18194699287","861.814050913","863.425752878","863.499626875","866.502608061","1","866.517035007","870.795353889",""
"sujeto_9d0bd287","1","1","4","4","870.935606003","inverse","3","1","3","¿De que color es la camiseta de uruguay?","blanca","celeste","right","1","1","1","competitive","right","1.70345711708","872.639103889","3.29654288292","876.091594934","2.87949490547","878.971129894","3.12050509453","882.125011921","883.329790831","883.40948391","886.41246295","1","886.427064896","889.881015062",""
"sujeto_9d0bd287","1","1","5","5","890.028452873","direct","2","1","1","¿Cuánto metros mide
la torre Eiffel?","333","324","","1","1","1","competitive","right","1.50179195404","891.530288935","3.49820804596","895.200974941","2.17532086372","897.376353979","3.82467913628","901.251070976","902.772469997","902.853060007","905.856065035","1","905.870316982","912.906973839",""
"sujeto_9d0bd287","1","1","6","6","913.056881905","inverse","3","1","4","¿Cuantas ciudades existen
 en todo el uruguay?","63","72","","0","0","1","competitive","right","1.98559403419","915.042521","3.01440596581","918.211273909","3.46531391144","921.676645994","2.53468608856","924.248235941","925.303071976","925.382310867","928.385301828","0","928.39952898","936.026094913",""
"sujeto_9d0bd287","1","1","7","7","936.168107986","direct","1","1","1","¿Cuantos estados tiene África?","52","54","","1","1","0","competitive","left","1.41260719299","937.580754995","3.58739280701","941.324401855","3.40735983849","944.731797934","2.59264016151","947.375095844","949.239089966","949.326593876","952.328951836","1","952.343611002","958.104676008",""
"sujeto_9d0bd287","1","1","8","8","958.277848959","inverse","4","1","4","¿En qué año nació
 Stephen Hawking?","1952","1942","","0","0","1","competitive","right","1.64212203026","959.920011044","3.35787796974","963.437039852","4.60707497597","968.044175863","1.39292502403","969.489457846","970.933779955","971.006069899","974.009014845","0","974.023676872","980.123034",""
"sujeto_9d0bd287","1","1","9","9","980.275080919","direct","2","1","3","¿Cuánto años tenía Artigas
 cuando se fue a Paraguay?","56","57","","1","1","1","competitive","left","1.01117300987","981.286319971","3.98882699013","985.432647943","4.47158098221","989.904271841","1.52841901779","991.483757973","993.033254862","993.117473841","996.120489836","1","996.134996891","1002.18229103",""
"sujeto_9d0bd287","1","1","10","10","1002.33636093","inverse","1","1","2","¿Cuantos milímetros 
mide una hoja A2?","420x592","420x594","","0","0","1","competitive","right","1.17713809013","1003.51356387","3.82286190987","1007.49490404","3.28060698509","1010.77557206","2.71939301491","1013.54545784","1015.11387992","1015.19573283","1018.19777799","0","1018.21419406","1025.28785086",""
"sujeto_9d0bd287","1","1","11","11","1025.43174195","direct","3","1","3","¿Cuál es la menor temperatura 
registrada en Uruguay?","-5.4","-7.4","","0","0","1","competitive","right","1.13599491119","1026.56780291","3.86400508881","1030.60113096","5.04757785797","1035.64877486","0.952422142029","1036.65391302","1038.33595991","1038.42116499","1041.42415595","0","1041.43868995","1045.17199802",""
"sujeto_9d0bd287","1","1","12","12","1045.32431483","inverse","2","1","2","¿Cuantos años hace que 
se fundó facebook?","18","17","","0","0","0","competitive","left","1.31162309647","1046.63598204","3.68837690353","1050.48270106","3.23328900337","1053.71605492","2.76671099663","1056.53408599","1057.90681291","1057.98507285","1060.9880619","0","1061.00276589","1063.77741599",""
"sujeto_9d0bd287","1","1","13","13","1063.92086196","direct","1","1","4","¿Cuál animal es más
 pesado en promedio?","Rinoceronte","Hipopotamo","","0","0","0","competitive","right","0.944179058075","1064.86508489","4.05582094193","1069.07580304","5.02334213257","1074.09921503","0.976657867432","1075.16103196","1076.24027205","1076.32803702","1079.33105397","0","1079.34538198","1083.18634892",""
"sujeto_9d0bd287","1","1","14","14","1083.32994604","inverse","1","1","2","¿Qué personaje de dragon ball 
murió más veces?","Chaoz","Krillin","","1","1","0","competitive","right","1.26634001732","1084.596349","3.73365998268","1088.48614597","3.31619310379","1091.80239701","2.68380689621","1094.53487492","1095.99265385","1096.07031798","1099.07326484","1","1099.08693504","1106.85985398",""
"sujeto_9d0bd287","1","1","15","15","1107.00570583","direct","3","1","2","La universidad de oxford. 
existe desde:","1096","1249","","1","1","0","competitive","left","1.84484696388","1108.85061884","3.15515303612","1112.18115401","4.25651502609","1116.43772697","1.74348497391","1118.23394394","1119.28276992","1119.36743498","1122.37045598","1","1122.38520789","1129.07604194",""
"sujeto_9d0bd287","1","1","16","16","1129.20317793","inverse","3","1","1","¿Qué escritor latino ganó antes
 el premio nobel?"," García Marquez","Neruda","","0","0","1","competitive","left","1.19959187508","1130.40284896","3.80040812492","1134.36061096","3.23126196861","1137.59191585","2.76873803139","1140.41104388","1142.15096092","1142.22932291","1145.23231292","0","1145.24685287","1148.70738387",""
"sujeto_9d0bd287","1","1","17","17","1148.84809303","direct","4","1","3","¿Cuántos dientes tiene un
 tiburón blanco?","6000","3000","","0","0","1","competitive","right","1.27986907959","1150.12802601","3.72013092041","1154.02083397","3.23217892647","1157.25307083","2.76782107353","1160.07163286","1161.11065793","1161.18962884","1164.19260883","0","1164.20688391","1169.01655984",""
"sujeto_9d0bd287","1","1","18","18","1169.15854502","inverse","4","1","1","¿Cuánto mide el paralelo Ecuador?","40.000km","70.000km","","0","0","1","competitive","right","4.07764387131","1173.23625302","0.922356128693","1174.31443191","3.38784098625","1177.70233202","2.61215901375","1180.36578202","1182.32192898","1182.40078402","1185.4037919","0","1185.41811085","1189.02068591",""
"sujeto_9d0bd287","1","1","19","19","1189.16919398","direct","4","1","2","¿Cuál fue el primer libro 
de Stephen King?","Carrie","The Stand","","1","1","1","competitive","left","1.32317399979","1190.4924109","3.67682600021","1194.32448697","2.97297596931","1197.29752398","3.02702403069","1200.37125492","1202.11532903","1202.19001698","1205.19299698","1","1205.20775795","1209.682199",""
"sujeto_9d0bd287","1","1","20","20","1209.80896187","inverse","2","1","3","¿Qué civilización practicaba
 la momificación?","Grecia","Egipto","right","0","0","1","competitive","right","1.6296608448","1211.43866587","3.3703391552","1214.96969604","3.18697214127","1218.15672588","2.81302785873","1221.01980305","1222.959126","1223.03871799","1226.04167485","1","1226.05514002","1230.28394103",""
"sujeto_9d0bd287","1","1","21","21","1230.42409492","direct","4","1","4","¿Cuántos millones de visitas
 recibe google por minuto?","3.0","4.5","","0","0","1","competitive","right","1.32984399796","1231.75400901","3.67015600204","1235.57969189","4.03714489937","1239.61689401","1.96285510063","1241.63108683","1243.14594388","1243.23164988","1246.23467398","0","1246.24992085","1253.37261295",""
"sujeto_9d0bd287","1","1","22","22","1253.51754093","inverse","1","1","3","La máquina de fax. se inventó en:","1843","1960","","0","0","1","competitive","left","1.00651097298","1254.52409887","3.99348902702","1258.65633488","3.69582605362","1262.35222197","2.30417394638","1264.69166493","1265.93377805","1266.00925994","1269.01226187","0","1269.02667189","1272.26298904",""
"sujeto_9d0bd287","1","1","23","23","1272.41213894","direct","2","1","4","En la verdadera historia de los
 300 espartanos. habían:","300 soldados","4300 soldados","","1","1","1","competitive","right","0.914155006409","1273.32634306","4.08584499359","1277.56828403","5.86205601692","1283.43039989","0.137943983078","1283.62051296","1284.88171887","1284.954","1287.9570179","1","1287.97170687","1291.77344203",""
"sujeto_9d0bd287","1","1","24","24","1291.92390203","inverse","1","1","4","¿Cuántos milímetros crece
 el pelo por día?","0.4","0.04","","0","0","0","competitive","right","0.989570140839","1292.9135139","4.01042985916","1297.07837796","4.69616317749","1301.77458096","1.30383682251","1303.11385489","1304.87456083","1304.94715405","1307.95016098","0","1307.9657259","1314.70083785",""
"sujeto_9d0bd287","1","1","25","25","1314.85021806","direct","4","1","1","¿Cuánto mide la baldosa gris 
clásica de Montevideo?","22x22 cm.","20x20 cm.","","1","1","1","competitive","left","1.46251702309","1316.31279993","3.53748297691","1320.00726604","3.79454398155","1323.8018949","2.20545601845","1326.05788803","1328.05316091","1328.12631798","1331.12932301","1","1331.14377785","1336.68660188",""
"sujeto_9d0bd287","1","1","26","26","1336.82933187","inverse","2","1","2","¿Cuántas películas de rápidos
 y furiosos hay?","10","11","","1","1","0","competitive","left","1.51362705231","1338.34302902","3.48637294769","1341.984483","2.947483778","1344.93200493","3.052516222","1348.03531694","1349.39334202","1349.47021103","1352.47320604","1","1352.48790693","1354.52188087",""
"sujeto_9d0bd287","1","1","27","27","1354.67251992","direct","3","1","1","¿Cuántos masters 1000
 ganó Del Potro?","1","2","","1","1","1","competitive","left","1.19464683533","1355.86724305","3.80535316467","1359.82898593","4.61620497704","1364.44523096","1.38379502296","1365.87952685","1367.63411999","1367.71423793","1370.71719098","1","1370.73187399","1378.12820387",""
"sujeto_9d0bd287","1","1","28","28","1378.28323889","inverse","2","1","4","¿Cuántos meses dura el 
embarazo de una leona?","3 meses","4 meses","","0","0","1","competitive","right","1.09814095497","1379.38142204","3.90185904503","1383.44112992","3.28030705452","1386.72146893","2.71969294548","1389.49188399","1390.60296202","1390.67660189","1393.67957306","0","1393.694067","1400.41654992",""
"sujeto_9d0bd287","1","1","29","29","1400.56237102","direct","1","1","1","¿En qué año fue creado
 el sandwich?","1762","1653","","1","1","0","competitive","left","1.10325503349","1401.66567588","3.89674496651","1405.73665786","3.37805008888","1409.11477399","2.62194991112","1411.78701806","1413.38557291","1413.47142792","1416.47443199","1","1416.48874903","1419.95939898",""
"sujeto_9d0bd287","1","1","30","30","1420.10710788","inverse","4","1","2","El nombre de la moneda de Vietnam es:","Dinar","Dong","","0","0","1","competitive","right","1.00369381905","1421.11086106","3.99630618095","1425.29460788","3.36732506752","1428.66197491","2.63267493248","1431.34580088","1432.77783704","1432.86359191","1435.86658788","0","1435.88131595","1442.04976392",""
"sujeto_9d0bd287","1","1","31","31","1442.19951797","direct","2","1","1","¿cuantos aleteos puede dar 
un colibrí por segundo?","120","50","","0","0","0","competitive","left","2.09655499458","1444.29614496","2.90344500542","1447.37400198","3.33213305473","1450.70620084","2.66786694527","1453.42599106","1455.15839291","1455.24398303","1458.24699783","0","1458.26142001","1462.47369885",""
"sujeto_9d0bd287","1","1","32","32","1462.61348104","inverse","4","1","3","¿Qué altura promedio tienen
 los hombres uruguayos?","1.73 m","1.72 m","","1","1","1","competitive","right","0.888782024384","1463.50230598","4.11121797562","1467.78550291","3.19083595276","1470.97638106","2.80916404724","1473.83565998","1475.09810305","1475.17085791","1478.17385793","1","1478.18831897","1482.66424894",""
"sujeto_9d0bd287","1","2","1","33","1616.073107","direct","1","1","1","¿En qué año nació 
el actor Bradd Pitt?","1967","1963","","1","1","1","competitive","left","1.2662050724","1617.33935785","3.7337949276","1621.23125505","4.25602912903","1625.48735094","1.74397087097","1627.28222585","1628.37810087","1628.449301","1631.45228601","1","1631.46700501","1637.39461088","1482.67955804"
"sujeto_9d0bd287","1","2","2","34","1637.53477693","inverse","2","1","1","¿Cual es el segundo 
monte más alto?","Kanchenjunga","K2","","1","1","1","competitive","left","0.936414003372","1638.47123289","4.06358599663","1642.69164491","3.89052391052","1646.5822289","2.10947608948","1648.74277902","1650.19519401","1650.27785587","1653.28084803","1","1653.2945509","1656.72444391",""
"sujeto_9d0bd287","1","2","3","35","1656.87957597","direct","3","1","1","¿Cuándo finalizó la construcción
 del Palacio Legislativo?","1925","1917","","0","0","1","competitive","left","1.07075881958","1657.95040989","3.92924118042","1662.0512619","4.52384996414","1666.57516789","1.47615003586","1668.08561087","1669.72731996","1669.80344987","1672.80644798","0","1672.82080197","1678.51837397",""
"sujeto_9d0bd287","1","2","4","36","1678.65768695","inverse","3","1","3","¿Cuántos integrantes tenía
 en su inicio  el cuarteto de nos?","3","4","","1","1","1","competitive","right","1.86339092255","1680.52114296","3.13660907745","1683.84469104","4.48835206032","1688.33310795","1.51164793968","1689.89661884","1691.02974892","1691.11468697","1694.11768293","1","1694.13194299","1699.7817719",""
"sujeto_9d0bd287","1","2","5","37","1699.93295789","direct","2","1","3","¿Qué valor tiene el número pi?","3.14","4.18","left","0","0","1","individual","left","1.25103497505","1701.18403602","3.74896502495","1705.10718989","1.59777903557","1706.70502496","4.40222096443","1711.15692806","1712.61115003","1712.65950203","1715.66248584","1","1715.67607093","1722.59705687",""
"sujeto_9d0bd287","1","2","6","38","1722.74433184","inverse","2","1","2","¿Cuál es la esperanza de vida
 en Uruguay?","75","77","","1","1","0","competitive","left","1.56354904175","1724.30792403","3.43645095825","1727.90189385","2.27501797676","1730.17695093","3.72498202324","1733.95192504","1735.60570598","1735.68770885","1738.69070506","1","1738.70383596","1745.166857",""
"sujeto_9d0bd287","1","2","7","39","1745.32132983","direct","1","1","2","¿Cuantos pisos tiene la torre 
de las comunicaciones?","26","32","","1","1","0","competitive","left","1.15659093857","1746.4779799","3.84340906143","1750.47974896","4.61110591888","1755.09093285","1.38889408112","1756.51484799","1758.34292197","1758.41500187","1761.41791391","1","1761.43325686","1763.57950592",""
"sujeto_9d0bd287","1","2","8","40","1763.71858788","inverse","2","1","4","¿En qué país sudamericano 
no hay McDonalds?","Bolivia","Venezuela","","0","0","1","competitive","left","1.42925190926","1765.14789701","3.57074809074","1768.88957405","3.42719507217","1772.31683588","2.57280492783","1774.939713","1776.2491169","1776.32440686","1779.32740593","0","1779.34175086","1785.70150685",""
"sujeto_9d0bd287","1","2","9","41","1785.85997796","direct","3","1","1","¿En qué año empieza
 la Edad Media?","476","512","","1","1","1","competitive","right","1.21579384804","1787.07581496","3.78420615196","1791.03421092","2.29351496696","1793.32776594","3.70648503304","1797.06885004","1798.47189498","1798.55308795","1801.55602193","1","1801.57058597","1804.55914998",""
"sujeto_9d0bd287","1","2","10","42","1804.70519495","inverse","3","1","4","¿Hace cuántos años surgió
 el ser humano?","200mil","300mil","","0","0","0","competitive","right","1.01956319809","1805.72484303","3.98043680191","1809.87792683","4.42474102974","1814.30270886","1.57525897026","1815.9116869","1817.79773903","1817.879668","1820.88262987","0","1820.89734602","1824.20786095",""
"sujeto_9d0bd287","1","2","11","43","1824.34822702","direct","3","1","4","¿Cuántas cuadras tiene
 actualmente 18 de julio? ","36","33","","0","0","1","competitive","left","1.73594498634","1826.08423591","3.26405501366","1829.52077198","4.10583519936","1833.62666988","1.89416480064","1835.57140803","1837.273669","1837.35595989","1840.35894299","0","1840.37322092","1845.09950995",""
"sujeto_9d0bd287","1","2","12","44","1845.24117494","inverse","1","1","4","¿Qué juego de equipo se 
considera mas rápido?","Lacrosse","Badminton","","0","0","0","competitive","left","0.874773025513","1846.11599588","4.12522697449","1850.39650202","4.31118297577","1854.70774889","1.68881702423","1856.44667387","1857.6897819","1857.76343894","1860.76643896","0","1860.78111005","1868.77627587",""
"sujeto_9d0bd287","1","2","13","45","1868.91542101","direct","1","1","3","¿Qué promedio de edad 
vive una jirafa? ","25","20","","0","0","1","competitive","left","1.41630196571","1870.33176494","3.58369803429","1874.07703185","4.23465204239","1878.31174493","1.76534795761","1880.12818503","1881.88970995","1881.96169806","1884.96467185","0","1884.97945595","1890.9351809",""
"sujeto_9d0bd287","1","2","14","46","1891.09832883","inverse","1","1","2","¿Cuántos grandes lagos hay?","7","5","","0","0","1","competitive","right","1.14842104912","1892.24684","3.85157895088","1896.27225304","3.20846104622","1899.48075986","2.79153895378","1902.32274604","1903.61396599","1903.69003296","1906.69298196","0","1906.70754695","1914.52894497",""
"sujeto_9d0bd287","1","2","15","47","1914.67583895","direct","3","1","2","¿Cuántos discos de estudio
 grabó Johhny Cash? ","54","43","","1","1","0","competitive","right","1.54183888435","1916.21772003","3.45816111565","1919.83355904","3.80903315544","1923.6426549","2.19096684456","1925.86749506","1927.14614105","1927.21968794","1930.22265291","1","1930.23697591","1936.88790083",""
"sujeto_9d0bd287","1","2","16","48","1937.03789306","inverse","4","1","1","¿Cuántos barrios tiene
 Montevideo? ","71","62","","0","0","1","competitive","right","1.08890008926","1938.126966","3.91109991074","1942.21241188","2.34325695038","1944.55571198","3.65674304962","1948.26222086","1949.26929688","1949.34704399","1952.35003304","0","1952.36425996","1957.82629991",""
"sujeto_9d0bd287","1","2","17","49","1957.966084","direct","3","1","3","¿Qué edad tiene Homero Simpson?","36","42","","0","0","1","competitive","left","1.18962597847","1959.15577197","3.81037402153","1963.13767099","3.38298916817","1966.52070093","2.61701083183","1969.18903184","1970.56507587","1970.63990688","1973.64289904","0","1973.65738988","1978.04614305",""
"sujeto_9d0bd287","1","2","18","50","1978.19149494","inverse","4","1","2","¿Cuántos países con monarquía 
hay en europa actualmente? ","6","10","","1","1","1","competitive","right","1.10525083542","1979.29680896","3.89474916458","1983.34958696","3.32014203072","1986.66978693","2.67985796928","1989.40026999","1990.83854795","1990.91826105","1993.91927195","1","1993.93608499","2000.09291387",""
"sujeto_9d0bd287","1","2","19","51","2000.23797297","direct","2","1","3","¿Cuántos capítulos de
 Friends existen? ","236","228","","1","1","1","competitive","left","1.51578521729","2001.75383687","3.48421478271","2005.39507985","3.16960406303","2008.564744","2.83039593697","2011.44514585","2012.75069904","2012.83009386","2015.83308601","1","2015.847471","2018.22312284",""
"sujeto_9d0bd287","1","2","20","52","2018.36552","inverse","1","1","3","¿Cuántas óperas compuso Mozart? ","27","22","","1","1","1","competitive","right","1.23725414276","2019.60286689","3.76274585724","2023.51620197","3.34354519844","2026.85980606","2.65645480156","2029.55207491","2030.8442359","2030.91967487","2033.9226439","1","2033.93726993","2041.24872494",""
"sujeto_9d0bd287","1","2","21","53","2041.38970184","direct","4","1","3","¿Cuántos mundiales de fútbol 
femenino ha realizado FIFA? ","9","7","","1","1","1","competitive","left","2.00716400146","2043.39691591","2.99283599854","2046.56519985","3.00161290169","2049.56690502","2.99838709831","2052.61722898","2053.86089587","2053.93475294","2056.93769288","1","2056.95283294","2063.05531096",""
"sujeto_9d0bd287","1","2","22","54","2063.20394087","inverse","3","1","2","¿Cuál es la temperatura 
media anual en Montevideo? ","17.5","16.3","","0","0","1","competitive","right","1.11499810219","2064.31899095","3.88500189781","2068.36030602","3.87259197235","2072.23293996","2.12740802765","2074.41159797","2076.35019493","2076.42937803","2079.43239093","0","2079.44734502","2086.01684999",""
"sujeto_9d0bd287","1","2","23","55","2086.16507983","direct","2","1","2","¿En qué año se estrenó el
 videojuego The Sims? ","2000","2002","","0","0","0","competitive","right","1.0788769722","2087.24402285","3.9211230278","2091.3229959","2.88994789124","2094.21300292","3.11005210876","2097.37366986","2099.23572183","2099.30673099","2102.30974483","0","2102.32541895","2109.719033",""
"sujeto_9d0bd287","1","2","24","56","2109.85942888","inverse","2","1","1","¿Cuál es la canción con 
mas covers? ","Yesterday","Stand by me","","0","0","0","competitive","right","1.18552803993","2111.04501891","3.81447196007","2115.01721096","3.27384114265","2118.29111004","2.72615885735","2121.06879687","2122.46734905","2122.55264592","2125.55564284","0","2125.5709579","2129.74180889",""
"sujeto_9d0bd287","1","2","25","57","2129.90585184","direct","1","1","4","¿Cuánto duró la guerra
 de los 100 años?","116","123","","0","0","0","competitive","left","1.65417194366","2131.56008601","3.34582805634","2135.07744503","2.0076110363","2137.08511496","3.9923889637","2141.12704802","2142.60788202","2142.67859697","2145.68159294","0","2145.69636202","2148.01491904",""
"sujeto_9d0bd287","1","2","26","58","2148.16517687","inverse","4","1","4","¿Qué color tiene la  bandera de Brasil?","Amarillo","Naranja","left","0","0","1","competitive","left","1.06495904922","2149.23023391","3.93504095078","2153.33764291","2.52247095108","2155.86017299","3.47752904892","2159.38287091","2160.94940305","2161.01987505","2164.02285385","1","2164.03516889","2167.06794286",""
"sujeto_9d0bd287","1","2","27","59","2167.20429397","direct","4","1","3","¿Qué carabela de 
Colon no volvió del viaje?","Santa María","La pinta","","0","0","1","competitive","right","1.10834598541","2168.31271386","3.89165401459","2172.36383986","4.55728387833","2176.92116785","1.44271612167","2178.39903998","2179.89007497","2179.96603894","2182.96901393","0","2182.98333788","2185.08281302",""
"sujeto_9d0bd287","1","2","28","60","2185.21877384","inverse","4","1","4","¿Cuántos huesos tiene
 un adulto humano?","217","206","","0","0","1","competitive","right","1.15242290497","2186.37126493","3.84757709503","2190.38944292","2.05779981613","2192.44730902","3.94220018387","2196.43916202","2197.71018505","2197.79112005","2200.79408884","0","2200.80872893","2208.64644289",""
"sujeto_9d0bd287","1","2","29","61","2208.79332399","direct","1","1","1","¿Qué país africano fue 
fundado por esclavos?","Liberia","Chad","","0","0","0","competitive","left","1.86395001411","2210.65731788","3.13604998589","2214.00146985","4.26485395432","2218.26636696","1.73514604568","2220.05053997","2222.04216695","2222.11718702","2225.1201539","0","2225.13507795","2233.12594199",""
"sujeto_9d0bd287","1","2","30","62","2233.28680301","inverse","4","1","2","¿A cuánto asciende la cima
 del monte Everest?","7.990 mts","8.848 mts","","0","0","1","competitive","right","1.46356296539","2234.75042701","3.53643703461","2238.44894791","3.52239990234","2241.97140598","2.47760009766","2244.49896884","2245.68385196","2245.76687288","2248.76986885","0","2248.78463697","2255.96863985",""
"sujeto_9d0bd287","1","2","31","63","2256.11951303","direct","4","1","1","¿Cuál es el país mas chico?","Sealand","Luxemburgo","","1","1","1","competitive","right","1.16296315193","2257.28254199","3.83703684807","2261.27706289","3.12538194656","2264.40250397","2.87461805344","2267.32776785","2269.19131804","2269.27947903","2272.28242183","1","2272.29681492","2275.41912103",""
"sujeto_9d0bd287","1","2","32","64","2275.54871583","inverse","2","1","4","¿Cuántas pirámides hay en Egipto?","10000","11000","","1","1","1","competitive","left","2.16882491112","2277.71760392","2.83117508888","2280.70371985","2.9017469883","2283.60550404","3.0982530117","2286.75426698","2287.78785205","2287.87266588","2290.87491989","1","2290.89027691","2295.99938583",""
"sujeto_9d0bd287","1","3","1","65","2415.15518093","direct","2","1","2","¿Cuál es el quinto país con 
mas extensión?","Canadá","Brasil","","1","1","0","competitive","left","1.25494098663","2416.41018796","3.74505901337","2420.3049469","2.49713301659","2422.80211902","3.50286698341","2426.33959603","2427.67293","2427.75858402","2430.76155591","1","2430.77631593","2438.50270987","2296.01428485"
"sujeto_9d0bd287","1","3","2","66","2438.64405894","inverse","1","1","2","¿Qué rasgo facial no tiene
 la Mona Lisa?","Cejas","Pómulos","","0","0","1","competitive","left","1.1242389679","2439.76834202","3.8757610321","2443.805125","2.74214410782","2446.54731584","3.25785589218","2449.85584283","2451.60623193","2451.69013","2454.69312191","0","2454.70776606","2460.97912097",""
"sujeto_9d0bd287","1","3","3","67","2461.12715197","direct","4","1","3","¿Cuál es el país con 
mayor población?","Esados Unidos","China","right","0","0","1","competitive","right","1.03220105171","2462.15940094","3.96779894829","2466.31702089","2.9343919754","2469.25145102","3.0656080246","2472.36657786","2474.01258087","2474.08546996","2477.08845997","1","2477.10309291","2480.46756887",""
"sujeto_9d0bd287","1","3","4","68","2480.60415006","inverse","1","1","1","La palabra dinosaurio significa","Lagarto Terrible","Lagarto Dragón","","1","1","0","competitive","right","0.763391017914","2481.36761498","4.23660898209","2485.76027989","5.51818084717","2491.27852106","0.481819152832","2491.812181","2492.98252106","2493.06265283","2496.06564283","1","2496.0799129","2498.94175696",""
"sujeto_9d0bd287","1","3","5","69","2499.08100486","direct","2","1","3","¿Qué es el membrillero?","Arbol","Arbusto","","0","0","0","competitive","left","1.12855005264","2500.20959592","3.87144994736","2504.2481389","2.81647086143","2507.06466794","3.18352913857","2510.30088305","2512.25501585","2512.33547592","2515.33843493","0","2515.35309291","2521.81712699",""
"sujeto_9d0bd287","1","3","6","70","2521.954458","inverse","3","1","3","¿Alrededor de qué planeta orbita 
el satélite Europa?","Jupiter","Saturno","","1","1","1","competitive","right","1.52219104767","2523.47671604","3.47780895233","2527.11465597","4.29501485825","2531.40973902","1.70498514175","2533.16582489","2534.71061897","2534.78299594","2537.78599286","1","2537.80144596","2540.00660396",""
"sujeto_9d0bd287","1","3","7","71","2540.15315104","direct","3","1","1","¿Donde fue el mundial de 
fútbol de 1954?","Suiza","Suecia","","1","1","1","competitive","left","1.02170014381","2541.17493391","3.97829985619","2545.32418895","3.64757084846","2548.9718349","2.35242915154","2551.37520695","2552.62778497","2552.70990396","2555.71285796","1","2555.72746897","2559.63927794",""
"sujeto_9d0bd287","1","3","8","72","2559.77886391","inverse","1","1","4","¿Cuál de los 7 enanitos
no tenía barba?","Bashful","Mudito","","1","1","0","competitive","left","0.886976003647","2560.66591406","4.11302399635","2564.94923592","4.6606760025","2569.60995698","1.3393239975","2570.98590088","2572.56602788","2572.63645506","2575.63944292","1","2575.65377283","2580.58284688",""
"sujeto_9d0bd287","1","3","9","73","2580.72188687","direct","3","1","2","¿Cual red social es
mas utilizada mundialmente?","Instagram","Facebook","","1","1","0","competitive","left","0.933135986328","2581.65508795","4.06686401367","2585.89415097","2.35392212868","2588.24813485","3.64607787132","2591.94495487","2593.86093688","2593.94625902","2596.94892788","1","2596.96567392","2599.90018392",""
"sujeto_9d0bd287","1","3","10","74","2600.04970503","inverse","4","1","1","¿Cuándo se inició la copa
 América de fútbol?","1916","1923","","1","1","1","competitive","left","0.821364164352","2600.8711319","4.17863583565","2605.22246003","3.6206381321","2608.84315586","2.3793618679","2611.27267504","2613.17013383","2613.25760698","2616.26059604","1","2616.27531695","2618.93144894",""
"sujeto_9d0bd287","1","3","11","75","2619.07714605","direct","3","1","4","¿Cuántos presidentes de EEUU
han muerto asesinados?","3","4","","0","0","1","competitive","left","1.07605195045","2620.15323997","3.92394804955","2624.24883604","2.80645608902","2627.05533504","3.19354391098","2630.29924083","2631.78199697","2631.86783886","2634.87086391","0","2634.885288","2638.52939892",""
"sujeto_9d0bd287","1","3","12","76","2638.67051101","inverse","2","1","4","¿Cuántas veces participó EEUU
 en la copa América?","4","5","","0","0","1","competitive","right","0.879810094833","2639.55036497","4.12018990517","2643.84291601","3.62048006058","2647.46343994","2.37951993942","2649.89316988","2651.33726597","2651.41144204","2654.41441298","0","2654.42894387","2660.54614592",""
"sujeto_9d0bd287","1","3","13","77","2660.69708896","direct","4","1","1","¿Cuál de estos países 
no formaba la URSS?","Azeribayán","Afganistán","","0","0","1","competitive","right","1.93740677834","2662.63456583","3.06259322166","2665.86995506","3.40248203278","2669.27249694","2.59751796722","2671.92208695","2673.23518801","2673.32307196","2676.32607603","0","2676.34072685","2684.32287097",""
"sujeto_9d0bd287","1","3","14","78","2684.45850301","inverse","1","1","1","¿En qué año se inauguró
 el teatro Solís?","1867","1856","","0","0","0","competitive","left","0.905106067657","2685.36368203","4.09489393234","2689.61612701","3.65856909752","2693.27475786","2.34143090248","2695.64989686","2696.70622587","2696.78131104","2699.7843039","0","2699.7986939","2706.44649887",""
"sujeto_9d0bd287","1","3","15","79","2706.59967303","direct","1","1","4","¿A qué velocidad vuela 
el avión más rápido?","3529","3874","","0","0","0","competitive","right","1.0050470829","2707.60476685","3.9949529171","2711.77776098","3.68491911888","2715.46271992","2.31508088112","2717.82858396","2719.58408189","2719.66355395","2722.66655588","0","2722.680794","2724.79110384",""
"sujeto_9d0bd287","1","3","16","80","2724.93163085","inverse","3","1","4","¿De qué año es la primer 
película cinematográfica?","1897","1888","","0","0","0","competitive","left","0.904174089432","2725.83590889","4.09582591057","2730.10236096","4.49849677086","2734.60092688","1.50150322914","2736.15337586","2737.28596592","2737.37095284","2740.37392306","0","2740.38861895","2745.79700589",""
"sujeto_9d0bd287","1","3","17","81","2745.95692205","direct","2","1","3","¿Cuántos países 
tiene nuestro planeta?","191","194","","1","1","1","competitive","right","0.88304400444","2746.84001398","4.11695599556","2751.13104796","3.30090284348","2754.43199587","2.69909715652","2757.18111706","2758.53831887","2758.61532092","2761.61831188","1","2761.63295102","2764.87126493",""
"sujeto_9d0bd287","1","3","18","82","2765.0176959","inverse","2","1","2","¿Cuántos habitantes
 tiene Buenos Aires?","2.9000.000","3650000","","0","0","0","competitive","left","1.16841197014","2766.18616295","3.83158802986","2770.19156885","4.40154290199","2774.59317088","1.59845709801","2776.24254298","2777.63981485","2777.72663593","2780.72961593","0","2780.74395585","2786.573349",""
"sujeto_9d0bd287","1","3","19","83","2786.72887993","direct","2","1","1","¿Cuántos kilos forman una tonelada?","1000","1500","left","1","1","1","competitive","left","1.65831303596","2788.38725591","3.34168696404","2791.88598204","3.38521909714","2795.27124095","2.61478090286","2797.93711591","2799.82446504","2799.90529585","2802.908283","1","2802.92252183","2808.8799479",""
"sujeto_9d0bd287","1","3","20","84","2809.02348685","inverse","4","1","4","¿Cuántos estados tiene la 
República del Perú? ","24","23","","0","0","1","competitive","right","1.02582788467","2810.0493629","3.97417211533","2814.17910004","2.83629798889","2817.01543784","3.16370201111","2820.22740698","2821.24960685","2821.32892084","2824.330971","0","2824.34661889","2829.29194188",""
"sujeto_9d0bd287","1","3","21","85","2829.43084097","direct","3","1","3","¿En qué año nació Cristóbal Colón? ","1451","1447","","0","0","1","competitive","right","1.91663885117","2831.34754992","3.08336114883","2834.62398505","2.70755195618","2837.33157802","3.29244804382","2840.67568898","2842.5215559","2842.59329486","2845.59630585","0","2845.61212206","2849.84012604",""
"sujeto_9d0bd287","1","3","22","86","2849.99626899","inverse","4","1","4","¿Cuánto mide la 
Montaña Aconcagua? ","6234","6962","","0","0","1","competitive","left","1.9180431366","2851.91439891","3.0819568634","2855.18470287","3.4258980751","2858.61065888","2.5741019249","2861.22025585","2862.50956583","2862.58853197","2865.59149599","0","2865.6057179","2872.78940201",""
"sujeto_9d0bd287","1","3","23","87","2872.94022894","direct","2","1","4","¿Cuánto mide el punto
 más profundo del océano? ","12508","11003","","0","0","1","competitive","left","0.934533834457","2873.87480593","4.06546616554","2878.11356592","2.34819293022","2880.46179891","3.65180706978","2884.16487885","2885.41640592","2885.49968004","2888.50264788","0","2888.51693702","2892.723207",""
"sujeto_9d0bd287","1","3","24","88","2892.86827183","inverse","1","1","3","¿Cuántos álbumes ha publicado 
el cantante Jaime Roos? ","41","34","","0","0","1","competitive","right","1.71564412117","2894.58398104","3.28435587883","2898.04033184","2.71953892708","2900.75993204","3.28046107292","2904.09012294","2905.57995987","2905.65874505","2908.66174388","0","2908.67637491","2914.87254906",""
"sujeto_9d0bd287","1","3","25","89","2915.01115298","direct","4","1","3","¿En qué año nació el 
ex-presidente Jorge Battle? ","1921","1927","","1","1","1","competitive","right","1.0758562088","2916.08705091","3.9241437912","2920.16945291","3.5985519886","2923.76807284","2.4014480114","2926.22051406","2927.95123005","2928.03855705","2931.04153204","1","2931.05630898","2934.54236794",""
"sujeto_9d0bd287","1","3","26","90","2934.67400384","inverse","1","1","3","¿Cuántas presidencias 
constitucionales  hubo en Uruguay? ","41","42","","0","0","1","competitive","right","1.14011311531","2935.81415987","3.85988688469","2939.83005905","3.73309206963","2943.56319404","2.26690793037","2945.88100004","2947.08477187","2947.16538286","2950.16836095","0","2950.18259883","2955.96632791",""
"sujeto_9d0bd287","1","3","27","91","2956.11758399","direct","1","1","2","¿Quién escribió mas sinfonías?","Mozart","Haydn","","1","1","0","competitive","left","1.32970118523","2957.44733","3.67029881477","2961.28986192","2.39441585541","2963.68431687","3.60558414459","2967.32297993","2968.540447","2968.62487793","2971.62786198","1","2971.64220905","2975.39363098",""
"sujeto_9d0bd287","1","3","28","92","2975.54379988","inverse","4","1","2","¿En qué año nació Michael Jackson?","1958","1953","","1","1","1","competitive","right","0.78558588028","2976.32945395","4.21441411972","2980.71746802","2.5279519558","2983.24545884","3.4720480442","2986.75083184","2988.72908497","2988.80307484","2991.80595899","1","2991.82053685","2997.68280292",""
"sujeto_9d0bd287","1","3","29","93","2997.82428098","direct","3","1","2","¿En qué año entró en vigencia 
la ley antitabaco en Uruguay?","2005","2006","","1","1","1","competitive","right","1.01825594902","2998.84257984","3.98174405098","3002.99609685","2.9194419384","3005.91557693","3.0805580616","3009.04611206","3010.64088392","3010.71455002","3013.71746802","1","3013.73210192","3019.06611395",""
"sujeto_9d0bd287","1","3","30","94","3019.21741104","inverse","3","1","1","¿Cuándo se subió el 
primer video a youtube?","2004","2005","","0","0","1","competitive","left","0.865200042725","3020.08265686","4.13479995728","3024.39017797","3.98052716255","3028.37076306","2.01947283745","3030.44127798","3031.74691606","3031.82595301","3034.82890296","0","3034.84329987","3042.59888005",""
"sujeto_9d0bd287","1","3","31","95","3042.74472404","direct","2","1","1","¿Cuántos habitantes tiene India?","1200 millones","1300 millones","","0","0","0","competitive","left","0.978142976761","3043.72293186","4.02185702324","3047.90174198","2.74806308746","3050.64987493","3.25193691254","3053.95255589","3055.92219305","3056.005548","3059.00853705","0","3059.02305889","3065.07057691",""
"sujeto_9d0bd287","1","3","32","96","3065.22362185","inverse","4","1","2","¿A qué edad murió Bob Marley?","36","37","","0","0","1","competitive","right","0.854438066483","3066.07817197","4.14556193352","3070.39265299","3.55139803886","3073.94409585","2.44860196114","3076.44580984","3078.34369898","3078.43045092","3081.43344188","0","3081.4480989","3084.55058503",""
"sujeto_9d0bd287","1","4","1","97","3210.38929105","direct","2","1","1","¿Cuantos años dirigió la selección 
uruguaya Tabarez?","15 años","13 años","","0","0","0","competitive","left","1.24369597435","3211.63305402","3.75630402565","3215.53864694","4.50736999512","3220.04605985","1.49263000488","3221.57475686","3222.76588488","3222.84199786","3225.84494185","0","3225.85928583","3232.93133402","3084.56662989"
"sujeto_9d0bd287","1","4","2","98","3233.07778406","inverse","4","1","1","¿Cuantas teclas tiene un teclado 
de computadora generalmente? ","Entre 99 y 108","Entre 109 y 113","","1","1","1","competitive","left","0.895348072052","3233.97318101","4.10465192795","3238.23025489","5.07485485077","3243.30517101","0.925145149231","3244.266541","3245.26927495","3245.35053587","3248.35350204","1","3248.36830783","3250.739748",""
"sujeto_9d0bd287","1","4","3","99","3250.88588905","direct","1","1","1","¿Cuál Departamento tiene
 mayor superficie?","Río Negro","Soriano","","0","0","0","competitive","left","1.03839302063","3251.92431188","3.96160697937","3256.07624793","3.73900580406","3259.81531906","2.26099419594","3262.12756205","3263.84105492","3263.92875004","3266.93174791","0","3266.94625902","3271.272331",""
"sujeto_9d0bd287","1","4","4","100","3271.4146719","inverse","3","1","2","¿Cuál es el apellido de las 
hermanastras  de  cenicienta?","Tremaine","Truman","","0","0","1","competitive","left","1.19570493698","3272.61044383","3.80429506302","3276.57188606","5.01755094528","3281.589504","0.982449054718","3282.62326193","3284.49191093","3284.5742619","3287.57726884","0","3287.59156799","3290.28753495",""
"sujeto_9d0bd287","1","4","5","101","3290.42702794","direct","4","1","4","¿Cuál película ganó un
 Oscar a mejor película?","Alto Impacto","Cache","","0","0","1","competitive","left","0.673524856567","3291.10062194","4.32647514343","3295.58056283","4.32103800774","3299.90165997","1.67896199226","3301.62893796","3302.74833989","3302.82954097","3305.83248806","0","3305.84709501","3308.11173105",""
"sujeto_9d0bd287","1","4","6","102","3308.24885702","inverse","1","1","3","¿A cuántos centímetros
equivale la medida pié?","25","30","","0","0","1","competitive","left","1.04480814934","3309.29371285","3.95519185066","3313.42480683","4.04190301895","3317.46675491","1.95809698105","3319.45900798","3320.49893785","3320.57622385","3323.57920885","0","3323.59328389","3328.99426198",""
"sujeto_9d0bd287","1","4","7","103","3329.14487886","direct","2","1","2","¿Qué departamento es mas grande?","Cerro Largo","Paysandú","","0","0","0","competitive","left","1.25988006592","3330.40484095","3.74011993408","3334.30201888","4.44175195694","3338.74380994","1.55824804306","3340.33618999","3341.93591595","3342.020751","3345.02367687","0","3345.03792596","3349.14787102",""
"sujeto_9d0bd287","1","4","8","104","3349.30637884","inverse","2","1","3","¿Quién pintó la Mona Lisa?","Picasso","Da Vinci","right","0","0","1","competitive","right","0.889260053635","3350.1957469","4.11073994637","3354.47481084","2.37217593193","3356.84702992","3.62782406807","3360.52572489","3362.13159585","3362.21004891","3365.2129879","1","3365.22767091","3367.39000893",""
"sujeto_9d0bd287","1","4","9","105","3367.54574585","direct","4","1","3","¿Cuántos litros hay en un galon?","3.54","3.78","","1","1","1","competitive","left","0.919257879257","3368.465065","4.08074212074","3372.72199297","2.86606884003","3375.58810091","3.13393115997","3378.77207088","3380.28994894","3380.37380791","3383.37685204","1","3383.39145684","3389.183815",""
"sujeto_9d0bd287","1","4","10","106","3389.5264349","inverse","4","1","1","¿Cuántas teclas tiene
 un piano moderno?","80","88","","0","0","1","competitive","right","0.979728937149","3390.50620794","4.02027106285","3394.68345404","4.45075011253","3399.13424492","1.54924988747","3400.73429084","3401.74277306","3401.81886601","3404.82186985","0","3404.836128","3411.63391495",""
"sujeto_9d0bd287","1","4","11","107","3411.77111006","direct","4","1","3","¿Cuántos países hay en África?","54","62","","0","0","1","competitive","left","0.881317138672","3412.65249801","4.11868286133","3416.92810988","4.09826898575","3421.02644396","1.90173101425","3422.97971797","3424.67023993","3424.74774289","3427.7507329","0","3427.76500392","3435.56976986",""
"sujeto_9d0bd287","1","4","12","108","3435.71620989","inverse","1","1","3","¿En qué siglo se crearon
 las primeras pistolas?","XV","XIII","","1","1","1","competitive","left","0.890420913696","3436.60667992","4.1095790863","3440.88629484","5.37423205376","3446.26058292","0.625767946243","3446.92313004","3448.87105298","3448.9569869","3451.95998192","1","3451.97477484","3455.20788383",""
"sujeto_9d0bd287","1","4","13","109","3455.35879683","direct","3","1","4","¿En qué año se estrenó 
la serie friends?","1994","1995","","0","0","1","competitive","right","0.921875953674","3456.28073597","4.07812404633","3460.51795387","2.95367598534","3463.47166705","3.04632401466","3466.56803703","3468.44338799","3468.52008295","3471.52307487","0","3471.53771591","3476.54375887",""
"sujeto_9d0bd287","1","4","14","110","3476.691118","inverse","3","1","4","¿En qué año nació Hitler?","1889","1887","","0","0","1","competitive","left","1.12068200111","3477.81187797","3.87931799889","3481.86273003","2.94318914413","3484.80595684","3.05681085587","3487.91307592","3489.02746391","3489.0972569","3492.10022902","0","3492.11461186","3497.14163494",""
"sujeto_9d0bd287","1","4","15","111","3497.28315687","direct","1","1","4","¿Cuánto pesa un elefante Africano?","6000 kilos","5400 kilos","","0","0","0","competitive","left","0.898774862289","3498.18197489","4.10122513771","3502.47274899","2.59425711632","3505.06704688","3.40574288368","3508.52315187","3509.87908006","3509.95825887","3512.96125102","0","3512.97550106","3519.68257284",""
"sujeto_9d0bd287","1","4","16","112","3519.82764792","inverse","1","1","2","¿Qué porcentaje de 
la población es zurda?","10%","7%","","1","1","0","competitive","left","0.930476903915","3520.75818896","4.06952309608","3524.98178101","2.40633106232","3527.38818002","3.59366893768","3531.03311896","3532.27597904","3532.35184598","3535.35396099","1","3535.36963606","3541.34937096",""
"sujeto_9d0bd287","1","4","17","113","3541.48758006","direct","1","1","2","¿En qué año se estrenó
Volver al futuro?","1984","1985","","0","0","1","competitive","right","0.723842144012","3542.21147084","4.27615785599","3546.64547586","4.07680296898","3550.72232199","1.92319703102","3552.67993999","3554.24176693","3554.33156395","3557.33455396","0","3557.34912491","3564.44058084",""
"sujeto_9d0bd287","1","4","18","114","3564.58380103","inverse","3","1","2","¿Cuántos jugadores hay en un 
equipo de baseball?","9","8","","1","1","0","competitive","right","0.661674976349","3565.24553895","4.33832502365","3569.75802398","4.37142920494","3574.12951899","1.62857079506","3575.80892706","3577.42322302","3577.50972295","3580.51272202","1","3580.52746487","3585.50471306",""
"sujeto_9d0bd287","1","4","19","115","3585.64532304","direct","2","1","1","¿Cuántos Oscar ganó
 la película titanic?","13","11","","1","1","1","competitive","right","0.819532155991","3586.46493888","4.18046784401","3590.80169296","2.54819083214","3593.34992385","3.45180916786","3596.83715892","3598.13919592","3598.22117186","3601.22412896","1","3601.23842692","3605.84107494",""
"sujeto_9d0bd287","1","4","20","116","3605.98923087","inverse","4","1","4","¿En qué año comenzó
la segunda guerra mundial?","1939","1976","left","0","0","1","competitive","left","2.28299808502","3608.27229095","2.71700191498","3611.16392493","2.66746783257","3613.83145785","3.33253216743","3617.213135","3619.01196504","3619.09814501","3622.10114598","1","3622.11651492","3626.10366488",""
"sujeto_9d0bd287","1","4","21","117","3626.23451495","direct","2","1","4","¿Cuántos biomas hay en Uruguay?","5","4","","0","0","1","competitive","left","0.882184028625","3627.11676788","4.11781597137","3631.39106488","1.84966492653","3633.24078798","4.15033507347","3637.44056487","3639.2370019","3639.32709694","3642.33008194","0","3642.34380794","3648.59324694",""
"sujeto_9d0bd287","1","4","22","118","3648.74594784","inverse","2","1","3","¿Cuándo murió Pablo Escobar?","1993","1997","","1","1","1","competitive","right","1.82220101357","3650.56819296","3.17779898643","3653.91983604","2.25742602348","3656.17733192","3.74257397652","3659.96971297","3661.75256896","3661.83899093","3664.84199095","1","3664.85673094","3670.56040597",""
"sujeto_9d0bd287","1","4","23","119","3670.70728493","direct","1","1","4","¿Qué serie ha ganado mas premios?","Friends","Murphy Brown","","1","1","0","competitive","left","1.4773478508","3672.18470097","3.5226521492","3675.86540198","3.75233411789","3679.61777401","2.24766588211","3681.91567588","3683.26810694","3683.35040903","3686.35341001","1","3686.367697","3691.92932796",""
"sujeto_9d0bd287","1","4","24","120","3692.08569598","inverse","4","1","2","¿Cuántas fichas tiene el dominó?","26","28","","1","1","1","competitive","right","2.25034117699","3694.33607984","2.74965882301","3697.2411859","2.06492090225","3699.30614805","3.93507909775","3703.27655292","3704.33191991","3704.41227388","3707.41521406","1","3707.42948985","3712.67254901",""
"sujeto_9d0bd287","1","4","25","121","3712.81443501","direct","2","1","4","¿Cuántos son los dientes de leche?","20","25","","0","0","1","competitive","right","0.951977014542","3713.76645494","4.04802298546","3717.98703003","2.74544095993","3720.73250699","3.25455904007","3724.02094388","3725.73134398","3725.80667305","3728.80961299","0","3728.82424283","3730.9699769",""
"sujeto_9d0bd287","1","4","26","122","3731.10851288","inverse","3","1","3","¿Cuántos gramos son una onza?","22","28","","0","0","1","competitive","right","0.819252967834","3731.92780995","4.18074703217","3736.29687691","2.44598388672","3738.74291897","3.55401611328","3742.33070397","3744.32556701","3744.39905596","3747.40199685","0","3747.41751885","3753.70777202",""
"sujeto_9d0bd287","1","4","27","123","3753.85159802","direct","3","1","1","¿Cuándo salió el primer album
 de los Beatles?","1963","1962","","1","1","1","competitive","right","1.15768098831","3755.00940585","3.84231901169","3759.02540302","3.03103399277","3762.05648398","2.96896600723","3765.07593894","3766.23958206","3766.328619","3769.33161187","1","3769.34491205","3773.11696601",""
"sujeto_9d0bd287","1","4","28","124","3773.24660683","inverse","3","1","3","¿Quién fundó la empresa apple?","Carlos Slim","Steve Jobs","","1","1","1","competitive","right","1.65701413155","3774.90366888","3.34298586845","3778.38512897","2.43154811859","3780.81674194","3.56845188141","3784.43464899","3785.54928398","3785.62029696","3788.62327099","1","3788.63788605","3794.93576097",""
"sujeto_9d0bd287","1","4","29","125","3795.07223392","direct","4","1","2","¿Cuántos municipios hay
 en Montevideo?","8","7","","1","1","1","competitive","left","0.938774824142","3796.01105404","4.06122517586","3800.2313199","2.40482401848","3802.63620901","3.59517598152","3806.28195405","3808.19673395","3808.28407788","3811.28707385","1","3811.30063701","3813.38104606",""
"sujeto_9d0bd287","1","4","30","126","3813.53585291","inverse","1","1","1","¿Cuántos kilómetros hay
 de Montevideo a Artigas?","632","599","","0","0","0","competitive","left","0.939504861832","3814.47542286","4.06049513817","3818.70751691","3.23993802071","3821.94751406","2.76006197929","3824.75810003","3826.24127293","3826.32707787","3829.33007884","0","3829.34449291","3835.396595",""
"sujeto_9d0bd287","1","4","31","127","3835.52848101","direct","2","1","2","¿En qué año nació 
Leonardo Da Vinci?","1452","1511","","1","1","0","competitive","left","0.963246107101","3836.49177003","4.0367538929","3840.68669891","2.72208285332","3843.40882993","3.27791714668","3846.73636603","3848.59000587","3848.671525","3851.67452502","1","3851.68895102","3854.83537483",""
"sujeto_9d0bd287","1","4","32","128","3854.97412086","inverse","3","1","1","¿A qué continente
 pertenece el país Gabón?","Africa","Oceanía","","0","0","1","competitive","right","1.24790501595","3856.22208786","3.75209498405","3860.14628792","3.61888599396","3863.76524186","2.38111400604","3866.19749403","3868.0091629","3868.08185601","3871.0848639","0","3871.09948993","3876.33695483",""
