"code","nro_aplicante","nro_bloque","nro_trial_bloque","nro_trial_global","show_game_type","choice_order","rival","pay_individual","pay_competitive","question","answer_left_text","answer_right_text","correct_answer","outcome_individual","outcome_competitive","outcome_rival","game_type","answer","social_time","rt_game_type","feedback_delay","show_question","answer_time","rt_answer_global","feedback_delay_2","show_jitter","jitter_time","show_outcome","outcome_time","outcome_participant_real","show_final_jitter","second_jitter_time","inicio_descanso"
"sujeto_0048205","1","1","1","1","50.8226342201","direct","3","1","4","¿Cuántos centímetros corresponden
al talle 36 del calzado?","23","24",,"0","0","1","competitive","right","2.18488311768","53.0075590611","2.81511688232","55.9930260181","4.01650309563","60.009594202","1.98349690437","62.045219183","63.0734870434","63.1462631226","66.1477150917","0","66.162828207","68.3253440857",
"sujeto_0048205","1","1","2","2","68.4650771618","inverse","3","1","2","¿Cuántas metros mide la Intendencia
Municipal de Montevideo? ","84","78",,"0","0","1","competitive","right","1.50747799873","69.9726011753","3.49252200127","73.620111227","3.77846002579","77.3986101151","2.22153997421","79.654004097","81.5317320824","81.6053450108","84.6077280045","0","84.6226971149","86.7153921127",
"sujeto_0048205","1","1","3","3","86.8558540344","direct","1","1","3","¿Cuántas La Pasiva
 hay en uruguay?","15","11",,"1","1","1","competitive","left","1.93272805214","88.7886550426","3.06727194786","92.0293700695","4.95718193054","96.9865911007","1.04281806946","98.0806951523","99.6917312145","99.7642140388","102.767181158","1","102.782323122","107.059760094",
"sujeto_0048205","1","1","4","4","107.200897217","inverse","3","1","3","¿De que color es la camiseta de uruguay?","blanca","celeste","right","1","1","1","competitive","right","1.38263607025","108.583576202","3.61736392975","112.356376171","3.0602221489","115.416657209","2.9397778511","118.390050173","119.594788074","119.675284147","122.678270102","1","122.691928148","126.145817995",
"sujeto_0048205","1","1","5","5","126.279184103","direct","2","1","1","¿Cuánto metros mide
la torre Eiffel?","333","324",,"1","1","1","competitive","right","1.05740594864","127.336633205","3.94259405136","131.416158199","2.98038601875","134.396584034","3.01961398125","137.449786186","138.971152067","139.051592112","142.054560184","1","142.068474054","149.10374403",
"sujeto_0048205","1","1","6","6","149.236983061","inverse","3","1","4","¿Cuantas ciudades existen
 en todo el uruguay?","63","72",,"0","0","1","competitive","left","1.60152006149","150.838561058","3.39847993851","154.395102024","4.91546607018","159.310613155","1.08453392982","160.445672035","161.500467062","161.579485178","164.579752207","0","164.596694231","172.219770193",
"sujeto_0048205","1","1","7","7","172.385085106","direct","1","1","1","¿Cuantos estados tiene África?","52","54",,"1","1","0","competitive","right","1.12846589088","173.513593197","3.87153410912","177.519787073","3.68678498268","181.206631184","2.31321501732","183.572300196","185.43573308","185.506917","188.507732153","1","188.525032043","194.286052227",
"sujeto_0048205","1","1","8","8","194.42870903","inverse","4","1","4","¿En qué año nació
 Stephen Hawking?","1952","1942",,"0","0","1","competitive","right","1.28975391388","195.718500137","3.71024608612","199.584402084","4.74815392494","204.332617044","1.25184607506","205.635967016","207.080299139","207.152788162","210.155774117","0","210.171111107","216.270467043",
"sujeto_0048205","1","1","9","9","216.408393145","direct","2","1","3","¿Cuánto años tenía Artigas
 cuando se fue a Paraguay?","56","57",,"1","1","1","competitive","right","2.4331741333","218.841611147","2.5668258667","221.561028004","4.74457907677","226.305674076","1.25542092323","227.597040176","229.146548033","229.232041121","232.235022068","1","232.248310089","238.291754007",
"sujeto_0048205","1","1","10","10","238.435212135","inverse","1","1","2","¿Cuantos milímetros 
mide una hoja A2?","420x592","420x594",,"0","0","1","competitive","left","1.75641202927","240.191696167","3.24358797073","243.573868036","4.80466294289","248.3785882","1.19533705711","249.625324011","251.19375205","251.276247025","254.279234171","0","254.293409109","261.367047071",
"sujeto_0048205","1","1","11","11","261.4996171","direct","3","1","3","¿Cuál es la menor temperatura 
registrada en Uruguay?","-5.4","-7.4",,"0","0","1","competitive","right","1.29699420929","262.796678066","3.70300579071","266.651328087","4.73722600937","271.388613224","1.26277399063","272.703371048","274.385397196","274.45371604","277.456687212","0","277.47155118","281.204849005",
"sujeto_0048205","1","1","12","12","281.342692137","inverse","2","1","2","¿Cuantos años hace que 
se fundó facebook?","18","17",,"0","0","0","competitive","left","3.55593585968","284.898676157","1.44406414032","286.496869087","4.37365603447","290.870569229","1.62634396553","292.545038223","293.917745113","293.996501207","296.999447107","0","297.013739109","299.788365126",
"sujeto_0048205","1","1","13","13","299.916747093","direct","1","1","4","¿Cuál animal es más
 pesado en promedio?","Rinoceronte","Hipopotamo",,"0","0","0","competitive",,"1.62783694267","301.544625998","3.37216305733","305.105454206","6","311.105600119","0","311.120952129","312.200198174","312.27453208","315.277497053","0","315.290629148","319.131633997",
"sujeto_0048205","1","1","14","14","319.261253119","inverse","1","1","2","¿Qué personaje de dragon ball 
murió más veces?","Chaoz","Krillin",,"1","1","0","competitive","left","1.39624381065","320.657552004","3.60375618935","324.415143013","4.81939411163","329.234603167","1.18060588837","330.46658802","331.924080133","332.000970125","335.003779173","1","335.017569065","342.79049921",
"sujeto_0048205","1","1","15","15","342.923753023","direct","3","1","2","La universidad de oxford. 
existe desde:","1096","1249",,"1","1","0","competitive",,"1.93387389183","344.857700109","3.06612610817","348.094271183","6","354.094404221","0","354.107158184","355.156673193","355.227759123","358.230741024","0","358.244934082","364.935768127",
"sujeto_0048205","1","1","16","16","365.066077232","inverse","3","1","1","¿Qué escritor latino ganó antes
 el premio nobel?"," García Marquez","Neruda",,"0","0","1","competitive","right","1.35646796227","366.422587156","3.64353203773","370.205849171","4.93270897865","375.138617039","1.06729102135","376.256939173","377.995736122","378.07439208","381.0757761","0","381.092053175","384.552575111",
"sujeto_0048205","1","1","17","17","384.691237211","direct","4","1","3","¿Cuántos dientes tiene un
 tiburón blanco?","6000","3000",,"0","0","1","competitive","right","2.20131611824","386.892617226","2.79868388176","389.848273039","4.32827997208","394.176618099","1.67172002792","395.883703232","396.922703028","397.001495123","400.003777027","0","400.018160105","404.827809095",
"sujeto_0048205","1","1","18","18","405.140571117","inverse","4","1","1","¿Cuánto mide el paralelo Ecuador?","40.000km","70.000km",,"0","0","1","competitive","left","1.72806596756","406.868760109","3.27193403244","410.309733152","3.64579105377","413.955587149","2.35420894623","416.343425035","418.298181057","418.377809048","421.380792141","0","421.395985126","424.998537064",
"sujeto_0048205","1","1","19","19","425.13123703","direct","4","1","2","¿Cuál fue el primer libro 
de Stephen King?","Carrie","The Stand",,"1","1","1","competitive","left","1.42530894279","426.55659008","3.57469105721","430.287510157","3.94509005547","434.232668161","2.05490994453","436.337983131","438.082075119","438.155870199","441.158829212","1","441.172788143","445.647224188",
"sujeto_0048205","1","1","20","20","445.793487072","inverse","2","1","3","¿Qué civilización practicaba
 la momificación?","Grecia","Egipto","right","0","0","1","competitive","right","2.33898496628","448.132528067","2.66101503372","450.94769907","3.40886592865","454.356605053","2.59113407135","456.997864008","458.935764074","459.016434193","462.01940918","1","462.033776045","466.262545109",
"sujeto_0048205","1","1","21","21","466.421003103","direct","4","1","4","¿Cuántos millones de visitas
 recibe google por minuto?","3.0","4.5",,"0","0","1","competitive","right","1.64459490776","468.065663099","3.35540509224","471.575365067","4.47318291664","476.048604012","1.52681708336","477.626102209","479.140986204","479.226410151","482.229385138","0","482.24429822","489.363751173",
"sujeto_0048205","1","1","22","22","489.513639212","inverse","1","1","3","La máquina de fax. se inventó en:","1843","1960",,"0","0","1","competitive","right","1.41889309883","490.93257618","3.58110690117","494.653673172","3.80388307571","498.457593203","2.19611692429","500.703971148","501.946046114","502.021831036","505.024809122","0","505.038982153","508.275308132",
"sujeto_0048205","1","1","23","23","508.443063021","direct","2","1","4","En la verdadera historia de los
 300 espartanos. habían:","300 soldados","4300 soldados",,"1","1","1","competitive","left","2.27352404594","510.716666222","2.72647595406","513.613447189","4.41011404991","518.023605108","1.58988595009","519.662267208","520.92346406","520.996068001","523.99905014","1","524.013348103","527.815082073",
"sujeto_0048205","1","1","24","24","527.966788054","inverse","1","1","4","¿Cuántos milímetros crece
 el pelo por día?","0.4","0.04",,"0","0","0","competitive","right","1.60075998306","529.567616224","3.39924001694","533.106401205","4.31716513634","537.423607111","1.68283486366","539.157351017","540.918069124","540.99093914","543.993917227","0","544.009150028","550.744243145",
"sujeto_0048205","1","1","25","25","550.880204201","direct","4","1","1","¿Cuánto mide la baldosa gris 
clásica de Montevideo?","22x22 cm.","20x20 cm.",,"1","1","1","competitive","right","2.02340817451","552.903751135","2.97659182549","556.065142155","5.84144711494","561.906635046","0.158552885056","562.103568077","564.09882021","564.187184095","567.190165043","1","567.204193115","572.746994019",
"sujeto_0048205","1","1","26","26","572.888997078","inverse","2","1","2","¿Cuántas películas de rápidos
 y furiosos hay?","10","11",,"1","1","0","competitive","right","1.72459888458","574.613660097","3.27540111542","578.029075146","3.84053015709","581.869648218","2.15946984291","584.063877106","585.421898127","585.497723103","588.500712156","1","588.515862226","590.550533056",
"sujeto_0048205","1","1","27","27","590.683442116","direct","3","1","1","¿Cuántos masters 1000
 ganó Del Potro?","1","2",,"1","1","1","individual","right","2.03317904472","592.716671228","2.96682095528","595.839170218","4.99335598946","600.832589149","1.00664401054","601.873633146","603.62827301","603.673897028","606.676865101","1","606.69089818","614.087268114",
"sujeto_0048205","1","1","28","28","614.229988098","inverse","2","1","4","¿Cuántos meses dura el 
embarazo de una leona?","3 meses","4 meses",,"0","0","1","competitive","right","1.66956090927","615.899610043","3.33043909073","619.384334087","5.3082690239","624.692663193","0.691730976105","625.419358015","626.530408144","626.602702141","629.605682135","0","629.619842052","636.342328072",
"sujeto_0048205","1","1","29","29","636.470628023","direct","1","1","1","¿En qué año fue creado
 el sandwich?","1762","1653",,"1","1","0","individual","right","3.58393096924","640.05462718","1.41606903076","641.62869215","3.44490408897","645.073655128","2.55509591103","647.662458181","649.261018038","649.29780221","652.299776077","1","652.314821005","655.785443068",
"sujeto_0048205","1","1","30","30","655.916567087","inverse","4","1","2","El nombre de la moneda de Vietnam es:","Dinar","Dong",,"0","0","1","competitive",,"1.57511091232","657.491746187","3.42488908768","661.055250168","6","667.055388212","0","667.070186138","668.502181053","668.572673082","671.575645208","0","671.590672016","677.75910306",
"sujeto_0048205","1","1","31","31","677.895014048","direct","2","1","1","¿cuantos aleteos puede dar 
un colibrí por segundo?","120","50",,"0","0","0","individual","right","1.83759498596","679.732671022","3.16240501404","683.049890995","4.04468607903","687.094680071","1.95531392097","689.084016085","690.816398144","690.852228165","693.855197191","0","693.869330168","698.081611156",
"sujeto_0048205","1","1","32","32","698.222324133","inverse","4","1","3","¿Qué altura promedio tienen
 los hombres uruguayos?","1.73 m","1.72 m",,"1","1","1","competitive","left","3.064234972","701.2866292","1.935765028","703.377146006","3.4544479847","706.831651211","2.5455520153","709.428443193","710.690827131","710.77901721","713.782000065","1","713.796096087","718.272037029",
"sujeto_0048205","1","2","1","33","850.768110037","direct","1","1","1","¿En qué año nació 
el actor Bradd Pitt?","1967","1963",,"1","1","1","individual","left","3.84046196938","854.608633995","1.15953803062","855.921862125","3.47278094292","859.394708157","2.52721905708","861.973419189","863.069292068","863.107657194","866.110624075","1","866.124745131","872.051816225","718.291511059"
"sujeto_0048205","1","2","2","34","872.176749229","inverse","2","1","1","¿Cual es el segundo 
monte más alto?","Kanchenjunga","K2",,"1","1","1","individual","right","2.35507106781","874.531897068","2.64492893219","877.333116055","5.65348100662","882.986639023","0.346518993378","883.384964228","884.837402105","884.885045052","887.887750149","1","887.902970076","891.332865",
"sujeto_0048205","1","2","3","35","891.505802155","direct","3","1","1","¿Cuándo finalizó la construcción
 del Palacio Legislativo?","1925","1917",,"0","0","1","individual","left","1.49685096741","893.002695084","3.50314903259","896.660356998","4.38220405579","901.042601109","1.61779594421","902.711281061","904.353001118","904.395269156","907.398241043","0","907.412153006","913.109715223",
"sujeto_0048205","1","2","4","36","913.247021198","inverse","3","1","3","¿Cuántos integrantes tenía
 en su inicio  el cuarteto de nos?","3","4",,"1","1","1","competitive","left","2.17558097839","915.422646046","2.82441902161","918.420938015","3.64465904236","922.065664053","2.35534095764","924.454045057","925.587142229","925.65597105","928.658937216","1","928.673164129","934.322974205",
"sujeto_0048205","1","2","5","37","934.460440159","direct","2","1","3","¿Qué valor tiene el número pi?","3.14","4.18","left","0","0","1","competitive","left","2.03917813301","936.499743223","2.96082186699","939.631916046","3.19769191742","942.829667091","2.80230808258","945.680471182","947.134690046","947.215796232","950.218778133","1","950.232847214","957.151768208",
"sujeto_0048205","1","2","6","38","957.284211159","inverse","2","1","2","¿Cuál es la esperanza de vida
 en Uruguay?","75","77",,"1","1","0","competitive","right","1.53636217117","958.820641041","3.46363782883","962.426937103","3.72459816933","966.151576042","2.27540183067","968.478432178","970.131750107","970.212946177","973.215785027","1","973.230319023","979.693344116",
"sujeto_0048205","1","2","7","39","979.831395149","direct","1","1","2","¿Cuantos pisos tiene la torre 
de las comunicaciones?","26","32",,"1","1","0","competitive","right","1.53718495369","981.368649006","3.46281504631","984.97264719","4.83894395828","989.811643124","1.16105604172","991.022891998","992.851685047","992.92348218","995.92377615","1","995.941074133","998.087282181",
"sujeto_0048205","1","2","8","40","998.226260185","inverse","2","1","4","¿En qué país sudamericano 
no hay McDonalds?","Bolivia","Venezuela",,"0","0","1","competitive","left","1.7723441124","999.998647213","3.2276558876","1003.38218904","5.25337004662","1008.63561606","0.746629953384","1009.43330503","1010.74268603","1010.8165071","1013.81946516","0","1013.83445716","1020.19418216",
"sujeto_0048205","1","2","9","41","1020.33823299","direct","3","1","1","¿En qué año empieza
 la Edad Media?","476","512",,"1","1","1","individual","left","2.06036996841","1022.398669","2.93963003159","1025.52434802","4.32029104233","1029.8447051","1.67970895767","1031.57666111","1032.97972822","1033.02750921","1036.03045201","1","1036.04471302","1039.03173304",
"sujeto_0048205","1","2","10","42","1039.18147922","inverse","3","1","4","¿Hace cuántos años surgió
 el ser humano?","200mil","300mil",,"0","0","0","competitive","left","1.45407700539","1040.63559318","3.54592299461","1044.31894708","4.86474704742","1049.18375516","1.13525295258","1050.37020016","1052.25574207","1052.33761501","1055.34058619","0","1055.35594821","1058.6664381",
"sujeto_0048205","1","2","11","43","1058.82449722","direct","3","1","4","¿Cuántas cuadras tiene
 actualmente 18 de julio? ","36","33",,"0","0","1","competitive","left","1.51416611671","1060.33872914","3.48583388329","1063.97941709","4.00124287605","1067.980721","1.99875712395","1070.03015113","1071.73242617","1071.81511712","1074.81810522","0","1074.83203721","1079.55577016",
"sujeto_0048205","1","2","12","44","1079.68398905","inverse","1","1","4","¿Qué juego de equipo se 
considera mas rápido?","Lacrosse","Badminton",,"0","0","0","competitive","left","1.53968906403","1081.22372508","3.46031093597","1084.84057212","5.06702685356","1089.90767407","0.932973146439","1090.88980412","1092.13286614","1092.20619321","1095.20918417","0","1095.22447109","1103.21958303",
"sujeto_0048205","1","2","13","45","1103.35897517","direct","1","1","3","¿Qué promedio de edad 
vive una jirafa? ","25","20",,"0","0","1","competitive","left","1.42269897461","1104.78171706","3.57730102539","1108.50203514","3.66458201408","1112.16667604","2.33541798592","1114.53640008","1116.29790115","1116.370363","1119.37337112","0","1119.38851404","1125.3442502",
"sujeto_0048205","1","2","14","46","1125.47325015","inverse","1","1","2","¿Cuántos grandes lagos hay?","7","5",,"0","0","1","competitive","right","1.57139420509","1127.04468822","3.42860579491","1130.630481","3.68915009499","1134.3197062","2.31084990501","1136.68079305","1137.97293115","1138.04882812","1141.051759","0","1141.06588411","1148.88723111",
"sujeto_0048205","1","2","15","47","1149.05445814","direct","3","1","2","¿Cuántos discos de estudio
 grabó Johhny Cash? ","54","43",,"1","1","0","competitive","right","1.33917713165","1150.39368105","3.66082286835","1154.1920321","4.17055821419","1158.36262822","1.82944178581","1160.24313807","1161.52174211","1161.59400821","1164.59574318","1","1164.61090612","1171.259727",
"sujeto_0048205","1","2","16","48","1171.39882612","inverse","4","1","1","¿Cuántos barrios tiene
 Montevideo? ","71","62",,"0","0","1","individual","right","1.82174682617","1173.22061014","3.17825317383","1176.55408216","4.44856715202","1181.00270915","1.55143284798","1182.6050241","1183.61174202","1183.65562201","1186.65857315","0","1186.67351007","1192.13546515",
"sujeto_0048205","1","2","17","49","1192.27479219","direct","3","1","3","¿Qué edad tiene Homero Simpson?","36","42",,"0","0","1","competitive","left","1.72683596611","1194.00169206","3.27316403389","1197.43128514","4.58337807655","1202.01470709","1.41662192345","1203.48053622","1204.85574007","1204.93215418","1207.93514609","0","1207.94829607","1212.33705807",
"sujeto_0048205","1","2","18","50","1212.48618412","inverse","4","1","2","¿Cuántos países con monarquía 
hay en europa actualmente? ","6","10",,"1","1","1","competitive","left","2.9254758358","1215.41173315","2.0745241642","1217.65453315","5.77304601669","1223.42765117","0.226953983307","1223.71020222","1225.14844918","1225.22681808","1228.22981715","1","1228.243922","1234.40073419",
"sujeto_0048205","1","2","19","51","1234.53289509","direct","2","1","3","¿Cuántos capítulos de
 Friends existen? ","236","228",,"1","1","1","competitive","left","1.55971288681","1236.0926702","3.44028711319","1239.68689322","4.02269601822","1243.70962811","1.97730398178","1245.73779011","1247.04333806","1247.121696","1250.12467718","1","1250.13913918","1252.5147891",
"sujeto_0048205","1","2","20","52","1252.65728521","inverse","1","1","3","¿Cuántas óperas compuso Mozart? ","27","22",,"1","1","1","competitive","right","1.88839411736","1254.54575419","3.11160588264","1257.82917118","3.5164141655","1261.34564304","2.4835858345","1263.86297417","1265.15513515","1265.23132706","1268.23434305","1","1268.24823809","1275.55573511",
"sujeto_0048205","1","2","21","53","1275.70412612","direct","4","1","3","¿Cuántos mundiales de fútbol 
femenino ha realizado FIFA? ","9","7",,"1","1","1","competitive","right","1.33951401711","1277.0437212","3.66048598289","1280.85697317","4.48468708992","1285.34170222","1.51531291008","1286.90852118","1288.15223503","1288.22611904","1291.22910023","1","1291.24345016","1297.34377217",
"sujeto_0048205","1","2","22","54","1297.47814703","inverse","3","1","2","¿Cuál es la temperatura 
media anual en Montevideo? ","17.5","16.3",,"0","0","1","competitive","left","2.48049807549","1299.95871615","2.51950192451","1302.63162613","5.68796992302","1308.31968522","0.312030076981","1308.68731904","1310.62588906","1310.703897","1313.70684505","0","1313.72225809","1320.29174423",
"sujeto_0048205","1","2","23","55","1320.42315507","direct","2","1","2","¿En qué año se estrenó el
 videojuego The Sims? ","2000","2002",,"0","0","0","competitive","right","1.97453093529","1322.39774919","3.02546906471","1325.56441021","4.6842250824","1330.24867606","1.3157749176","1331.6155231","1333.47745514","1333.54895711","1336.55173707","0","1336.56705523","1343.95974612",
"sujeto_0048205","1","2","24","56","1344.10154009","inverse","2","1","1","¿Cuál es la canción con 
mas covers? ","Yesterday","Stand by me",,"0","0","0","individual","right","2.0181248188","1346.1197412","2.9818751812","1349.25841522","5.11126494408","1354.36972213","0.888735055923","1355.29444504","1356.69301701","1356.7451942","1359.74818611","0","1359.76255512","1363.93333912",
"sujeto_0048205","1","2","25","57","1364.09690309","direct","1","1","4","¿Cuánto duró la guerra
 de los 100 años?","116","123",,"0","0","0","competitive","left","1.35082697868","1365.44777513","3.64917302132","1369.24997902","4.1016368866","1373.35169816","1.8983631134","1375.30285716","1376.78316712","1376.85367823","1379.85666323","0","1379.8706162","1382.19039917",
"sujeto_0048205","1","2","26","58","1382.34016705","inverse","4","1","4","¿Qué color tiene la  bandera de Brasil?","Amarillo","Naranja","left","0","0","1","competitive","left","1.66249608994","1384.00272608","3.33750391006","1387.49527001","2.55541801453","1390.05074906","3.44458198547","1393.54586101","1395.11177516","1395.18110514","1398.18410301","1","1398.198457","1401.23124814",
"sujeto_0048205","1","2","27","59","1401.40148115","direct","4","1","3","¿Qué carabela de 
Colon no volvió del viaje?","Santa María","La pinta",,"0","0","1","competitive",,"1.68623304367","1403.08775806","3.31376695633","1406.55618119","6","1412.55630422","0","1412.57056808","1414.06159401","1414.14029908","1417.14328718","0","1417.15842915","1419.25790215",
"sujeto_0048205","1","2","28","60","1419.44130301","inverse","4","1","4","¿Cuántos huesos tiene
 un adulto humano?","217","206",,"0","0","1","competitive","right","1.99032783508","1421.43174005","3.00967216492","1424.59865308","4.64298200607","1429.24167609","1.35701799393","1430.63275003","1431.90379214","1431.98351121","1434.98647404","0","1435.0005672","1442.83359504",
"sujeto_0048205","1","2","29","61","1442.97081208","direct","1","1","1","¿Qué país africano fue 
fundado por esclavos?","Liberia","Chad",,"0","0","0","individual","left","1.76088190079","1444.73173809","3.23911809921","1448.12654305","4.30811190605","1452.43469501","1.69188809395","1454.16172314","1456.15340209","1456.19589305","1459.19882917","0","1459.21296406","1467.20074511",
"sujeto_0048205","1","2","30","62","1467.51926804","inverse","4","1","2","¿A cuánto asciende la cima
 del monte Everest?","7.990 mts","8.848 mts",,"0","0","1","competitive","left","1.55939006805","1469.07870507","3.44060993195","1472.67308712","5.57447600365","1478.24760222","0.425523996353","1478.70745921","1479.89174008","1479.97520709","1482.97819018","0","1482.99232602","1490.17639017",
"sujeto_0048205","1","2","31","63","1490.32634401","direct","4","1","1","¿Cuál es el país mas chico?","Sealand","Luxemburgo",,"1","1","1","individual","left","1.35727596283","1491.68370008","3.64272403717","1495.48406601","3.34761309624","1498.83174109","2.65238690376","1501.5351162","1503.39862204","1503.45285106","1506.4557662","1","1506.47122908","1509.59265614",
"sujeto_0048205","1","2","32","64","1509.73994517","inverse","2","1","4","¿Cuántas pirámides hay en Egipto?","10000","11000",,"1","1","1","competitive","left","2.22373509407","1511.96374822","2.77626490593","1514.89570808","2.97497081757","1517.87074018","3.02502918243","1520.94580722","1521.9793632","1522.06372619","1525.06670618","1","1525.08063507","1530.18777204",
"sujeto_0048205","1","3","1","65","1641.52348518","direct","2","1","2","¿Cuál es el quinto país con 
mas extensión?","Canadá","Brasil",,"1","1","0","competitive","left","1.52318096161","1643.04673719","3.47681903839","1646.67885613","3.51276493073","1650.19169211","2.48723506927","1652.71299815","1654.04629517","1654.11458611","1657.11750102","1","1657.13162208","1664.85786414","1530.20278502"
"sujeto_0048205","1","3","2","66","1664.99961901","inverse","1","1","2","¿Qué rasgo facial no tiene
 la Mona Lisa?","Cejas","Pómulos",,"0","0","1","competitive","right","1.99605512619","1666.99574018","3.00394487381","1670.1548121","4.3588309288","1674.51370716","1.6411690712","1676.20883918","1677.95923305","1678.0264442","1681.02772713","0","1681.0439651","1687.31173301",
"sujeto_0048205","1","3","3","67","1687.44538522","direct","4","1","3","¿Cuál es el país con 
mayor población?","Esados Unidos","China","right","0","0","1","competitive","right","1.29334902763","1688.7388041","3.70665097237","1692.60233712","3.72831678391","1696.33071423","2.27168321609","1698.63682103","1700.28282809","1700.37156606","1703.37245202","1","1703.38872004","1706.75606108",
"sujeto_0048205","1","3","4","68","1706.9235301","inverse","1","1","1","La palabra dinosaurio significa","Lagarto Terrible","Lagarto Dragón",,"1","1","0","individual","left","2.04818105698","1708.97177505","2.95181894302","1712.09664416","5.67735600471","1717.77411723","0.322643995285","1718.14738011","1719.31771517","1719.36389804","1722.36685514","1","1722.38087511","1725.2427001",
"sujeto_0048205","1","3","5","69","1725.38268805","direct","2","1","3","¿Qué es el membrillero?","Arbol","Arbusto",,"0","0","0","competitive","left","1.6450009346","1727.02773404","3.3549990654","1730.53965116","3.50600290298","1734.04568911","2.49399709702","1736.58960104","1738.54368114","1738.62456822","1741.62754321","0","1741.64199209","1748.10601807",
"sujeto_0048205","1","3","6","70","1748.24382806","inverse","3","1","3","¿Alrededor de qué planeta orbita 
el satélite Europa?","Jupiter","Saturno",,"1","1","1","competitive",,"0.904901981354","1749.14883113","4.09509801865","1753.3998692","6","1759.39999509","0","1759.41540909","1760.95972705","1761.03561902","1764.03857517","0","1764.0528121","1766.2579751",
"sujeto_0048205","1","3","7","71","1766.40631223","direct","3","1","1","¿Donde fue el mundial de 
fútbol de 1954?","Suiza","Suecia",,"1","1","1","individual","right","1.61335396767","1768.0197351","3.38664603233","1771.56070709","4.4569709301","1776.01774311","1.5430290699","1777.59476709","1778.84736705","1778.89596319","1781.89888406","1","1781.91280818","1785.82452822",
"sujeto_0048205","1","3","8","72","1785.94747615","inverse","1","1","4","¿Cuál de los 7 enanitos
no tenía barba?","Bashful","Mudito",,"1","1","0","competitive","right","0.87118601799","1786.818712","4.12881398201","1791.083287","5.40532493591","1796.48868012","0.594675064087","1797.12032008","1798.70050502","1798.77064919","1801.77357817","1","1801.78765702","1806.71671009",
"sujeto_0048205","1","3","9","73","1806.85607505","direct","3","1","2","¿Cual red social es
mas utilizada mundialmente?","Instagram","Facebook",,"1","1","0","competitive","left","1.60767006874","1808.46379018","3.39232993126","1811.99756408","4.4620308876","1816.45968103","1.5379691124","1818.03185821","1819.94771123","1820.01614308","1823.01913214","1","1823.03330207","1825.96773815",
"sujeto_0048205","1","3","10","74","1826.1530211","inverse","4","1","1","¿Cuándo se inició la copa
 América de fútbol?","1916","1923",,"1","1","1","individual","right","1.38866901398","1827.54175115","3.61133098602","1831.29062414","4.34207701683","1835.63274813","1.65792298317","1837.32484818","1839.22230101","1839.25916815","1842.26212406","1","1842.27703619","1844.93176913",
"sujeto_0048205","1","3","11","75","1845.07691216","direct","3","1","4","¿Cuántos presidentes de EEUU
han muerto asesinados?","3","4",,"0","0","1","competitive","left","1.23578310013","1846.31276107","3.76421689987","1850.23107004","3.92953586578","1854.16066813","2.07046413422","1856.2662921","1857.7502501","1857.83439922","1860.83737707","0","1860.85129809","1864.49541807",
"sujeto_0048205","1","3","12","76","1864.63698721","inverse","2","1","4","¿Cuántas veces participó EEUU
 en la copa América?","4","5",,"0","0","1","competitive","left","1.45272397995","1866.08977914","3.54727602005","1869.79393911","4.31566596031","1874.10966206","1.68433403969","1875.84566307","1877.28977704","1877.36218715","1880.3651762","0","1880.37937522","1886.49626708",
"sujeto_0048205","1","3","13","77","1886.66772413","direct","4","1","1","¿Cuál de estos países 
no formaba la URSS?","Azeribayán","Afganistán",,"0","0","1","individual","left","2.13008308411","1888.79787421","2.86991691589","1891.82169914","4.94194221497","1896.76370811","1.05805778503","1897.85651422","1899.16956615","1899.2067852","1902.20775819","0","1902.22504711","1910.20377612",
"sujeto_0048205","1","3","14","78","1910.342489","inverse","1","1","1","¿En qué año se inauguró
 el teatro Solís?","1867","1856",,"0","0","0","individual","left","1.42622995377","1911.76876116","3.57377004623","1915.50125408","4.8614449501","1920.36274123","1.1385550499","1921.53534603","1922.59167314","1922.63607216","1925.63904023","0","1925.65306711","1932.30086923",
"sujeto_0048205","1","3","15","79","1932.43810511","direct","1","1","4","¿A qué velocidad vuela 
el avión más rápido?","3529","3874",,"0","0","0","competitive","left","1.24660181999","1933.68477607","3.75339818001","1937.57783222","4.09078097343","1941.6686511","1.90921902657","1943.61303711","1945.36854506","1945.44697309","1948.44990706","0","1948.46475506","1950.575032",
"sujeto_0048205","1","3","16","80","1950.717381","inverse","3","1","4","¿De qué año es la primer 
película cinematográfica?","1897","1888",,"0","0","0","competitive","left","1.2132730484","1951.9306972","3.7867269516","1955.87143302","3.69223403931","1959.56371617","2.30776596069","1961.90570021","1963.03864312","1963.12277007","1966.12572312","0","1966.13983011","1971.54773712",
"sujeto_0048205","1","3","17","81","1971.67583108","direct","2","1","3","¿Cuántos países 
tiene nuestro planeta?","191","194",,"1","1","1","competitive","right","1.34891009331","1973.02481103","3.65108990669","1976.84938216","5.18528103828","1982.03472614","0.814718961716","1982.900141","1984.25736618","1984.33440804","1987.33739114","1","1987.35153317","1990.58983803",
"sujeto_0048205","1","3","18","82","1990.71951509","inverse","2","1","2","¿Cuántos habitantes
 tiene Buenos Aires?","2.9000.000","3650000",,"0","0","0","competitive","right","1.92424583435","1992.64381123","3.07575416565","1995.892483","3.62021303177","1999.51276112","2.37978696823","2001.94278812","2003.34006119","2003.41106415","2006.414042","0","2006.42799616","2012.25739002",
"sujeto_0048205","1","3","19","83","2012.41284609","direct","2","1","1","¿Cuántos kilos forman una tonelada?","1000","1500","left","1","1","1","individual","left","1.50775694847","2013.92064118","3.49224305153","2017.570086","3.81366991997","2021.38379717","2.18633008003","2023.6041081","2025.49144506","2025.53891516","2028.53975415","1","2028.55582809","2034.51324105",
"sujeto_0048205","1","3","20","84","2034.65775919","inverse","4","1","4","¿Cuántos estados tiene la 
República del Perú? ","24","23",,"0","0","1","competitive","right","1.04504108429","2035.70293713","3.95495891571","2039.81512213","4.00554490089","2043.82071114","1.99445509911","2045.8660872","2046.88773513","2046.96635413","2049.96934509","0","2049.9835012","2054.92853618",
"sujeto_0048205","1","3","21","85","2055.1211071","direct","3","1","3","¿En qué año nació Cristóbal Colón? ","1451","1447",,"0","0","1","competitive","left","0.953649997711","2056.07482505","4.04635000229","2060.29187512","3.27086496353","2063.56280208","2.72913503647","2066.34222102","2068.18814015","2068.25989413","2071.26288104","0","2071.2781992","2075.50618815",
"sujeto_0048205","1","3","22","86","2075.6671052","inverse","4","1","4","¿Cuánto mide la 
Montaña Aconcagua? ","6234","6962",,"0","0","1","competitive","left","1.37457585335","2077.04172301","3.62542414665","2080.81854105","3.49317097664","2084.31176901","2.50682902336","2086.85254812","2088.14183903","2088.22080112","2091.22374916","0","2091.23881006","2098.42247605",
"sujeto_0048205","1","3","23","87","2098.55641222","direct","2","1","4","¿Cuánto mide el punto
 más profundo del océano? ","12508","11003",,"0","0","1","competitive","right","1.50427508354","2100.0607481","3.49572491646","2103.69814301","4.56559085846","2108.26379418","1.43440914154","2109.74982309","2111.0013082","2111.08309102","2114.08370209","0","2114.10002303","2118.30373311",
"sujeto_0048205","1","3","24","88","2118.45195603","inverse","1","1","3","¿Cuántos álbumes ha publicado 
el cantante Jaime Roos? ","41","34",,"0","0","1","competitive","left","1.2067759037","2119.65879607","3.7932240963","2123.59112215","3.82854413986","2127.41971421","2.17145586014","2129.62464213","2131.11451912","2131.193012","2134.1959722","0","2134.21039319","2140.40373015",
"sujeto_0048205","1","3","25","89","2140.54554319","direct","4","1","3","¿En qué año nació el 
ex-presidente Jorge Battle? ","1921","1927",,"1","1","1","competitive","left","1.0751850605","2141.6207912","3.9248149395","2145.70201015","3.8856651783","2149.58771515","2.1143348217","2151.75385809","2153.48451114","2153.554533","2156.5557282","1","2156.57186007","2160.05578208",
"sujeto_0048205","1","3","26","90","2160.1897471","inverse","1","1","3","¿Cuántas presidencias 
constitucionales  hubo en Uruguay? ","41","42",,"0","0","1","competitive","right","1.56999897957","2161.75980902","3.43000102043","2165.34659004","4.25408601761","2169.600734","1.74591398239","2171.39723015","2172.60100007","2172.68122602","2175.68421602","0","2175.69833517","2181.48197913",
"sujeto_0048205","1","3","27","91","2181.61686802","direct","1","1","2","¿Quién escribió mas sinfonías?","Mozart","Haydn",,"1","1","0","competitive","left","1.27693605423","2182.89388013","3.72306394577","2186.7699151","2.91078400612","2189.68076301","3.08921599388","2192.8058362","2194.02329516","2194.10698223","2197.10995817","1","2197.12410021","2200.87550902",
"sujeto_0048205","1","3","28","92","2201.00962114","inverse","4","1","2","¿En qué año nació Michael Jackson?","1958","1953",,"1","1","1","competitive","right","1.08111715317","2202.09080505","3.91888284683","2206.16751909","3.59119296074","2209.75875521","2.40880703926","2212.21719313","2214.19545221","2214.26834822","2217.27134013","1","2217.28669119","2223.14901519",
"sujeto_0048205","1","3","29","93","2223.27154016","direct","3","1","2","¿En qué año entró en vigencia 
la ley antitabaco en Uruguay?","2005","2006",,"1","1","1","competitive","left","1.41119003296","2224.68277311","3.58880996704","2228.4112761","4.55749487877","2232.96883821","1.44250512123","2234.44606805","2236.03974104","2236.11337304","2239.11637115","1","2239.13170505","2244.46568608",
"sujeto_0048205","1","3","30","94","2244.61772513","inverse","3","1","1","¿Cuándo se subió el 
primer video a youtube?","2004","2005",,"0","0","1","individual","left","1.44708490372","2246.06485319","3.55291509628","2249.78970122","4.65298604965","2254.44275117","1.34701395035","2255.84043312","2257.14609718","2257.19127822","2260.19425201","0","2260.20822716","2267.96376204",
"sujeto_0048205","1","3","31","95","2268.10984302","direct","2","1","1","¿Cuántos habitantes tiene India?","1200 millones","1300 millones",,"0","0","0","individual","right","1.46291184425","2269.57280016","3.53708815575","2273.26834822","3.97133803368","2277.23975205","2.02866196632","2279.31988811","2281.28953505","2281.33743811","2284.34042001","0","2284.35424304","2290.40175319",
"sujeto_0048205","1","3","32","96","2290.53926516","inverse","4","1","2","¿A qué edad murió Bob Marley?","36","37",,"0","0","1","competitive","right","1.15843105316","2291.69775701","3.84156894684","2295.67891312","3.00980710983","2298.68876314","2.99019289017","2301.71335101","2303.61121607","2303.69850707","2306.70150304","0","2306.71568012","2309.81574607",
"sujeto_0048205","1","4","1","97","2430.79774714","direct","2","1","1","¿Cuantos años dirigió la selección 
uruguaya Tabarez?","15 años","13 años",,"0","0","0","individual","left","1.34802484512","2432.14583421","3.65197515488","2435.95145321","3.58628511429","2439.53779602","2.41371488571","2442.00269103","2443.19384503","2443.23738718","2446.24036813","0","2446.25462508","2453.32663608","2309.83129001"
"sujeto_0048205","1","4","2","98","2453.47191119","inverse","4","1","1","¿Cuantas teclas tiene un teclado 
de computadora generalmente? ","Entre 99 y 108","Entre 109 y 113",,"1","1","1","individual","right","1.18284606934","2454.65482306","3.81715393066","2458.62953711","4.94612789154","2463.57572508","1.05387210846","2464.68095207","2465.68370223","2465.73130822","2468.73427415","1","2468.74905109","2471.1197691",
"sujeto_0048205","1","4","3","99","2471.25059819","direct","1","1","1","¿Cuál Departamento tiene
 mayor superficie?","Río Negro","Soriano",,"0","0","0","individual","left","1.25220012665","2472.50286412","3.74779987335","2476.40590811","3.47183895111","2479.87780619","2.52816104889","2482.45624113","2484.16970015","2484.20793819","2487.21087313","0","2487.22481823","2491.54777908",
"sujeto_0048205","1","4","4","100","2491.71012712","inverse","3","1","2","¿Cuál es el apellido de las 
hermanastras  de  cenicienta?","Tremaine","Truman",,"0","0","1","competitive","left","0.98866891861","2492.69884014","4.01133108139","2496.86609316","3.93656611443","2500.80269814","2.06343388557","2502.9172771","2504.786762","2504.86871314","2507.87168217","0","2507.885746","2510.58164907",
"sujeto_0048205","1","4","5","101","2510.72120023","direct","4","1","4","¿Cuál película ganó un
 Oscar a mejor película?","Alto Impacto","Cache",,"0","0","1","competitive","left","1.48656511307","2512.20782709","3.51343488693","2515.85981107","3.63893890381","2519.49881005","2.36106109619","2521.91097403","2523.0303371","2523.11108208","2526.11404109","0","2526.12920308","2528.39172816",
"sujeto_0048205","1","4","6","102","2528.53026223","inverse","1","1","3","¿A cuántos centímetros
equivale la medida pié?","25","30",,"0","0","1","competitive","right","1.52355408669","2530.05386019","3.47644591331","2533.6684351","5.48835420609","2539.15683508","0.511645793915","2539.7209692","2540.76097822","2540.83774209","2543.84070611","0","2543.85485601","2549.25583601",
"sujeto_0048205","1","4","7","103","2549.40581107","direct","2","1","2","¿Qué departamento es mas grande?","Cerro Largo","Paysandú",,"0","0","0","competitive","left","1.29996085167","2550.70581603","3.70003914833","2554.56238008","3.6082868576","2558.17071915","2.3917131424","2560.59656715","2562.19629908","2562.26414108","2565.26710701","0","2565.28190207","2569.391886",
"sujeto_0048205","1","4","8","104","2569.53303313","inverse","2","1","3","¿Quién pintó la Mona Lisa?","Picasso","Da Vinci","right","0","0","1","competitive","right","2.1417889595","2571.67489219","2.8582110405","2574.723593","2.2682390213","2576.99189806","3.7317609787","2580.77330422","2582.37914419","2582.45820022","2585.46119404","1","2585.47568321","2587.63800812",
"sujeto_0048205","1","4","9","105","2587.77787113","direct","4","1","3","¿Cuántos litros hay en un galon?","3.54","3.78",,"1","1","1","competitive","left","0.984955787659","2588.76292801","4.01504421234","2592.949687","3.06509709358","2596.01484823","2.93490290642","2598.99960208","2600.51750112","2600.60108519","2603.604074","1","2603.61919308","2609.41155601",
"sujeto_0048205","1","4","10","106","2609.55315304","inverse","4","1","1","¿Cuántas teclas tiene
 un piano moderno?","80","88",,"0","0","1","individual","left","1.09865808487","2610.65186119","3.90134191513","2614.70789123","3.7379219532","2618.44588017","2.2620780468","2620.76013112","2621.76859212","2621.81040812","2624.81339121","0","2624.82751608","2631.62527108",
"sujeto_0048205","1","4","11","107","2631.762362","direct","4","1","3","¿Cuántos países hay en África?","54","62",,"0","0","1","competitive","right","0.920449972153","2632.68287802","4.07955002785","2636.92110014","3.40770888329","2640.32885003","2.59229111671","2642.97242618","2644.66298509","2644.74029517","2647.74327803","0","2647.75746417","2655.562222",
"sujeto_0048205","1","4","12","108","2655.70947003","inverse","1","1","3","¿En qué siglo se crearon
 las primeras pistolas?","XV","XIII",,"1","1","1","competitive","left","1.08633208275","2656.79584718","3.91366791725","2660.85129905","5.03953099251","2665.89089704","0.960469007492","2666.88544607","2668.8333602","2668.90243506","2671.905406","1","2671.920609","2675.15368223",
"sujeto_0048205","1","4","13","109","2675.30624318","direct","3","1","4","¿En qué año se estrenó 
la serie friends?","1994","1995",,"0","0","1","competitive","left","1.49657487869","2676.80286503","3.50342512131","2680.46147609","3.79628896713","2684.25782704","2.20371103287","2686.51213503","2688.38749409","2688.46348405","2691.46644902","0","2691.48035407","2696.48642421",
"sujeto_0048205","1","4","14","110","2696.61553407","inverse","3","1","4","¿En qué año nació Hitler?","1889","1887",,"0","0","1","competitive","left","1.08464407921","2697.70029616","3.91535592079","2701.77086711","2.80694389343","2704.5778532","3.19305610657","2707.82237315","2708.93674302","2709.00754714","2712.0105381","0","2712.02466822","2717.0477581",
"sujeto_0048205","1","4","15","111","2717.17576909","direct","1","1","4","¿Cuánto pesa un elefante Africano?","6000 kilos","5400 kilos",,"0","0","0","competitive","left","0.915037870407","2718.09085417","4.08496212959","2722.33240914","3.99740600586","2726.32986212","2.00259399414","2728.38301802","2729.73893404","2729.81749701","2732.82049918","0","2732.83531117","2739.53975201",
"sujeto_0048205","1","4","16","112","2739.66971922","inverse","1","1","2","¿Qué porcentaje de 
la población es zurda?","10%","7%",,"1","1","0","competitive","left","1.04405903816","2740.71382308","3.95594096184","2744.82737207","4.02643203735","2748.85384512","1.97356796265","2750.86080003","2752.103899","2752.17936921","2755.18234706","1","2755.1965611","2761.17631006",
"sujeto_0048205","1","4","17","113","2761.3480351","direct","1","1","2","¿En qué año se estrenó
Volver al futuro?","1984","1985",,"0","0","1","competitive","left","1.10079693794","2762.44890714","3.89920306206","2766.50551414","4.13530111313","2770.64088416","1.86469888687","2772.55574822","2774.11757421","2774.19008112","2777.19303823","0","2777.2080791","2784.29953814",
"sujeto_0048205","1","4","18","114","2784.47551703","inverse","3","1","2","¿Cuántos jugadores hay en un 
equipo de baseball?","9","8",,"1","1","0","competitive","right","1.02927708626","2785.50486302","3.97072291374","2789.63322306","3.77355003357","2793.40681815","2.22644996643","2795.68473911","2797.29896402","2797.3857851","2800.38775611","1","2800.4026041","2805.37985301",
"sujeto_0048205","1","4","19","115","2805.5209651","direct","2","1","1","¿Cuántos Oscar ganó
 la película titanic?","13","11",,"1","1","1","individual","left","1.31684994698","2806.83786011","3.68315005302","2810.67538404","2.4413869381","2813.11683917","3.5586130619","2816.72694302","2818.0290072","2818.07886505","2821.08184314","1","2821.09679723","2825.69941115",
"sujeto_0048205","1","4","20","116","2825.84808421","inverse","4","1","4","¿En qué año comenzó
la segunda guerra mundial?","1939","1976","left","0","0","1","competitive","left","0.87872505188","2826.72688723","4.12127494812","2831.00440001","3.91345906258","2834.91792202","2.08654093742","2837.0388062","2838.83864212","2838.92364907","2841.92662001","1","2841.94087315","2845.92803001",
"sujeto_0048205","1","4","21","117","2846.05896211","direct","2","1","4","¿Cuántos biomas hay en Uruguay?","5","4",,"0","0","1","competitive","left","1.32083296776","2847.37987113","3.67916703224","2851.19900918","3.0617980957","2854.2608552","2.9382019043","2857.23294401","2859.03028202","2859.10062623","2862.1035862","0","2862.11877823","2868.3681891",
"sujeto_0048205","1","4","22","118","2868.503057","inverse","2","1","3","¿Cuándo murió Pablo Escobar?","1993","1997",,"1","1","1","competitive","right","2.17277503014","2870.67589903","2.82722496986","2873.66153407","4.11323690414","2877.77484012","1.88676309586","2879.694417","2881.47576904","2881.54633307","2884.54928803","1","2884.56326103","2890.26375818",
"sujeto_0048205","1","4","23","119","2890.39857817","direct","1","1","4","¿Qué serie ha ganado mas premios?","Friends","Murphy Brown",,"1","1","0","competitive","left","0.926246166229","2891.324898","4.07375383377","2895.55128622","2.71252703667","2898.26385808","3.28747296333","2901.58689713","2902.93922114","2903.02229404","2906.02527809","1","2906.03936601","2911.59977102",
"sujeto_0048205","1","4","24","120","2911.74068809","inverse","4","1","2","¿Cuántas fichas tiene el dominó?","26","28",,"1","1","1","competitive","left","1.35913300514","2913.0998652","3.64086699486","2916.89974117","3.6880800724","2920.58788419","2.3119199276","2922.9494462","2924.00474906","2924.08424115","2927.086905","1","2927.10111117","2932.34421301",
"sujeto_0048205","1","4","25","121","2932.4700892","direct","2","1","4","¿Cuántos son los dientes de leche?","20","25",,"0","0","1","competitive","left","1.01372599602","2933.48385906","3.98627400398","2937.643399","3.65845894814","2941.30193114","2.34154105186","2943.67741823","2945.38779521","2945.46243215","2948.46374011","0","2948.47995114","2950.62564111",
"sujeto_0048205","1","4","26","122","2950.78124404","inverse","3","1","3","¿Cuántos gramos son una onza?","22","28",,"0","0","1","competitive","right","1.34155607224","2952.12284422","3.65844392776","2955.93375611","3.6430478096","2959.57687116","2.3569521904","2961.96895003","2963.96376204","2964.03701711","2967.03975701","0","2967.05468607","2973.34493709",
"sujeto_0048205","1","4","27","123","2973.47314501","direct","3","1","1","¿Cuándo salió el primer album
 de los Beatles?","1963","1962",,"1","1","1","individual","left","1.3586499691","2974.83184314","3.6413500309","2978.63048601","3.87033700943","2982.50087118","2.12966299057","2984.68238306","2985.84601212","2985.88312101","2988.88609314","1","2988.90019703","2992.67224312",
"sujeto_0048205","1","4","28","124","2992.81801319","inverse","3","1","3","¿Quién fundó la empresa apple?","Carlos Slim","Steve Jobs",,"1","1","1","competitive","right","1.48079800606","2994.29888511","3.51920199394","2997.97421312","4.03557491302","3002.00982809","1.96442508698","3004.0251441","3005.13980412","3005.20913219","3008.21174002","1","3008.22708702","3014.52494311",
"sujeto_0048205","1","4","29","125","3014.67817211","direct","4","1","2","¿Cuántos municipios hay
 en Montevideo?","8","7",,"1","1","1","competitive","right","1.05763483047","3015.7358532","3.94236516953","3019.83497119","3.06681013107","3022.90182614","2.93318986893","3025.88641214","3027.80118823","3027.87073016","3030.87368512","1","3030.88864017","3032.96979308",
"sujeto_0048205","1","4","30","126","3033.10650516","inverse","1","1","1","¿Cuántos kilómetros hay
 de Montevideo a Artigas?","632","599",,"0","0","0","individual","left","1.32233905792","3034.42891002","3.67766094208","3038.25911307","4.07072997093","3042.32988715","1.92927002907","3044.31051207","3045.79364014","3045.84552813","3048.84852505","0","3048.86271119","3054.91480708",
"sujeto_0048205","1","4","31","127","3055.06444001","direct","2","1","2","¿En qué año nació 
Leonardo Da Vinci?","1452","1511",,"1","1","0","competitive","right","1.14941000938","3056.21391606","3.85058999062","3060.20632005","4.25046682358","3064.45685315","1.74953317642","3066.2567811","3068.11039805","3068.19121408","3071.1942122","1","3071.20852423","3074.35494304",
"sujeto_0048205","1","4","32","128","3074.494313","inverse","3","1","1","¿A qué continente
 pertenece el país Gabón?","Africa","Oceanía",,"0","0","1","individual","right","1.21652889252","3075.71091413","3.78347110748","3079.64946103","4.37437391281","3084.02389717","1.62562608719","3085.68386006","3087.49552011","3087.53438401","3090.53735423","0","3090.55238223","3095.78776503",
