"code","nro_aplicante","nro_bloque","nro_trial_bloque","nro_trial_global","show_game_type","choice_order","rival","pay_individual","pay_competitive","question","answer_left_text","answer_right_text","correct_answer","outcome_individual","outcome_competitive","outcome_rival","game_type","answer","social_time","rt_game_type","feedback_delay","show_question","answer_time","rt_answer_global","feedback_delay_2","show_jitter","jitter_time","show_outcome","outcome_time","outcome_participant_real","show_final_jitter","second_jitter_time","inicio_descanso"
"sujeto4541440b","1","1","1","1","725.072138071","direct","3","1","4","¿Cuántos centímetros corresponden
al talle 36 del calzado?","23","24","","0","0","1","competitive","left","2.26925516129","727.341434956","2.73074483871","730.244421959","3.97488594055","734.219378948","2.02511405945","736.279429913","737.307696104","737.380366087","740.383327007","0","740.397269964","742.559767008",""
"sujeto4541440b","1","1","2","2","742.699124098","inverse","3","1","2","¿Cuántas metros mide la Intendencia
Municipal de Montevideo? ","84","78","","0","0","1","competitive","left","2.40713596344","745.10630393","2.59286403656","747.854067087","3.4591729641","751.313282967","2.5408270359","753.887852907","755.765868902","755.839051008","758.839691877","0","758.856688023","760.949454069",""
"sujeto4541440b","1","1","3","3","761.091253996","direct","1","1","3","¿Cuántas La Pasiva
 hay en uruguay?","15","11","","1","1","1","competitive","left","2.02292585373","763.114245892","2.97707414627","766.247319937","3.16685295105","769.414216042","2.83314704895","772.297543049","773.90921998","773.983077049","776.983690977","1","776.99989295","781.275703907",""
"sujeto4541440b","1","1","4","4","781.451050043","inverse","3","1","3","¿De que color es la camiseta de uruguay?","blanca","celeste","right","1","1","1","competitive","right","1.96097421646","783.412071943","3.03902578354","786.607655048","3.20336198807","789.811083078","2.79663801193","792.657954931","793.862742901","793.943065882","796.946031094","1","796.959933996","800.413841009",""
"sujeto4541440b","1","1","5","5","800.578094959","direct","2","1","1","¿Cuánto metros mide
la torre Eiffel?","333","324","","1","1","1","competitive","right","1.93398785591","802.51218605","3.06601214409","805.734116077","3.03581595421","808.769974947","2.96418404579","811.783143044","813.304528952","813.384836912","816.387712955","1","816.402618885","823.439321041",""
"sujeto4541440b","1","1","6","6","823.58709693","inverse","3","1","4","¿Cuantas ciudades existen
 en todo el uruguay?","63","72","","0","0","1","competitive","right","2.52786493301","826.115016937","2.47213506699","828.745802879","3.20006513596","831.945935965","2.79993486404","834.794445038","835.849261999","835.929363012","838.932336092","0","838.94649291","846.573081017",""
"sujeto4541440b","1","1","7","7","846.714534998","direct","1","1","1","¿Cuantos estados tiene África?","52","54","","1","1","0","individual","left","1.89131498337","848.60591507","3.10868501663","851.890938044","2.96285605431","854.853852987","3.03714394569","857.924971104","859.789000034","859.826540947","862.829516888","1","862.843671083","868.604665041",""
"sujeto4541440b","1","1","8","8","868.74595809","inverse","4","1","4","¿En qué año nació
 Stephen Hawking?","1952","1942","","0","0","1","competitive","left","1.85181713104","870.597817898","3.14818286896","873.93569994","3.17909097672","877.114830971","2.82090902328","879.968854904","881.413136959","881.487371922","884.490345001","0","884.504429102","890.603728056",""
"sujeto4541440b","1","1","9","9","890.759452105","direct","2","1","3","¿Cuánto años tenía Artigas
 cuando se fue a Paraguay?","56","57","","1","1","1","competitive","right","2.12329602242","892.882790089","2.87670397758","895.913733006","4.48590683937","900.399705887","1.51409316063","901.963758945","903.513251066","903.597763062","906.600738049","1","906.61579895","912.663104057",""
"sujeto4541440b","1","1","10","10","912.800007105","inverse","1","1","2","¿Cuantos milímetros 
mide una hoja A2?","420x592","420x594","","0","0","1","competitive","left","2.32168292999","915.121741056","2.67831707001","917.975053072","5.58159399033","923.556713104","0.418406009674","924.026413918","925.594839096","925.676570892","928.679516077","0","928.694411039","935.768059969",""
"sujeto4541440b","1","1","11","11","935.946052074","direct","3","1","3","¿Cuál es la menor temperatura 
registrada en Uruguay?","-5.4","-7.4","","0","0","1","competitive","right","1.82358717918","937.769697905","3.17641282082","941.119750023","3.5079190731","944.627729893","2.4920809269","947.170594931","948.851638079","948.922283888","951.925271034","0","951.939583063","955.671685934",""
"sujeto4541440b","1","1","12","12","955.807370901","inverse","2","1","2","¿Cuantos años hace que 
se fundó facebook?","18","17","","0","0","0","competitive","right","1.79219388962","957.599606991","3.20780611038","960.980648041","3.49398303032","964.474675894","2.50601696968","967.014297962","968.387038946","968.465934992","971.468909025","0","971.48307991","974.257723093",""
"sujeto4541440b","1","1","13","13","974.384214878","direct","1","1","4","¿Cuál animal es más
 pesado en promedio?","Rinoceronte","Hipopotamo","","0","0","0","competitive","left","2.47049403191","976.854818106","2.52950596809","979.590110064","4.32956695557","983.919728041","1.67043304443","985.624445915","986.703696966","986.775178909","989.778168917","0","989.79211092","993.633116007",""
"sujeto4541440b","1","1","14","14","993.777472973","inverse","1","1","2","¿Qué personaje de dragon ball 
murió más veces?","Chaoz","Krillin","","1","1","0","competitive","right","2.67715501785","996.454675913","2.32284498215","998.949038982","3.14960384369","1002.09870601","2.85039615631","1004.99850798","1006.45565104","1006.53299904","1009.53597307","1","1009.5500679","1017.32006001",""
"sujeto4541440b","1","1","15","15","1017.45233989","direct","3","1","2","La universidad de oxford. 
existe desde:","1096","1249","","1","1","0","competitive","left","2.28631901741","1019.73872209","2.71368098259","1022.61258793","4.05908489227","1026.67171192","1.94091510773","1028.66311407","1029.71170306","1029.78060508","1032.78353405","1","1032.79768991","1039.48851299",""
"sujeto4541440b","1","1","16","16","1039.6321311","inverse","3","1","1","¿Qué escritor latino ganó antes
 el premio nobel?"," García Marquez","Neruda","","0","0","1","individual","left","2.80253410339","1042.43473697","2.19746589661","1044.80429506","4.74444198608","1049.54878688","1.25555801392","1050.84178996","1052.58180308","1052.62544489","1055.62842488","0","1055.64275908","1059.10327911",""
"sujeto4541440b","1","1","17","17","1059.2447691","direct","4","1","3","¿Cuántos dientes tiene un
 tiburón blanco?","6000","3000","","0","0","1","competitive","right","2.12795114517","1061.3727839","2.87204885483","1064.4340179","3.49367809296","1067.92773795","2.50632190704","1070.46806288","1071.50704789","1071.58544993","1074.58844399","0","1074.602386","1079.41206193",""
"sujeto4541440b","1","1","18","18","1079.55439091","inverse","4","1","1","¿Cuánto mide el paralelo Ecuador?","40.000km","70.000km","","0","0","1","individual","left","2.31136798859","1081.86580396","2.68863201141","1084.72298002","4.19275307655","1088.91580296","1.80724692345","1090.76042604","1092.71655607","1092.76178098","1095.76477289","0","1095.77894497","1099.38025904",""
"sujeto4541440b","1","1","19","19","1099.54967904","direct","4","1","2","¿Cuál fue el primer libro 
de Stephen King?","Carrie","The Stand","","1","1","1","competitive","left","2.36913108826","1101.91887307","2.63086891174","1104.71973801","3.58499979973","1108.30478001","2.41500020027","1110.77226591","1112.51635098","1112.58947897","1115.59245706","1","1115.60790706","1120.08234501",""
"sujeto4541440b","1","1","20","20","1120.22546291","inverse","2","1","3","¿Qué civilización practicaba
 la momificación?","Grecia","Egipto","right","0","0","1","competitive","right","2.1414039135","1122.36693406","2.8585960865","1125.39691496","3.46892905235","1128.8659029","2.53107094765","1131.44883299","1133.3876431","1133.46754193","1136.47053003","1","1136.48452997","1140.71332097",""
"sujeto4541440b","1","1","21","21","1140.87009907","direct","4","1","4","¿Cuántos millones de visitas
 recibe google por minuto?","3.0","4.5","","0","0","1","competitive","left","1.65970206261","1142.52986693","3.34029793739","1146.02625394","4.1355369091","1150.16184902","1.8644630909","1152.07575798","1153.59064388","1153.67635393","1156.67934489","0","1156.69426608","1163.81575203",""
"sujeto4541440b","1","1","22","22","1163.9620769","inverse","1","1","3","La máquina de fax. se inventó en:","1843","1960","","0","0","1","competitive","left","2.24682688713","1166.2089479","2.75317311287","1169.12063289","4.17429709435","1173.29497409","1.82570290565","1175.17038989","1176.41179895","1176.48788905","1179.4908421","0","1179.50495005","1182.74124503",""
"sujeto4541440b","1","1","23","23","1182.89033103","direct","2","1","4","En la verdadera historia de los
 300 espartanos. habían:","300 soldados","4300 soldados","","1","1","1","competitive","right","1.75968718529","1184.65008903","3.24031281471","1188.04802108","3.88503694534","1191.93312693","2.11496305466","1194.09817004","1195.35938907","1195.432652","1198.43564391","1","1198.44981289","1202.25158",""
"sujeto4541440b","1","1","24","24","1202.41777897","inverse","1","1","4","¿Cuántos milímetros crece
 el pelo por día?","0.4","0.04","","0","0","0","competitive","right","1.4623029232","1203.88014698","3.5376970768","1207.5740509","4.10199904442","1211.67611098","1.89800095558","1213.62468696","1215.38535309","1215.45993304","1218.46289492","0","1218.47678089","1225.21188402",""
"sujeto4541440b","1","1","25","25","1225.34513903","direct","4","1","1","¿Cuánto mide la baldosa gris 
clásica de Montevideo?","22x22 cm.","20x20 cm.","","1","1","1","individual","left","2.30498504639","1227.65018797","2.69501495361","1230.53579593","5.01329493523","1235.54915595","0.986705064774","1236.58720589","1238.58245802","1238.62177896","1241.62475395","1","1241.63861799","1247.18142009",""
"sujeto4541440b","1","1","26","26","1247.34095097","inverse","2","1","2","¿Cuántas películas de rápidos
 y furiosos hay?","10","11","","1","1","0","competitive","left","1.84027481079","1249.18126988","3.15972518921","1252.49810696","2.94104909897","1255.43919992","3.05895090103","1258.54840803","1259.90640807","1259.98329592","1262.98628092","1","1263.00025988","1265.03494",""
"sujeto4541440b","1","1","27","27","1265.16804695","direct","3","1","1","¿Cuántos masters 1000
 ganó Del Potro?","1","2","","1","1","1","individual","right","2.16930699348","1267.33742905","2.83069300652","1270.33987594","4.85535502434","1275.19529009","1.14464497566","1276.39157891","1278.14617205","1278.192384","1281.19535303","1","1281.20946693","1288.60581994",""
"sujeto4541440b","1","1","28","28","1288.744169","inverse","2","1","4","¿Cuántos meses dura el 
embarazo de una leona?","3 meses","4 meses","","0","0","1","competitive","right","1.75117588043","1290.49538898","3.24882411957","1293.90082908","4.23750495911","1298.1383841","1.76249504089","1299.95322394","1301.06427908","1301.13801408","1304.14097905","0","1304.15511394","1310.87759805",""
"sujeto4541440b","1","1","29","29","1311.00619698","direct","1","1","1","¿En qué año fue creado
 el sandwich?","1762","1653","","1","1","0","individual","left","2.99132490158","1313.99759293","2.00867509842","1316.17803597","3.28343486786","1319.46150994","2.71656513214","1322.22856688","1323.82713199","1323.86389804","1326.86687207","1","1326.88106608","1330.35165405",""
"sujeto4541440b","1","1","30","30","1330.499367","inverse","4","1","2","El nombre de la moneda de Vietnam es:","Dinar","Dong","","0","0","1","competitive","left","2.70064687729","1333.20013189","2.29935312271","1335.67143798","4.0681540966","1339.73965597","1.9318459034","1341.70828199","1343.14028502","1343.226264","1346.22770309","0","1346.24302006","1352.40767288",""
"sujeto4541440b","1","1","31","31","1352.54552293","direct","2","1","1","¿cuantos aleteos puede dar 
un colibrí por segundo?","120","50","","0","0","0","individual","right","2.30615592003","1354.8517499","2.69384407997","1357.70261002","4.5450758934","1362.24774599","1.4549241066","1363.73685503","1365.46922493","1365.52068901","1368.52363896","0","1368.53783202","1372.75010705",""
"sujeto4541440b","1","1","32","32","1372.8901329","inverse","4","1","3","¿Qué altura promedio tienen
 los hombres uruguayos?","1.73 m","1.72 m","","1","1","1","competitive","left","1.49368309975","1374.38388491","3.50631690025","1378.04529691","3.38249993324","1381.42783999","2.61750006676","1384.09625602","1385.35866594","1385.43080997","1388.43167806","1","1388.44863701","1392.92372108",""
"sujeto4541440b","1","2","1","33","1521.30048394","direct","1","1","1","¿En qué año nació 
el actor Bradd Pitt?","1967","1963","","1","1","1","individual","left","2.05411791801","1523.35465503","2.94588208199","1526.47211504","3.75952506065","1530.23168111","2.24047493935","1532.52480292","1533.62066793","1533.6588099","1536.66178393","1","1536.67498302","1542.6025641","1392.9382391"
"sujeto4541440b","1","2","2","34","1542.74392891","inverse","2","1","1","¿Cual es el segundo 
monte más alto?","Kanchenjunga","K2","","1","1","1","individual","left","2.36779689789","1545.11179996","2.63220310211","1547.89965892","4.32812309265","1552.227844","1.67187690735","1553.93505907","1555.38743997","1555.43645906","1558.43942094","1","1558.453403","1561.88329411",""
"sujeto4541440b","1","2","3","35","1562.05542493","direct","3","1","1","¿Cuándo finalizó la construcción
 del Palacio Legislativo?","1925","1917","","0","0","1","competitive","left","2.58944797516","1564.64494896","2.41055202484","1567.22331905","4.55156803131","1571.77492809","1.44843196869","1573.27823901","1574.91966796","1574.99530292","1577.99829102","0","1578.01248288","1583.70772099",""
"sujeto4541440b","1","2","4","36","1583.84826803","inverse","3","1","3","¿Cuántos integrantes tenía
 en su inicio  el cuarteto de nos?","3","4","","1","1","1","competitive","right","1.19777202606","1585.04608893","3.80222797394","1589.00577688","3.33923506737","1592.34507895","2.66076493263","1595.0564599","1596.189574","1596.274405","1599.2773869","1","1599.29162407","1604.94143796",""
"sujeto4541440b","1","2","5","37","1605.07641006","direct","2","1","3","¿Qué valor tiene el número pi?","3.14","4.18","left","0","0","1","competitive","left","1.97373509407","1607.05022311","3.02626490593","1610.23340011","2.00473809242","1612.2382071","3.99526190758","1616.28309703","1617.73732901","1617.81950998","1620.82251","1","1620.83552504","1627.75652194",""
"sujeto4541440b","1","2","6","38","1627.88727403","inverse","2","1","2","¿Cuál es la esperanza de vida
 en Uruguay?","75","77","","1","1","0","competitive","right","1.87601423264","1629.76335692","3.12398576736","1633.0615921","3.30068397522","1636.36231709","2.69931602478","1639.11307788","1640.7668941","1640.84795499","1643.85092998","1","1643.86509395","1650.32810402",""
"sujeto4541440b","1","2","7","39","1650.46608496","direct","1","1","2","¿Cuantos pisos tiene la torre 
de las comunicaciones?","26","32","","1","1","0","competitive","right","1.82536482811","1652.29149199","3.17463517189","1655.63774204","3.81069803238","1659.44850492","2.18930196762","1661.67285991","1663.50162911","1663.57427096","1666.57726192","1","1666.59121203","1668.73739791",""
"sujeto4541440b","1","2","8","40","1668.92592502","inverse","2","1","4","¿En qué país sudamericano 
no hay McDonalds?","Bolivia","Venezuela","","0","0","1","competitive","left","1.4917049408","1670.41769791","3.5082950592","1674.06738997","4.18423390388","1678.25168705","1.81576609612","1680.11794496","1681.42727709","1681.50208902","1684.5050621","0","1684.51927304","1690.87568903",""
"sujeto4541440b","1","2","9","41","1691.00410604","direct","3","1","1","¿En qué año empieza
 la Edad Media?","476","512","","1","1","1","individual","right","1.52763700485","1692.53178692","3.47236299515","1696.161551","4.16917395592","1700.33079505","1.83082604408","1702.21277404","1703.61653996","1703.66321802","1706.66617894","1","1706.68094707","1709.66951203",""
"sujeto4541440b","1","2","10","42","1709.81557107","inverse","3","1","4","¿Hace cuántos años surgió
 el ser humano?","200mil","300mil","","0","0","0","competitive","left","1.14727210999","1710.96290898","3.85272789001","1714.97124004","3.27369213104","1718.24497104","2.72630786896","1721.02224302","1722.90822911","1722.98924994","1725.99223495","0","1726.00713396","1729.31570601",""
"sujeto4541440b","1","2","11","43","1729.45907092","direct","3","1","4","¿Cuántas cuadras tiene
 actualmente 18 de julio? ","36","33","","0","0","1","competitive","left","2.23792314529","1731.69706702","2.76207685471","1734.61489701","3.9411418438","1738.55609894","2.0588581562","1740.66637397","1742.367697","1742.45036292","1745.45332503","0","1745.46747994","1750.19374299",""
"sujeto4541440b","1","2","12","44","1750.33605003","inverse","1","1","4","¿Qué juego de equipo se 
considera mas rápido?","Lacrosse","Badminton","","0","0","0","competitive","left","1.54710912704","1751.88320804","3.45289087296","1755.47633696","4.45082497597","1759.92722297","1.54917502403","1761.52692294","1762.7700429","1762.8442049","1765.84714007","0","1765.86121702","1773.855654",""
"sujeto4541440b","1","2","13","45","1773.99604106","direct","1","1","3","¿Qué promedio de edad 
vive una jirafa? ","25","20","","0","0","1","competitive","left","1.45132613182","1775.44743395","3.54867386818","1779.137748","3.7526049614","1782.890414","2.2473950386","1785.18910408","1786.95057511","1787.02351689","1790.02648592","0","1790.04056311","1795.99627304",""
"sujeto4541440b","1","2","14","46","1796.17591691","inverse","1","1","2","¿Cuántos grandes lagos hay?","7","5","","0","0","1","competitive","left","1.7275660038","1797.90355396","3.2724339962","1801.3320539","4.76253795624","1806.0946331","1.23746204376","1807.36645794","1808.65857196","1808.73427606","1811.73728895","0","1811.75142908","1819.57166195",""
"sujeto4541440b","1","2","15","47","1819.70288491","direct","3","1","2","¿Cuántos discos de estudio
 grabó Johhny Cash? ","54","43","","1","1","0","competitive","right","2.89577412605","1822.59871006","2.10422587395","1824.85826206","3.09543514252","1827.953758","2.90456485748","1830.89621806","1832.17485499","1832.26371694","1835.2666769","1","1835.28153491","1841.93243694",""
"sujeto4541440b","1","2","16","48","1842.08313608","inverse","4","1","1","¿Cuántos barrios tiene
 Montevideo? ","71","62","","0","0","1","individual","right","1.41075015068","1843.4939549","3.58924984932","1847.24027109","3.50765395164","1850.7479651","2.49234604836","1853.29065609","1854.29773188","1854.3424449","1857.34370589","0","1857.35885596","1862.82085204",""
"sujeto4541440b","1","2","17","49","1862.9938519","direct","3","1","3","¿Qué edad tiene Homero Simpson?","36","42","","0","0","1","competitive","left","2.23613905907","1865.2300601","2.76386094093","1868.13450503","2.06450986862","1870.19905806","3.93549013138","1874.16812205","1875.5441649","1875.62010288","1878.62307501","0","1878.63726807","1883.02599502",""
"sujeto4541440b","1","2","18","50","1883.17266798","inverse","4","1","2","¿Cuántos países con monarquía 
hay en europa actualmente? ","6","10","","1","1","1","competitive","right","1.89148688316","1885.064219","3.10851311684","1888.34496808","4.29320001602","1892.63822889","1.70679998398","1894.37922406","1895.81752205","1895.89684296","1898.89969802","1","1898.91465688","1905.06769204",""
"sujeto4541440b","1","2","19","51","1905.21647811","direct","2","1","3","¿Cuántos capítulos de
 Friends existen? ","236","228","","1","1","1","competitive","right","1.77785396576","1906.99437499","3.22214603424","1910.37346292","3.90484690666","1914.2783699","2.09515309334","1916.42439294","1917.72996306","1917.80835104","1920.81130409","1","1920.82548904","1923.20112896",""
"sujeto4541440b","1","2","20","52","1923.34432602","inverse","1","1","3","¿Cuántas óperas compuso Mozart? ","27","22","","1","1","1","competitive","right","2.07013392448","1925.41453004","2.92986607552","1928.49975395","3.99073696136","1932.49053693","2.00926303864","1934.55081892","1935.84297609","1935.91802907","1938.92101502","1","1938.93546009","1946.24693298",""
"sujeto4541440b","1","2","21","53","1946.3868041","direct","4","1","3","¿Cuántos mundiales de fútbol 
femenino ha realizado FIFA? ","9","7","","1","1","1","competitive","left","1.64690804482","1948.0337801","3.35309195518","1951.54506397","4.28264594078","1955.82777095","1.71735405922","1957.59560108","1958.83928609","1958.91373897","1961.91669393","1","1961.93080902","1968.03327608",""
"sujeto4541440b","1","2","22","54","1968.19614506","inverse","3","1","2","¿Cuál es la temperatura 
media anual en Montevideo? ","17.5","16.3","","0","0","1","competitive","left","1.3906750679","1969.58687305","3.6093249321","1973.35575199","4.0331120491","1977.388906","1.9668879509","1979.40691304","1981.34551692","1981.42462707","1984.42759395","0","1984.44260097","1991.01213598",""
"sujeto4541440b","1","2","23","55","1991.14425206","direct","2","1","2","¿En qué año se estrenó el
 videojuego The Sims? ","2000","2002","","0","0","0","competitive","left","1.45176815987","1992.59606504","3.54823184013","1996.30025411","3.78180909157","2000.08212495","2.21819090843","2002.35259104","2004.21462011","2004.28681302","2007.28980303","0","2007.30476189","2014.6984241",""
"sujeto4541440b","1","2","24","56","2014.83952904","inverse","2","1","1","¿Cuál es la canción con 
mas covers? ","Yesterday","Stand by me","","0","0","0","individual","right","1.78771519661","2016.62729096","3.21228480339","2019.99746299","3.85069513321","2023.84819698","2.14930486679","2026.04776788","2027.44628096","2027.48326397","2030.48617411","0","2030.50030804","2034.67116499",""
"sujeto4541440b","1","2","25","57","2034.85194492","direct","1","1","4","¿Cuánto duró la guerra
 de los 100 años?","116","123","","0","0","0","competitive","left","1.41934585571","2036.27133393","3.58065414429","2040.00866103","1.98974704742","2041.99844909","4.01025295258","2046.05739188","2047.53823805","2047.60940099","2050.61235404","0","2050.62655997","2052.94632006",""
"sujeto4541440b","1","2","26","58","2053.09588099","inverse","4","1","4","¿Qué color tiene la  bandera de Brasil?","Amarillo","Naranja","left","0","0","1","competitive","left","1.70062398911","2054.79657888","3.29937601089","2058.26708388","2.97942686081","2061.24655199","3.02057313919","2064.30094194","2065.86741996","2065.95266891","2068.9556179","1","2068.969697","2071.99965191",""
"sujeto4541440b","1","2","27","59","2072.13818407","direct","4","1","3","¿Qué carabela de 
Colon no volvió del viaje?","Santa María","La pinta","","0","0","1","competitive","right","2.11147403717","2074.24970198","2.88852596283","2077.30815101","5.15856599808","2082.46675706","0.841434001923","2083.3440969","2084.83512688","2084.91110396","2087.91168094","0","2087.92800593","2090.02748609",""
"sujeto4541440b","1","2","28","60","2090.16339993","inverse","4","1","4","¿Cuántos huesos tiene
 un adulto humano?","217","206","","0","0","1","competitive","right","1.26442790031","2091.42790294","3.73557209969","2095.3199029","2.44694709778","2097.76691103","3.55305290222","2101.35297894","2102.62401795","2102.70567107","2105.70867205","0","2105.72287202","2113.56055188",""
"sujeto4541440b","1","2","29","61","2113.7071929","direct","1","1","1","¿Qué país africano fue 
fundado por esclavos?","Liberia","Chad","","0","0","0","individual","right","2.21986889839","2115.9271121","2.78013110161","2118.8497479","4.27735710144","2123.12716794","1.72264289856","2124.88379598","2126.87543702","2126.91760111","2129.92057204","0","2129.93558908","2137.92639208",""
"sujeto4541440b","1","2","30","62","2138.06993508","inverse","4","1","2","¿A cuánto asciende la cima
 del monte Everest?","7.990 mts","8.848 mts","","0","0","1","competitive","right","1.75330805779","2139.82330489","3.24669194221","2143.24268293","3.82360601425","2147.06633091","2.17639398575","2149.29651809","2150.48130894","2150.56371188","2153.56666589","0","2153.58062601","2160.76364803",""
"sujeto4541440b","1","2","31","63","2160.91614699","direct","4","1","1","¿Cuál es el país mas chico?","Sealand","Luxemburgo","","1","1","1","individual","right","1.59324002266","2162.50945091","3.40675997734","2166.07112789","3.91132497787","2169.982512","2.08867502213","2172.10547709","2173.96898007","2174.00654197","2177.00946188","1","2177.02453589","2180.14678192",""
"sujeto4541440b","1","2","32","64","2180.29320288","inverse","2","1","4","¿Cuántas pirámides hay en Egipto?","10000","11000","","1","1","1","competitive","left","1.39235115051","2181.68559909","3.60764884949","2185.43320608","4.55340790749","2189.986655","1.44659209251","2191.48504591","2192.51858902","2192.60195589","2195.60363603","1","2195.61881399","2200.72785497",""
"sujeto4541440b","1","3","1","65","2328.62350893","direct","2","1","2","¿Cuál es el quinto país con 
mas extensión?","Canadá","Brasil","","1","1","0","competitive","left","2.79313588142","2331.41669703","2.20686411858","2333.77833796","5.05235290527","2338.83072901","0.947647094727","2339.830477","2341.16366291","2341.24821901","2344.25119209","1","2344.26537204","2351.99172711","2200.74235892"
"sujeto4541440b","1","3","2","66","2352.13317895","inverse","1","1","2","¿Qué rasgo facial no tiene
 la Mona Lisa?","Cejas","Pómulos","","0","0","1","competitive","left","2.13584899902","2354.26909089","2.86415100098","2357.29217696","3.41487884521","2360.70709705","2.58512115479","2363.34143901","2365.09169793","2365.17714095","2368.18010211","0","2368.19423008","2374.46556997",""
"sujeto4541440b","1","3","3","67","2374.5953989","direct","4","1","3","¿Cuál es el país con 
mayor población?","Esados Unidos","China","right","0","0","1","competitive","right","1.41582989693","2376.01128411","3.58417010307","2379.75356889","3.5308380127","2383.28445005","2.4691619873","2385.80381608","2387.44977808","2387.52172399","2390.52470303","1","2390.53883505","2393.90617204",""
"sujeto4541440b","1","3","4","68","2394.04115009","inverse","1","1","1","La palabra dinosaurio significa","Lagarto Terrible","Lagarto Dragón","","1","1","0","individual","left","1.66242599487","2395.70363498","3.33757400513","2399.21393394","3.98069286346","2403.19467211","2.01930713654","2405.26444888","2406.43473792","2406.48259401","2409.48554897","1","2409.49944806","2412.361274",""
"sujeto4541440b","1","3","5","69","2412.50101995","direct","2","1","3","¿Qué es el membrillero?","Arbol","Arbusto","","0","0","0","competitive","right","2.28580403328","2414.78687596","2.71419596672","2417.65689993","4.00098800659","2421.65793204","1.99901199341","2423.70769","2425.66175199","2425.74158096","2428.74456906","0","2428.75983191","2435.22387004",""
"sujeto4541440b","1","3","6","70","2435.36102605","inverse","3","1","3","¿Alrededor de qué planeta orbita 
el satélite Europa?","Jupiter","Saturno","","1","1","1","competitive","left","1.31104207039","2436.67213106","3.68895792961","2440.5179081","4.8202829361","2445.33825493","1.1797170639","2446.56945491","2448.11426306","2448.18633294","2451.18931794","1","2451.20450997","2453.40968895",""
"sujeto4541440b","1","3","7","71","2453.55562711","direct","3","1","1","¿Donde fue el mundial de 
fútbol de 1954?","Suiza","Suecia","","1","1","1","individual","left","2.06272506714","2455.61841798","2.93727493286","2458.72775388","3.98964905739","2462.7174449","2.01035094261","2464.77864408","2466.03127408","2466.07958198","2469.08253598","1","2469.096488","2473.00829291",""
"sujeto4541440b","1","3","8","72","2473.16502404","inverse","1","1","4","¿Cuál de los 7 enanitos
no tenía barba?","Bashful","Mudito","","1","1","0","competitive","right","2.03460001945","2475.19969606","2.96539998055","2478.32153511","4.96815109253","2483.28974605","1.03184890747","2484.37345791","2485.95357299","2486.02309394","2489.02607703","1","2489.04134011","2493.970438",""
"sujeto4541440b","1","3","9","73","2494.10977507","direct","3","1","2","¿Cual red social es
mas utilizada mundialmente?","Instagram","Facebook","","1","1","0","competitive","right","2.35204601288","2496.46189809","2.64795398712","2499.29872298","3.43620681763","2502.73497105","2.56379318237","2505.35020709","2507.26759696","2507.35105896","2510.354038","1","2510.36919689","2513.30370402",""
"sujeto4541440b","1","3","10","74","2513.45461297","inverse","4","1","1","¿Cuándo se inició la copa
 América de fútbol?","1916","1923","","1","1","1","individual","right","1.75551986694","2515.21017504","3.24448013306","2518.62661195","3.8445558548","2522.47121191","2.1554441452","2524.66090107","2526.55834198","2526.59483695","2529.59781098","1","2529.61303592","2532.26914406",""
"sujeto4541440b","1","3","11","75","2532.41473007","direct","3","1","4","¿Cuántos presidentes de EEUU
han muerto asesinados?","3","4","","0","0","1","competitive","left","1.13861012459","2533.553442","3.86138987541","2537.5738821","2.32851004601","2539.90245795","3.67148995399","2543.61513209","2545.09908509","2545.18369508","2548.18668509","0","2548.2008419","2551.84377789",""
"sujeto4541440b","1","3","12","76","2552.00241709","inverse","2","1","4","¿Cuántas veces participó EEUU
 en la copa América?","4","5","","0","0","1","competitive","right","1.22421789169","2553.22672296","3.77578210831","2557.14409804","2.91658902168","2560.06075907","3.08341097832","2563.19579291","2564.63990092","2564.71395302","2567.71693897","0","2567.73109889","2573.8482821",""
"sujeto4541440b","1","3","13","77","2573.98277593","direct","4","1","1","¿Cuál de estos países 
no formaba la URSS?","Azeribayán","Afganistán","","0","0","1","individual","left","1.51812982559","2575.5009799","3.48187017441","2579.15892506","5.01802802086","2584.17699099","0.981971979141","2585.20952988","2586.52258492","2586.55989909","2589.56284308","0","2589.57701206","2597.55915499",""
"sujeto4541440b","1","3","14","78","2597.71192789","inverse","1","1","1","¿En qué año se inauguró
 el teatro Solís?","1867","1856","","0","0","0","individual","left","1.70521211624","2599.4172039","3.29478788376","2602.86965895","3.27251791954","2606.14221406","2.72748208046","2608.92150307","2609.97782302","2610.0228219","2613.02579808","0","2613.03995705","2619.68769407",""
"sujeto4541440b","1","3","15","79","2619.82531404","direct","1","1","4","¿A qué velocidad vuela 
el avión más rápido?","3529","3874","","0","0","0","competitive","right","1.8501200676","2621.67549801","3.1498799324","2624.99673605","5.45383119583","2630.45061398","0.546168804169","2631.05058408","2632.806113","2632.88322997","2635.8862071","0","2635.90121388","2638.01148391",""
"sujeto4541440b","1","3","16","80","2638.15273404","inverse","3","1","4","¿De qué año es la primer 
película cinematográfica?","1897","1888","","0","0","0","competitive","right","2.47992920876","2640.63270688","2.52007079124","2643.30854893","4.86823606491","2648.17683101","1.13176393509","2649.35804892","2650.49101496","2650.57579899","2653.57876611","0","2653.59313607","2658.99967289",""
"sujeto4541440b","1","3","17","81","2659.12729907","direct","2","1","3","¿Cuántos países 
tiene nuestro planeta?","191","194","","1","1","1","competitive","right","1.95364308357","2661.08099198","3.04635691643","2664.31841707","5.41754198074","2669.73602605","0.582458019257","2670.37192798","2671.72915411","2671.80546498","2674.80841899","1","2674.822721","2678.06100202",""
"sujeto4541440b","1","3","18","82","2678.20707202","inverse","2","1","2","¿Cuántos habitantes
 tiene Buenos Aires?","2.9000.000","3650000","","0","0","0","competitive","left","3.48208379745","2681.68919992","1.51791620255","2683.36354208","5.58662414551","2688.95023298","0.413375854492","2689.41523004","2690.81171298","2690.88145399","2693.88441396","0","2693.89943099","2699.72882104",""
"sujeto4541440b","1","3","19","83","2699.86785293","direct","2","1","1","¿Cuántos kilos forman una tonelada?","1000","1500","left","1","1","1","individual","left","1.78054690361","2701.64844298","3.21945309639","2705.04080105","2.33769488335","2707.37855697","3.66230511665","2711.089324","2712.97665","2713.02474093","2716.02771306","1","2716.04185605","2721.99927902",""
"sujeto4541440b","1","3","20","84","2722.14346695","inverse","4","1","4","¿Cuántos estados tiene la 
República del Perú? ","24","23","","0","0","1","competitive","left","2.43416881561","2724.5776999","2.56583118439","2727.33446908","4.19019508362","2731.52472806","1.80980491638","2733.3857131","2734.40758395","2734.48651791","2737.48951006","0","2737.50373197","2742.44898605",""
"sujeto4541440b","1","3","21","85","2742.60540605","direct","3","1","3","¿En qué año nació Cristóbal Colón? ","1451","1447","","0","0","1","competitive","right","1.55244803429","2744.15789795","3.44755196571","2747.7643671","3.82855701447","2751.59296298","2.17144298553","2753.79752803","2755.643435","2755.71589494","2758.71887803","0","2758.73306489","2762.95966911",""
"sujeto4541440b","1","3","22","86","2763.10173988","inverse","4","1","4","¿Cuánto mide la 
Montaña Aconcagua? ","6234","6962","","0","0","1","competitive","right","1.0793941021","2764.18120193","3.9206058979","2768.257761","4.83251190186","2773.09031391","1.16748809814","2774.30925608","2775.59862494","2775.67624688","2778.67920089","0","2778.69314289","2785.876791",""
"sujeto4541440b","1","3","23","87","2786.01145506","direct","2","1","4","¿Cuánto mide el punto
 más profundo del océano? ","12508","11003","","0","0","1","competitive","left","1.69694709778","2787.70846701","3.30305290222","2791.16669607","5.24474596977","2796.41150808","0.755254030228","2797.20303392","2798.45451808","2798.53709888","2801.53969002","0","2801.5536139","2805.75969291",""
"sujeto4541440b","1","3","24","88","2805.90564203","inverse","1","1","3","¿Cuántos álbumes ha publicado 
el cantante Jaime Roos? ","41","34","","0","0","1","competitive","left","2.81001210213","2808.71570206","2.18998789787","2811.06287599","3.75583600998","2814.81877995","2.24416399002","2817.114218","2818.60407591","2818.68277693","2821.68574595","0","2821.70000601","2827.8961699",""
"sujeto4541440b","1","3","25","89","2828.05108094","direct","4","1","3","¿En qué año nació el 
ex-presidente Jorge Battle? ","1921","1927","","1","1","1","competitive","left","2.25989985466","2830.31104803","2.74010014534","2833.24197388","3.82299995422","2837.06501698","2.17700004578","2839.29351401","2841.02421093","2841.09429288","2844.09569097","1","2844.11197591","2847.59800506",""
"sujeto4541440b","1","3","26","90","2847.76279807","inverse","1","1","3","¿Cuántas presidencias 
constitucionales  hubo en Uruguay? ","41","42","","0","0","1","competitive","right","2.26437115669","2850.02722001","2.73562884331","2852.9358871","4.34733009338","2857.28327894","1.65266990662","2858.97025108","2860.17404389","2860.2544899","2863.25743389","0","2863.27151799","2869.05515599",""
"sujeto4541440b","1","3","27","91","2869.18972993","direct","1","1","2","¿Quién escribió mas sinfonías?","Mozart","Haydn","","1","1","0","competitive","left","2.04764604568","2871.23742294","2.95235395432","2874.34535289","3.79307103157","2878.138484","2.20692896843","2880.38058996","2881.59805393","2881.68157196","2884.68455195","1","2884.69845796","2888.44984007",""
"sujeto4541440b","1","3","28","92","2888.60189009","inverse","4","1","2","¿En qué año nació Michael Jackson?","1958","1953","","1","1","1","competitive","left","0.885743141174","2889.48773503","4.11425685883","2893.77351904","4.63518309593","2898.40877008","1.36481690407","2899.82517695","2901.80343699","2901.89246011","2904.89547896","1","2904.9096911","2910.77202106",""
"sujeto4541440b","1","3","29","93","2910.91062188","direct","3","1","2","¿En qué año entró en vigencia 
la ley antitabaco en Uruguay?","2005","2006","","1","1","1","competitive","left","2.13024306297","2913.04093504","2.86975693703","2916.06885195","3.9590780735","2920.02797508","2.0409219265","2922.10281992","2923.69758105","2923.77110004","2926.77407694","1","2926.7883389","2932.1196959",""
"sujeto4541440b","1","3","30","94","2932.25664496","inverse","3","1","1","¿Cuándo se subió el 
primer video a youtube?","2004","2005","","0","0","1","individual","right","1.96347284317","2934.22019291","3.03652715683","2937.42944407","2.41867518425","2939.84816098","3.58132481575","2943.47936201","2944.78501511","2944.83126402","2947.83420992","0","2947.84914398","2955.60475802",""
"sujeto4541440b","1","3","31","95","2955.76780295","direct","2","1","1","¿Cuántos habitantes tiene India?","1200 millones","1300 millones","","0","0","0","individual","right","1.09351396561","2956.86139107","3.90648603439","2960.92408991","4.16331791878","2965.08747697","1.83668208122","2966.97599006","2968.94562888","2968.9938159","2971.99677896","0","2972.01176691","2978.05929589",""
"sujeto4541440b","1","3","32","96","2978.21373701","inverse","4","1","2","¿A qué edad murió Bob Marley?","36","37","","0","0","1","competitive","right","1.44783997536","2979.66163993","3.55216002464","2983.38424706","3.00741696358","2986.39172506","2.99258303642","2989.43573809","2991.33358288","2991.42124391","2994.42423606","0","2994.43842411","2997.53967309",""
"sujeto4541440b","1","4","1","97","3156.47571111","direct","2","1","1","¿Cuantos años dirigió la selección 
uruguaya Tabarez?","15 años","13 años","","0","0","0","individual","left","2.09586215019","3158.57165098","2.90413784981","3161.64802289","3.26852488518","3164.91660595","2.73147511482","3167.69780397","3168.88896489","3168.9323101","3171.93528199","0","3171.94938397","3179.01967406","2997.55456591"
"sujeto4541440b","1","4","2","98","3179.16844392","inverse","4","1","1","¿Cuantas teclas tiene un teclado 
de computadora generalmente? ","Entre 99 y 108","Entre 109 y 113","","1","1","1","individual","right","1.75840497017","3180.92692208","3.24159502983","3184.34306598","5.74384498596","3190.086972","0.256155014038","3190.39486504","3191.39763403","3191.444484","3194.44745398","1","3194.46249604","3196.83391809",""
"sujeto4541440b","1","4","3","99","3196.9803431","direct","1","1","1","¿Cuál Departamento tiene
 mayor superficie?","Río Negro","Soriano","","0","0","0","individual","right","1.07463502884","3198.0550251","3.92536497116","3202.15250397","4.42749881744","3206.58003902","1.57250118256","3208.18668294","3209.90016699","3209.93778491","3212.94076395","0","3212.9549799","3217.28104591",""
"sujeto4541440b","1","4","4","100","3217.44018698","inverse","3","1","2","¿Cuál es el apellido de las 
hermanastras  de  cenicienta?","Tremaine","Truman","","0","0","1","competitive","left","1.69604086876","3219.1362741","3.30395913124","3222.59688997","4.71635103226","3227.31330395","1.28364896774","3228.64825988","3230.51779389","3230.59876609","3233.59967494","0","3233.61628199","3236.31222606",""
"sujeto4541440b","1","4","5","101","3236.45116711","direct","4","1","4","¿Cuál película ganó un
 Oscar a mejor película?","Alto Impacto","Cache","","0","0","1","competitive","right","1.22724103928","3237.678509","3.77275896072","3241.62100911","4.78837013245","3246.40941811","1.21162986755","3247.6733489","3248.79274106","3248.874475","3251.87743807","0","3251.89140511","3254.156039",""
"sujeto4541440b","1","4","6","102","3254.2925179","inverse","1","1","3","¿A cuántos centímetros
equivale la medida pié?","25","30","","0","0","1","competitive","right","2.00609993935","3256.29868889","2.99390006065","3259.4482429","3.46541810036","3262.91372299","2.53458189964","3265.48297095","3266.52298403","3266.60142493","3269.60441709","0","3269.6181581","3275.01908898",""
"sujeto4541440b","1","4","7","103","3275.17179394","direct","2","1","2","¿Qué departamento es mas grande?","Cerro Largo","Paysandú","","0","0","0","competitive","left","3.31504607201","3278.48693895","1.68495392799","3280.35996389","2.27891492844","3282.63892198","3.72108507156","3286.39416289","3287.99393201","3288.07894611","3291.08189893","0","3291.096313","3295.20629501",""
"sujeto4541440b","1","4","8","104","3295.3480401","inverse","2","1","3","¿Quién pintó la Mona Lisa?","Picasso","Da Vinci","right","0","0","1","competitive","right","2.38501811028","3297.73316598","2.61498188972","3300.52170706","2.59540510178","3303.11717296","3.40459489822","3306.55502605","3308.16089892","3308.23951888","3311.2425251","1","3311.25753808","3313.41986895",""
"sujeto4541440b","1","4","9","105","3313.55897903","direct","4","1","3","¿Cuántos litros hay en un galon?","3.54","3.78","","1","1","1","competitive","right","1.22628903389","3314.78534508","3.77371096611","3318.71384311","3.34437704086","3322.0582571","2.65562295914","3324.74719501","3326.2650919","3326.34949994","3329.35247993","1","3329.36654902","3335.15890193",""
"sujeto4541440b","1","4","10","106","3335.30142903","inverse","4","1","1","¿Cuántas teclas tiene
 un piano moderno?","80","88","","0","0","1","individual","right","2.94110012054","3338.24258494","2.05889987946","3340.47480106","3.19375801086","3343.66860199","2.80624198914","3346.52595091","3347.53435588","3347.57692695","3350.57989597","0","3350.59468293","3357.39164495",""
"sujeto4541440b","1","4","11","107","3357.52971506","direct","4","1","3","¿Cuántos países hay en África?","54","62","","0","0","1","competitive","left","2.51698899269","3360.04677701","2.48301100731","3362.7019341","2.27379393578","3364.97579098","3.72620606422","3368.7541461","3370.44366288","3370.52193499","3373.5248611","0","3373.53982711","3381.34459496",""
"sujeto4541440b","1","4","12","108","3381.49182796","inverse","1","1","3","¿En qué siglo se crearon
 las primeras pistolas?","XV","XIII","","1","1","1","competitive","right","1.58816599846","3383.08006001","3.41183400154","3386.64866996","4.65438079834","3391.30310988","1.34561920166","3392.6998601","3394.6476481","3394.73378897","3397.73678899","1","3397.750772","3400.98387408",""
"sujeto4541440b","1","4","13","109","3401.1195941","direct","3","1","4","¿En qué año se estrenó 
la serie friends?","1994","1995","","0","0","1","competitive","left","1.20658397675","3402.32623506","3.79341602325","3406.27697206","2.37030601501","3408.64732003","3.62969398499","3412.32604408","3414.20139003","3414.27797103","3417.27970195","0","3417.29610896","3422.30216503",""
"sujeto4541440b","1","4","14","110","3422.44709897","inverse","3","1","4","¿En qué año nació Hitler?","1889","1887","","0","0","1","competitive","left","2.75329709053","3425.20049691","2.24670290947","3427.62022591","3.18121910095","3430.8015089","2.81878089905","3433.65489292","3434.76927805","3434.84003997","3437.84302902","0","3437.85627294","3442.87966704",""
"sujeto4541440b","1","4","15","111","3443.00797009","direct","1","1","4","¿Cuánto pesa un elefante Africano?","6000 kilos","5400 kilos","","0","0","0","competitive","left","1.85063505173","3444.85867","3.14936494827","3448.19906902","2.93362021446","3451.13273001","3.06637978554","3454.24842191","3455.60435009","3455.68343091","3458.6864171","0","3458.70048189","3465.403651",""
"sujeto4541440b","1","4","16","112","3465.53611302","inverse","1","1","2","¿Qué porcentaje de 
la población es zurda?","10%","7%","","1","1","0","competitive","left","1.84373021126","3467.37990594","3.15626978874","3470.69425797","2.14264392853","3472.83694506","3.85735607147","3476.74296188","3477.98607993","3478.06198096","3481.06370211","1","3481.07877088","3487.05849791",""
"sujeto4541440b","1","4","17","113","3487.19745588","direct","1","1","2","¿En qué año se estrenó
Volver al futuro?","1984","1985","","0","0","1","competitive","right","1.62747597694","3488.82497001","3.37252402306","3492.354357","3.49278783798","3495.84720397","2.50721216202","3498.38901591","3499.95081306","3500.02362394","3503.02662492","0","3503.04072595","3510.13212299",""
"sujeto4541440b","1","4","18","114","3510.25935888","inverse","3","1","2","¿Cuántos jugadores hay en un 
equipo de baseball?","9","8","","1","1","0","competitive","left","1.5499150753","3511.80933809","3.4500849247","3515.41693211","4.37646913528","3519.79344201","1.62353086472","3521.45123601","3523.06546903","3523.13562298","3526.13632798","1","3526.15252495","3531.12976694",""
"sujeto4541440b","1","4","19","115","3531.27124596","direct","2","1","1","¿Cuántos Oscar ganó
 la película titanic?","13","11","","1","1","1","individual","right","1.86832499504","3533.13965106","3.13167500496","3536.46138692","2.73511600494","3539.19656301","3.26488399506","3542.51135206","3543.81343603","3543.86321807","3546.86619711","1","3546.88021588","3551.48283792",""
"sujeto4541440b","1","4","20","116","3551.66588688","inverse","4","1","4","¿En qué año comenzó
la segunda guerra mundial?","1939","1976","left","0","0","1","competitive","right","2.0979039669","3553.76385689","2.9020960331","3556.83850408","4.05830597878","3560.89685011","1.94169402122","3562.87333488","3564.6731739","3564.75768805","3567.76066804","0","3567.7747829","3571.76194096",""
"sujeto4541440b","1","4","21","117","3571.8936131","direct","2","1","4","¿Cuántos biomas hay en Uruguay?","5","4","","0","0","1","competitive","right","2.00729799271","3573.90097594","2.99270200729","3577.0497129","3.15128397942","3580.20105696","2.84871602058","3583.10027695","3584.89761591","3584.96811795","3587.97110605","0","3587.9852519","3594.23466992",""
"sujeto4541440b","1","4","22","118","3594.37063503","inverse","2","1","3","¿Cuándo murió Pablo Escobar?","1993","1997","","1","1","1","competitive","right","2.09450697899","3596.46520901","2.90549302101","3599.5282371","3.4129679203","3602.94127607","2.5870320797","3605.56124902","3607.34369493","3607.43029404","3610.43327403","1","3610.44765806","3616.15131211",""
"sujeto4541440b","1","4","23","119","3616.28214097","direct","1","1","4","¿Qué serie ha ganado mas premios?","Friends","Murphy Brown","","1","1","0","competitive","left","1.45820188522","3617.74039006","3.54179811478","3621.43915701","4.82730698586","3626.26652408","1.17269301414","3627.47395802","3628.82635808","3628.90759206","3631.91058111","1","3631.92479491","3637.48640299",""
"sujeto4541440b","1","4","24","120","3637.62711191","inverse","4","1","2","¿Cuántas fichas tiene el dominó?","26","28","","1","1","1","competitive","right","1.96154689789","3639.58877897","3.03845310211","3642.79874706","4.03386712074","3646.83267999","1.96613287926","3648.85161996","3649.90694904","3649.98593307","3652.98769498","1","3653.00292301","3658.24603391",""
"sujeto4541440b","1","4","25","121","3658.38759398","direct","2","1","4","¿Cuántos son los dientes de leche?","20","25","","0","0","1","competitive","left","2.21425700188","3660.60191393","2.78574299812","3663.54150605","3.87533092499","3667.41689801","2.12466907501","3669.57695007","3671.28732896","3671.36128688","3674.363729","0","3674.37889099","3676.52368903",""
"sujeto4541440b","1","4","26","122","3676.66449594","inverse","3","1","3","¿Cuántos gramos son una onza?","22","28","","0","0","1","competitive","right","2.90949892998","3679.57406306","2.09050107002","3681.83652902","3.06250882149","3684.89910507","2.93749117851","3687.87160492","3689.86647296","3689.94007111","3692.94300389","0","3692.95729804","3699.24756098",""
"sujeto4541440b","1","4","27","123","3699.39201903","direct","3","1","1","¿Cuándo salió el primer album
 de los Beatles?","1963","1962","","1","1","1","individual","left","1.66425919533","3701.05632901","3.33574080467","3704.549505","3.95284485817","3708.50241208","2.04715514183","3710.60016489","3711.76380205","3711.80107188","3714.80403495","1","3714.81802297","3718.59005904",""
"sujeto4541440b","1","4","28","124","3718.73670506","inverse","3","1","3","¿Quién fundó la empresa apple?","Carlos Slim","Steve Jobs","","1","1","1","competitive","right","2.09172511101","3720.828475","2.90827488899","3723.90696001","3.12549591064","3727.03249502","2.87450408936","3729.95960903","3731.07432294","3731.1436429","3734.14487195","1","3734.16100907","3740.45886493",""
"sujeto4541440b","1","4","29","125","3740.59528494","direct","4","1","2","¿Cuántos municipios hay
 en Montevideo?","8","7","","1","1","1","competitive","left","2.32138705254","3742.91673708","2.67861294746","3745.75453901","2.97220683098","3748.72681594","3.02779316902","3751.80495906","3753.71971893","3753.80704904","3756.81002498","1","3756.82436609","3758.90552092",""
"sujeto4541440b","1","4","30","126","3759.04257107","inverse","1","1","1","¿Cuántos kilómetros hay
 de Montevideo a Artigas?","632","599","","0","0","0","individual","left","1.40733003616","3760.44997597","3.59266996384","3764.19765902","4.17029190063","3768.36801195","1.82970809937","3770.24869108","3771.73181701","3771.78259897","3774.78557992","0","3774.79965305","3780.85173988",""
"sujeto4541440b","1","4","31","127","3781.00137901","direct","2","1","2","¿En qué año nació 
Leonardo Da Vinci?","1452","1511","","1","1","0","competitive","left","1.92876601219","3782.93024993","3.07123398781","3786.19067097","2.9503929615","3789.14110303","3.0496070385","3792.24060988","3794.0941999","3794.1761229","3797.17908597","1","3797.1932981","3800.3397119",""
"sujeto4541440b","1","4","32","128","3800.47775793","inverse","3","1","1","¿A qué continente
 pertenece el país Gabón?","Africa","Oceanía","","0","0","1","individual","right","1.87457489967","3802.35243797","3.12542510033","3805.667974","4.30935382843","3809.9773891","1.69064617157","3811.70201707","3813.51366401","3813.55314898","3816.55611396","0","3816.57030201","3821.80816603",""
