"code","nro_aplicante","nro_bloque","nro_trial_bloque","nro_trial_global","show_game_type","choice_order","rival","pay_individual","pay_competitive","question","answer_left_text","answer_right_text","correct_answer","outcome_individual","outcome_competitive","outcome_rival","game_type","answer","social_time","rt_game_type","feedback_delay","show_question","answer_time","rt_answer_global","feedback_delay_2","show_jitter","jitter_time","show_outcome","outcome_time","outcome_participant_real","show_final_jitter","second_jitter_time","inicio_descanso"
"sujeto_0027042","1","1","1","1","644.122319937","direct","3","1","4","¿Cuántos centímetros corresponden
al talle 36 del calzado?","23","24",,"0","0","1","competitive","left","2.32796406746","646.450365067","2.67203593254","649.361824036","4.9888010025","654.350692034","1.0111989975","655.426789999","656.454991102","656.561063051","659.561480045","0","659.578092098","661.740525961",
"sujeto_0027042","1","1","2","2","661.896445036","inverse","3","1","2","¿Cuántas metros mide la Intendencia
Municipal de Montevideo? ","84","78",,"0","0","1","individual","right","1.62952280045","663.526031971","3.37047719955","667.07080698","5.44347190857","672.51432991","0.556528091431","673.121803999","674.999765873","675.0557549","678.057470083","0","678.073508024","680.165499926",
"sujeto_0027042","1","1","3","3","680.325037003","direct","1","1","3","¿Cuántas La Pasiva
 hay en uruguay?","15","11",,"1","1","1","competitive","left","0.0136098861694","680.338702917","4.98639011383","685.496991873","4.7829990387","690.280072927","1.2170009613","691.548886061","693.160477877","693.248683929","696.25157094","1","696.266936064","700.545181036",
"sujeto_0027042","1","1","4","4","700.752181053","inverse","3","1","3","¿De que color es la camiseta de uruguay?","blanca","celeste","right","1","1","1","individual","right","1.84445619583","702.59678793","3.15554380417","705.975611925","4.89715504646","710.872821093","1.10284495354","712.025690079","713.230372906","713.276334047","716.279207945","1","716.294514894","719.745480061",
"sujeto_0027042","1","1","5","5","719.912484884","direct","2","1","1","¿Cuánto metros mide
la torre Eiffel?","333","324",,"1","1","1","competitive","right","2.29189801216","722.204542875","2.70810198784","725.17010498","4.03537893295","729.205568075","1.96462106705","731.220016003","732.741304874","732.838620901","735.841482878","1","735.856538057","742.893151999",
"sujeto_0027042","1","1","6","6","743.056755066","inverse","3","1","4","¿Cuantas ciudades existen
 en todo el uruguay?","63","72",,"0","0","1","individual","left","1.90252804756","744.959352016","3.09747195244","748.315456867","4.50606298447","752.821623087","1.49393701553","754.383519888","755.437476873","755.483906031","758.48548007","0","758.50109601","766.127594948",
"sujeto_0027042","1","1","7","7","766.320067883","direct","1","1","1","¿Cuantos estados tiene África?","52","54",,"1","1","0","competitive","left","1.6729850769","767.993114948","3.3270149231","771.528789043","3.95550107956","775.484371901","2.04449892044","777.579145908","779.441475868","779.53093791","782.533473969","1","782.54738307","788.308331966",
"sujeto_0027042","1","1","8","8","788.466031075","inverse","4","1","4","¿En qué año nació
 Stephen Hawking?","1952","1942",,"0","0","1","competitive",,"0.199848175049","788.665930986","4.80015182495","793.657016993","6","799.657115936","0","799.672304869","801.116549969","801.208615065","804.209472895","0","804.225914955","810.32147789",
"sujeto_0027042","1","1","9","9","810.52795887","direct","2","1","3","¿Cuánto años tenía Artigas
 cuando se fue a Paraguay?","56","57",,"1","1","1","competitive","left","2.79691100121","813.324966908","2.20308899879","815.750182867","4.41888904572","820.16912508","1.58111095428","821.803737879","823.353158951","823.454480886","826.457372904","1","826.471807957","832.51747489",
"sujeto_0027042","1","1","10","10","832.72371006","inverse","1","1","2","¿Cuantos milímetros 
mide una hoja A2?","420x592","420x594",,"0","0","1","competitive","right","1.54993700981","834.273701906","3.45006299019","837.914750099","4.31118512154","842.226013899","1.68881487846","843.966229916","845.534080029","845.633459091","848.636347055","0","848.651309967","855.724862099",
"sujeto_0027042","1","1","11","11","855.905948877","direct","3","1","3","¿Cuál es la menor temperatura 
registrada en Uruguay?","-5.4","-7.4",,"0","0","1","competitive","left","1.90877389908","857.814877033","3.09122610092","861.127487898","4.26031303406","865.387877941","1.73968696594","867.178576946","868.860536098","868.946633101","871.949485064","0","871.963743925","875.693477869",
"sujeto_0027042","1","1","12","12","875.849185944","inverse","2","1","2","¿Cuantos años hace que 
se fundó facebook?","18","17",,"0","0","0","competitive","left","1.74013400078","877.589375019","3.25986599922","881.055447102","4.5982170105","885.653721094","1.4017829895","887.106501102","888.479156017","888.573806047","891.576704979","0","891.591374874","894.365916967",
"sujeto_0027042","1","1","13","13","894.5598979","direct","1","1","4","¿Cuál animal es más
 pesado en promedio?","Rinoceronte","Hipopotamo",,"0","0","0","individual","right","2.94928884506","897.509244919","2.05071115494","899.815771103","4.72765803337","904.54348588","1.27234196663","905.866457939","906.945472956","907.00028491","910.003166914","0","910.017945051","913.857450962",
"sujeto_0027042","1","1","14","14","914.0362041","inverse","1","1","2","¿Qué personaje de dragon ball 
murió más veces?","Chaoz","Krillin",,"1","1","0","competitive","left","1.27464008331","915.310905933","3.72535991669","919.226311922","4.55686187744","923.783258915","1.44313812256","925.261250019","926.7189641","926.811559916","929.813482046","1","929.829828024","937.601461887",
"sujeto_0027042","1","1","15","15","937.815057039","direct","3","1","2","La universidad de oxford. 
existe desde:","1096","1249",,"1","1","0","individual","right","1.64172410965","939.456876993","3.35827589035","942.9892869","4.72684907913","947.716191053","1.27315092087","949.040697098","950.089430094","950.141699076","953.142141104","1","953.159030914","959.84946394",
"sujeto_0027042","1","1","16","16","960.010169983","inverse","3","1","1","¿Qué escritor latino ganó antes
 el premio nobel?"," García Marquez","Neruda",,"0","0","1","individual","left","2.12853908539","962.138768911","2.87146091461","965.215282917","5.26667690277","970.482028961","0.733323097229","971.269809008","973.009468079","973.054282904","976.05715704","0","976.072329998","979.532777071",
"sujeto_0027042","1","1","17","17","979.723803043","direct","4","1","3","¿Cuántos dientes tiene un
 tiburón blanco?","6000","3000",,"0","0","1","individual","right","3.25264501572","982.976502895","1.74735498428","984.925510883","4.2742331028","989.199801922","1.7257668972","990.97863102","992.017529964","992.079489946","995.081481934","0","995.097132921","999.905467987",
"sujeto_0027042","1","1","18","18","1000.13245392","inverse","4","1","1","¿Cuánto mide el paralelo Ecuador?","40.000km","70.000km",,"0","0","1","competitive","right","2.97979402542","1003.11230493","2.02020597458","1005.37064195","4.40781188011","1009.77852798","1.59218811989","1011.42560196","1013.38147187","1013.47630692","1016.47919607","0","1016.49413109","1020.09347391",
"sujeto_0027042","1","1","19","19","1020.29621005","direct","4","1","2","¿Cuál fue el primer libro 
de Stephen King?","Carrie","The Stand",,"1","1","1","individual","right","4.3269340992","1024.62320209","0.673065900803","1025.5313201","5.36102795601","1030.89243293","0.638972043991","1031.5839231","1033.3279469","1033.38445687","1036.38734293","1","1036.40154505","1040.87345505",
"sujeto_0027042","1","1","20","20","1041.05430198","inverse","2","1","3","¿Qué civilización practicaba
 la momificación?","Grecia","Egipto","right","0","0","1","competitive","right","2.88651800156","1043.9408989","2.11348199844","1046.27922606","5.32290005684","1051.60220194","0.677099943161","1052.3308959","1054.27011395","1054.36506391","1057.36547494","1","1057.38215899","1061.60947299",
"sujeto_0027042","1","1","21","21","1061.7849679","direct","4","1","4","¿Cuántos millones de visitas
 recibe google por minuto?","3.0","4.5",,"0","0","1","competitive","right","3.20787405968","1064.99299598","1.79212594032","1066.99225402","4.71470618248","1071.70704508","1.28529381752","1073.04306698","1074.55747795","1074.66018987","1077.66146588","0","1077.67799401","1084.80059409",
"sujeto_0027042","1","1","22","22","1084.97974992","inverse","1","1","3","La máquina de fax. se inventó en:","1843","1960",,"0","0","1","competitive","left","1.48983883858","1086.46964693","3.51016116142","1090.17094707","5.02290010452","1095.19393206","0.977099895477","1096.22275305","1097.46477509","1097.55673504","1100.55963087","0","1100.57375193","1103.8094759",
"sujeto_0027042","1","1","23","23","1104.00915194","direct","2","1","4","En la verdadera historia de los
 300 espartanos. habían:","300 soldados","4300 soldados",,"1","1","1","individual",,"4.00225901604","1108.01146889","0.997740983963","1109.21520996","6","1115.21535087","0","1115.23306298","1116.49348402","1116.54987097","1119.55274987","0","1119.56754088","1123.36922693",
"sujeto_0027042","1","1","24","24","1123.53579187","inverse","1","1","4","¿Cuántos milímetros crece
 el pelo por día?","0.4","0.04",,"0","0","0","competitive","left","1.45029497147","1124.98618197","3.54970502853","1128.72311306","4.84333395958","1133.566504","1.15666604042","1134.77625489","1136.53687692","1136.62628007","1139.62916994","0","1139.643713","1146.37872887",
"sujeto_0027042","1","1","25","25","1146.59576988","direct","4","1","1","¿Cuánto mide la baldosa gris 
clásica de Montevideo?","22x22 cm.","20x20 cm.",,"1","1","1","individual","right","3.20829296112","1149.80416107","1.79170703888","1151.82220006","4.84107708931","1156.66335988","1.15892291069","1157.88789606","1159.88147688","1159.93892288","1162.94180202","1","1162.95677805","1168.49745297",
"sujeto_0027042","1","1","26","26","1168.65865588","inverse","2","1","2","¿Cuántas películas de rápidos
 y furiosos hay?","10","11",,"1","1","0","competitive","left","4.22035002708","1172.879107","0.779649972916","1173.86694407","5.64135503769","1179.50838494","0.358644962311","1179.93685889","1181.29482007","1181.40147805","1184.40437293","1","1184.41892791","1186.45347595",
"sujeto_0027042","1","1","27","27","1186.68691707","direct","3","1","1","¿Cuántos masters 1000
 ganó Del Potro?","1","2",,"1","1","1","competitive","left","2.0437271595","1188.73073602","2.9562728405","1191.89233994","5.18961691856","1197.08204389","0.810383081436","1197.92690396","1199.68143606","1199.777843","1202.78074908","1","1202.79573607","1210.19199491",
"sujeto_0027042","1","1","28","28","1210.41359091","inverse","2","1","4","¿Cuántos meses dura el 
embarazo de una leona?","3 meses","4 meses",,"0","0","1","competitive","right","1.45489287376","1211.86854601","3.54510712624","1215.60640097","4.70545315742","1220.31194091","1.29454684258","1221.65881491","1222.76947904","1222.87621999","1225.87747908","0","1225.89330387","1232.61348104",
"sujeto_0027042","1","1","29","29","1232.81168103","direct","1","1","1","¿En qué año fue creado
 el sandwich?","1762","1653",,"1","1","0","competitive","left","1.62265515327","1234.43442106","3.37734484673","1238.03625393","5.24553704262","1243.28186202","0.754462957382","1244.08834505","1245.68682408","1245.78864908","1248.79153991","1","1248.80673194","1252.27729106",
"sujeto_0027042","1","1","30","30","1252.47449589","inverse","4","1","2","El nombre de la moneda de Vietnam es:","Dinar","Dong",,"0","0","1","individual","right","3.93075799942","1256.40531588","1.06924200058","1257.64775491","5.91284394264","1263.56069803","0.0871560573578","1263.698915","1265.13079906","1265.18274808","1268.18547487","0","1268.19973898","1274.36808395",
"sujeto_0027042","1","1","31","31","1274.52209306","direct","2","1","1","¿cuantos aleteos puede dar 
un colibrí por segundo?","120","50",,"0","0","0","competitive","left","2.31794977188","1276.8401041","2.68205022812","1279.72462893","5.97372603416","1285.69840693","0.0262739658356","1285.77788401","1287.50946093","1287.59443402","1290.59730196","0","1290.6118331","1294.82145",
"sujeto_0027042","1","1","32","32","1294.98052502","inverse","4","1","3","¿Qué altura promedio tienen
 los hombres uruguayos?","1.73 m","1.72 m",,"1","1","1","competitive","right","1.41122913361","1296.39180303","3.58877086639","1300.18684101","3.99122691154","1304.1781199","2.00877308846","1306.25469398","1307.51702595","1307.60623193","1310.60655093","1","1310.62349391","1315.09837198",
"sujeto_0027042","1","2","1","33","1446.71575403","direct","1","1","1","¿En qué año nació 
el actor Bradd Pitt?","1967","1963",,"1","1","1",,,,,,,,,,,,,,,"1451.73785901","1457.66147399","1315.12105203"
"sujeto_0027042","1","2","2","34","1457.85562491","inverse","2","1","1","¿Cual es el segundo 
monte más alto?","Kanchenjunga","K2",,"1","1","1","competitive","left","1.56651687622","1459.42221498","3.43348312378","1463.06163692","4.82288002968","1467.88456988","1.17711997032","1469.11166596","1470.56399393","1470.66305304","1473.66545892","1","1473.68043208","1477.10949492",
"sujeto_0027042","1","2","3","35","1477.26538205","direct","3","1","1","¿Cuándo finalizó la construcción
 del Palacio Legislativo?","1925","1917",,"0","0","1","competitive","left","2.69361710548","1479.959059","2.30638289452","1482.47172189","5.1875269413","1487.65933609","0.812473058701","1488.52315187","1490.16477108","1490.25711489","1493.2600131","0","1493.27462292","1498.97209787",
"sujeto_0027042","1","2","4","36","1499.15989804","inverse","3","1","3","¿Cuántos integrantes tenía
 en su inicio  el cuarteto de nos?","3","4",,"1","1","1","competitive","left","2.8079559803","1501.96794105","2.1920440197","1504.36766601","4.82341384888","1509.19116402","1.17658615112","1510.43462205","1511.56763387","1511.6687839","1514.669487","1","1514.68861389","1520.33746099",
"sujeto_0027042","1","2","5","37","1520.48848605","direct","2","1","3","¿Qué valor tiene el número pi?","3.14","4.18","left","0","0","1","competitive","right","1.5521030426","1522.04067087","3.4478969574","1525.65970492","4.17317891121","1529.83295894","1.82682108879","1531.71283889","1533.16696095","1533.26338601","1536.26627588","0","1536.28124595","1543.20147109",
"sujeto_0027042","1","2","6","38","1543.40012503","inverse","2","1","2","¿Cuál es la esperanza de vida
 en Uruguay?","75","77",,"1","1","0","competitive","left","2.94258213043","1546.34280205","2.05741786957","1548.65475488","4.01210904121","1552.66692305","1.98789095879","1554.7098949","1556.36362004","1556.46061492","1559.46352196","1","1559.47852087","1565.93748093",
"sujeto_0027042","1","2","7","39","1566.13010788","direct","1","1","2","¿Cuantos pisos tiene la torre 
de las comunicaciones?","26","32",,"1","1","0","competitive","left","3.32562589645","1569.45584202","1.67437410355","1571.35429001","4.26449298859","1575.61887002","1.73550701141","1577.40521193","1579.2339251","1579.32275891","1582.32547998","1","1582.340204","1584.48547697",
"sujeto_0027042","1","2","8","40","1584.642277","inverse","2","1","4","¿En qué país sudamericano 
no hay McDonalds?","Bolivia","Venezuela",,"0","0","1","competitive","right","1.89290881157","1586.53526592","3.10709118843","1589.88140488","5.24006390572","1595.121521","0.759936094284","1595.94877696","1597.25746989","1597.3665359","1600.36943603","0","1600.38305306","1606.74266195",
"sujeto_0027042","1","2","9","41","1606.90110588","direct","3","1","1","¿En qué año empieza
 la Edad Media?","476","512",,"1","1","1","competitive","left","2.44507598877","1609.34636998","2.55492401123","1612.14568305","4.41656017303","1616.56229806","1.58343982697","1618.19341397","1619.59657502","1619.69437909","1622.6972549","1","1622.71181488","1625.70027399",
"sujeto_0027042","1","2","10","42","1625.93025398","inverse","3","1","4","¿Hace cuántos años surgió
 el ser humano?","200mil","300mil",,"0","0","0","competitive","left","2.47654104233","1628.4068749","2.52345895767","1631.12086201","5.23929381371","1636.36023998","0.760706186295","1637.17249799","1639.05747199","1639.15678501","1642.1596849","0","1642.1734519","1645.48147202",
"sujeto_0027042","1","2","11","43","1645.62525988","direct","3","1","4","¿Cuántas cuadras tiene
 actualmente 18 de julio? ","36","33",,"0","0","1","competitive","right","4.07434892654","1649.69966602","0.925651073456","1650.84892607","5.42600107193","1656.27501488","0.57399892807","1656.91610003","1658.61749005","1658.71676803","1661.71747208","0","1661.73465896","1666.45747209",
"sujeto_0027042","1","2","12","44","1666.63629603","inverse","1","1","4","¿Qué juego de equipo se 
considera mas rápido?","Lacrosse","Badminton",,"0","0","0","competitive",,"2.00216698647","1668.63859606","2.99783301353","1671.82814407","6","1677.82828093","0","1677.840868","1679.08387589","1679.17648101","1682.17748094","0","1682.19370198","1690.18877292",
"sujeto_0027042","1","2","13","45","1690.36218596","direct","1","1","3","¿Qué promedio de edad 
vive una jirafa? ","25","20",,"0","0","1","competitive","right","3.19528484344","1693.55760789","1.80471515656","1695.62320089","4.11739087105","1699.74064302","1.88260912895","1701.6739819","1703.43541908","1703.57480001","1706.57747698","0","1706.59307098","1712.54868793",
"sujeto_0027042","1","2","14","46","1712.71135306","inverse","1","1","2","¿Cuántos grandes lagos hay?","7","5",,"0","0","1","competitive","left","1.68678808212","1714.39819503","3.31321191788","1717.90281701","3.74858593941","1721.65149307","2.25141406059","1723.95341802","1725.24548888","1725.3547051","1728.35760689","0","1728.37163591","1736.18947196",
"sujeto_0027042","1","2","15","47","1736.33931303","direct","3","1","2","¿Cuántos discos de estudio
 grabó Johhny Cash? ","54","43",,"1","1","0","competitive","right","1.18979716301","1737.52923894","3.81020283699","1741.5655129","4.58095383644","1746.14652395","1.41904616356","1747.61681604","1748.895365","1749.00016594","1752.00307989","1","1752.01789594","1758.66871595",
"sujeto_0027042","1","2","16","48","1758.87186289","inverse","4","1","1","¿Cuántos barrios tiene
 Montevideo? ","71","62",,"0","0","1","individual","right","2.71911382675","1761.59106088","2.28088617325","1764.1263411","2.97189092636","1767.09831691","3.02810907364","1770.17785788","1771.18485188","1771.22975397","1774.2326231","0","1774.2463479","1779.70545602",
"sujeto_0027042","1","2","17","49","1779.89909697","direct","3","1","3","¿Qué edad tiene Homero Simpson?","36","42",,"0","0","1","competitive","left","2.12480020523","1782.02395988","2.87519979477","1785.08966494","3.1233830452","1788.213099","2.8766169548","1791.13943005","1792.51537609","1792.60800004","1795.60947299","0","1795.6252079","1800.01346707",
"sujeto_0027042","1","2","18","50","1800.17656898","inverse","4","1","2","¿Cuántos países con monarquía 
hay en europa actualmente? ","6","10",,"1","1","1","individual","right","2.5340590477","1802.71071792","2.4659409523","1805.39951992","4.96448087692","1810.36406302","1.03551912308","1811.4498179","1812.88802695","1812.93357992","1815.93646288","1","1815.95217204","1822.10547304",
"sujeto_0027042","1","2","19","51","1822.25335002","direct","2","1","3","¿Cuántos capítulos de
 Friends existen? ","236","228",,"1","1","1","competitive","left","1.57621312141","1823.82962394","3.42378687859","1827.44614792","4.87273097038","1832.31897807","1.12726902962","1833.51461792","1834.82009387","1834.91475892","1837.91751194","1","1837.93141794","1840.30546904",
"sujeto_0027042","1","2","20","52","1840.4670279","inverse","1","1","3","¿Cuántas óperas compuso Mozart? ","27","22",,"1","1","1","competitive","right","2.17923307419","1842.64634991","2.82076692581","1845.65328598","3.71317386627","1849.36651587","2.28682613373","1851.6901691","1852.9814651","1853.07494807","1856.0778451","1","1856.09222698","1863.40147495",
"sujeto_0027042","1","2","21","53","1863.62730908","direct","4","1","3","¿Cuántos mundiales de fútbol 
femenino ha realizado FIFA? ","9","7",,"1","1","1","individual","right","2.05779504776","1865.68517804","2.94220495224","1868.81731606","5.15815091133","1873.9755249","0.841849088669","1874.88503194","1876.12865806","1876.18581796","1879.18869591","1","1879.20369697","1885.30607796",
"sujeto_0027042","1","2","22","54","1885.50533605","inverse","3","1","2","¿Cuál es la temperatura 
media anual en Montevideo? ","17.5","16.3",,"0","0","1","competitive",,"2.67587614059","1888.18134689","2.32412385941","1890.7139101","6","1896.71403599","0","1896.73227406","1898.67079806","1898.76638889","1901.769279","0","1901.78396487","1908.34946895",
"sujeto_0027042","1","2","23","55","1908.50250006","direct","2","1","2","¿En qué año se estrenó el
 videojuego The Sims? ","2000","2002",,"0","0","0","competitive","right","1.11100506783","1909.61363602","3.88899493217","1913.69406009","4.00011706352","1917.69423604","1.99988293648","1919.74457598","1921.60547209","1921.71204901","1924.71494007","0","1924.72966909","1932.12146306",
"sujeto_0027042","1","2","24","56","1932.31519389","inverse","2","1","1","¿Cuál es la canción con 
mas covers? ","Yesterday","Stand by me",,"0","0","0","competitive","left","1.93963909149","1934.25490999","3.06036090851","1937.52276492","4.7833340168","1942.30617809","1.2166659832","1943.57491899","1944.97338796","1945.07576895","1948.07747889","0","1948.09308505","1952.26381803",
"sujeto_0027042","1","2","25","57","1952.46180487","direct","1","1","4","¿Cuánto duró la guerra
 de los 100 años?","116","123",,"0","0","0","competitive","right","1.44585108757","1953.90771699","3.55414891243","1957.65183687","5.10312891006","1962.75502801","0.896871089935","1963.70291209","1965.18366408","1965.28642106","1968.28930497","0","1968.30454397","1970.62424707",
"sujeto_0027042","1","2","26","58","1970.82341099","inverse","4","1","4","¿Qué color tiene la  bandera de Brasil?","Amarillo","Naranja","left","0","0","1","individual","right","1.69388985634","1972.51739001","3.30611014366","1976.04257488","5.34309196472","1981.38572001","0.656908035278","1982.09556794","1983.66200495","1983.71272302","1986.71347189","0","1986.72919202","1989.761904",
"sujeto_0027042","1","2","27","59","1989.9822979","direct","4","1","3","¿Qué carabela de 
Colon no volvió del viaje?","Santa María","La pinta",,"0","0","1","individual","right","2.82481503487","1992.80720401","2.17518496513","1995.23775005","5.02767300606","2000.26550198","0.972326993942","2001.29098201","2002.78146887","2002.82360005","2005.82548308","0","2005.84122801","2007.94060802",
"sujeto_0027042","1","2","28","60","2008.11031389","inverse","4","1","4","¿Cuántos huesos tiene
 un adulto humano?","217","206",,"0","0","1","competitive","left","2.14848589897","2010.2588551","2.85151410103","2013.31700397","4.53112697601","2017.84822702","1.46887302399","2019.3656559","2020.63660693","2020.73261094","2023.73549604","0","2023.74970293","2031.58548188",
"sujeto_0027042","1","2","29","61","2031.81905794","direct","1","1","1","¿Qué país africano fue 
fundado por esclavos?","Liberia","Chad",,"0","0","0","competitive","right","2.06778478622","2033.8869431","2.93221521378","2037.02859807","5.03940010071","2042.068084","0.960599899292","2043.09591889","2045.08748388","2045.18004203","2048.18148398","0","2048.19820809","2056.18899488",
"sujeto_0027042","1","2","30","62","2056.37031388","inverse","4","1","2","¿A cuánto asciende la cima
 del monte Everest?","7.990 mts","8.848 mts",,"0","0","1","competitive","left","2.05837392807","2058.42877007","2.94162607193","2061.57335901","4.30362820625","2065.87704206","1.69637179375","2067.64043188","2068.82518888","2068.92461896","2071.92547393","0","2071.94190907","2079.12587905",
"sujeto_0027042","1","2","31","63","2079.32704592","direct","4","1","1","¿Cuál es el país mas chico?","Sealand","Luxemburgo",,"1","1","1","individual","right","1.98769783974","2081.31482887","3.01230216026","2084.53670788","4.81518793106","2089.35195708","1.18481206894","2090.58963299","2092.45306802","2092.50682998","2095.50972605","1","2095.52506804","2098.64726806",
"sujeto_0027042","1","2","32","64","2098.80982804","inverse","2","1","4","¿Cuántas pirámides hay en Egipto?","10000","11000",,"1","1","1","competitive","right","2.15555405617","2100.9654789","2.84444594383","2103.99799705","5.01566696167","2109.01373506","0.98433303833","2110.05063605","2111.08415103","2111.1842401","2114.18546391","1","2114.2014091","2119.31041098",
"sujeto_0027042","1","3","1","65","2244.4419179","direct","2","1","2","¿Cuál es el quinto país con 
mas extensión?","Canadá","Brasil",,"1","1","0","competitive","right","1.91316485405","2246.3551631","3.08683514595","2249.64686298","3.76352095604","2253.41052604","2.23647904396","2255.69654894","2257.02948093","2257.13158298","2260.13346505","1","2260.14888191","2267.87347889","2119.32701993"
"sujeto_0027042","1","3","2","66","2268.03437996","inverse","1","1","2","¿Qué rasgo facial no tiene
 la Mona Lisa?","Cejas","Pómulos",,"0","0","1","competitive","right","3.13833594322","2271.17280698","1.86166405678","2273.22633696","4.97399091721","2278.20040202","1.02600908279","2279.27778387","2281.02812409","2281.12893009","2284.13181996","0","2284.14629698","2290.41746593",
"sujeto_0027042","1","3","3","67","2290.63091707","direct","4","1","3","¿Cuál es el país con 
mayor población?","Esados Unidos","China","right","0","0","1","competitive","right","2.92001008987","2293.55100489","2.07998991013","2295.87199998","3.58118510246","2299.45324397","2.41881489754","2301.92289591","2303.56881595","2303.67361689","2306.67649102","1","2306.69194388","2310.05747294",
"sujeto_0027042","1","3","4","68","2310.2266531","inverse","1","1","1","La palabra dinosaurio significa","Lagarto Terrible","Lagarto Dragón",,"1","1","0","competitive","left","2.25304293633","2312.47974801","2.74695706367","2315.41452789","5.50055503845","2320.91514397","0.499444961548","2321.46784592","2322.63747406","2322.734622","2325.73746896","1","2325.752424","2328.61347198",
"sujeto_0027042","1","3","5","69","2328.77075791","direct","2","1","3","¿Qué es el membrillero?","Arbol","Arbusto",,"0","0","0","competitive","right","1.47057390213","2330.24142003","3.52942609787","2333.94339705","4.73635697365","2338.67983699","1.26364302635","2339.99425888","2341.94829297","2342.0458281","2345.04870105","0","2345.06335187","2351.52548003",
"sujeto_0027042","1","3","6","70","2351.73176694","inverse","3","1","3","¿Alrededor de qué planeta orbita 
el satélite Europa?","Jupiter","Saturno",,"1","1","1","competitive","right","1.83657002449","2353.56841397","3.16342997551","2356.97134304","5.46235609055","2362.43378687","0.537643909454","2363.02410507","2364.56881309","2364.74170399","2367.74460292","1","2367.75950408","2369.96457601",
"sujeto_0027042","1","3","7","71","2370.12763596","direct","3","1","1","¿Donde fue el mundial de 
fútbol de 1954?","Suiza","Suecia",,"1","1","1","competitive",,"1.69053697586","2371.81824994","3.30946302414","2375.31624103","6","2381.31634688","0","2381.32984495","2382.58147597","2382.68322396","2385.68547297","0","2385.70008087","2389.60945702",
"sujeto_0027042","1","3","8","72","2389.86958599","inverse","1","1","4","¿Cuál de los 7 enanitos
no tenía barba?","Bashful","Mudito",,"1","1","0","competitive","right","1.73322510719","2391.60286498","3.26677489281","2395.09376788","5.67240190506","2400.76622391","0.32759809494","2401.16212392","2402.74218392","2402.82913709","2405.82946897","1","2405.84583592","2410.77346706",
"sujeto_0027042","1","3","9","73","2410.9654479","direct","3","1","2","¿Cual red social es
mas utilizada mundialmente?","Instagram","Facebook",,"1","1","0","competitive","right","2.69831991196","2413.66386294","2.30168008804","2416.2077589","4.15018606186","2420.35802794","1.84981393814","2422.25668287","2424.17346787","2424.27431202","2427.27718687","1","2427.29236794","2430.22677803",
"sujeto_0027042","1","3","10","74","2430.41098189","inverse","4","1","1","¿Cuándo se inició la copa
 América de fútbol?","1916","1923",,"1","1","1","individual","left","1.43838000298","2431.84941792","3.56161999702","2435.61599898","5.13676285744","2440.752841","0.863237142563","2441.66787505","2443.56524897","2443.617975","2446.62083697","1","2446.635216","2449.28947902",
"sujeto_0027042","1","3","11","75","2449.50468493","direct","3","1","4","¿Cuántos presidentes de EEUU
han muerto asesinados?","3","4",,"0","0","1","competitive","left","4.09156298637","2453.59633207","0.908437013626","2454.709167","5.14258384705","2459.85190797","0.857416152954","2460.776685","2462.26055193","2462.36065888","2465.36147594","0","2465.37857103","2469.02259398",
"sujeto_0027042","1","3","12","76","2469.17965889","inverse","2","1","4","¿Cuántas veces participó EEUU
 en la copa América?","4","5",,"0","0","1","competitive","right","2.65530490875","2471.83504796","2.34469509125","2474.43412304","4.08014202118","2478.51431704","1.91985797882","2480.47162294","2481.91565299","2482.00675607","2485.00946999","0","2485.02429008","2491.1413579",
"sujeto_0027042","1","3","13","77","2491.32506204","direct","4","1","1","¿Cuál de estos países 
no formaba la URSS?","Azeribayán","Afganistán",,"0","0","1","individual","left","2.56173396111","2493.88685107","2.43826603889","2496.51721287","5.15797400475","2501.67527103","0.842025995255","2502.58483005","2503.89783192","2503.9520781","2506.95346498","0","2506.96923089","2514.94947791",
"sujeto_0027042","1","3","14","78","2515.15516806","inverse","1","1","1","¿En qué año se inauguró
 el teatro Solís?","1867","1856",,"0","0","0","competitive","right","2.86164712906","2518.01691198","2.13835287094","2520.3459549","4.94611096382","2525.29215002","1.05388903618","2526.39856195","2527.454772","2527.54864502","2530.549474","0","2530.56537008","2537.21307993",
"sujeto_0027042","1","3","15","79","2537.41992307","direct","1","1","4","¿A qué velocidad vuela 
el avión más rápido?","3529","3874",,"0","0","0","competitive","left","1.59768009186","2539.01766205","3.40231990814","2542.63868594","4.11318492889","2546.75192308","1.88681507111","2548.69100809","2550.44545388","2550.54225492","2553.54514408","0","2553.55994296","2555.66946292",
"sujeto_0027042","1","3","16","80","2555.82843208","inverse","3","1","4","¿De qué año es la primer 
película cinematográfica?","1897","1888",,"0","0","0","competitive","left","1.10787296295","2556.93639207","3.89212703705","2561.08624101","5.30148386955","2566.3877809","0.698516130447","2567.13660192","2568.269454","2568.37111998","2571.37402201","0","2571.38837695","2576.79806209",
"sujeto_0027042","1","3","17","81","2576.95662093","direct","2","1","3","¿Cuántos países 
tiene nuestro planeta?","191","194",,"1","1","1","competitive","right","1.1126229763","2578.06933999","3.8873770237","2582.18107009","4.13837695122","2586.31952596","1.86162304878","2588.23127389","2589.58839989","2589.68305206","2592.68594909","1","2592.69977188","2595.9374609",
"sujeto_0027042","1","3","18","82","2596.15305901","inverse","2","1","2","¿Cuántos habitantes
 tiene Buenos Aires?","2.9000.000","3650000",,"0","0","0","competitive","right","1.17979979515","2597.33291006","3.82020020485","2601.33848405","4.22770309448","2605.56624103","1.77229690552","2607.39131689","2608.78849602","2608.87547708","2611.87836003","0","2611.89297891","2617.72230387",
"sujeto_0027042","1","3","19","83","2617.89561892","direct","2","1","1","¿Cuántos kilos forman una tonelada?","1000","1500","left","1","1","1","competitive","left","1.38817381859","2619.28385496","3.61182618141","2623.10324597","3.30275821686","2626.4060781","2.69724178314","2629.15382195","2631.04108095","2631.13807702","2634.14095497","1","2634.15684009","2640.11416197",
"sujeto_0027042","1","3","20","84","2640.34176707","inverse","4","1","4","¿Cuántos estados tiene la 
República del Perú? ","24","23",,"0","0","1","competitive","right","2.28404116631","2642.62590408","2.71595883369","2645.58239603","3.88552904129","2649.4680059","2.11447095871","2651.63351703","2652.65560889","2652.75056005","2655.75346088","0","2655.76936603","2660.71457791",
"sujeto_0027042","1","3","21","85","2660.92045188","direct","3","1","3","¿En qué año nació Cristóbal Colón? ","1451","1447",,"0","0","1","competitive","left","2.34007310867","2663.26059389","2.65992689133","2666.15878797","3.80992293358","2669.96878695","2.19007706642","2672.19502497","2674.04084992","2674.14632893","2677.14923906","0","2677.16391993","2681.39182806",
"sujeto_0027042","1","3","22","86","2681.56481004","inverse","4","1","4","¿Cuánto mide la 
Montaña Aconcagua? ","6234","6962",,"0","0","1","competitive","left","2.45966720581","2684.02463198","2.54033279419","2686.77170992","5.32300496101","2692.09477901","0.676995038986","2692.82311893","2694.11238694","2694.20735097","2697.20947695","0","2697.22443199","2704.40799689",
"sujeto_0027042","1","3","23","87","2704.64349294","direct","2","1","4","¿Cuánto mide el punto
 más profundo del océano? ","12508","11003",,"0","0","1","competitive","left","1.30191302299","2705.945575","3.69808697701","2709.83438802","4.18508982658","2714.01956701","1.81491017342","2715.88605189","2717.13748002","2717.23660088","2720.23947787","0","2720.25434494","2724.45748591",
"sujeto_0027042","1","3","24","88","2724.62305903","inverse","1","1","3","¿Cuántos álbumes ha publicado 
el cantante Jaime Roos? ","41","34",,"0","0","1","competitive","right","1.30689716339","2725.9300499","3.69310283661","2729.81332898","5.26600885391","2735.07943296","0.733991146088","2735.86463094","2737.35440087","2737.44763207","2740.44948292","0","2740.465868","2746.66146898",
"sujeto_0027042","1","3","25","89","2746.83370805","direct","4","1","3","¿En qué año nació el 
ex-presidente Jorge Battle? ","1921","1927",,"1","1","1","competitive",,"1.05010509491","2747.88393497","3.94989490509","2752.02442789","6","2758.02454901","0","2758.03985906","2759.77048206","2759.87631798","2762.87919402","0","2762.89413905","2766.38010788",
"sujeto_0027042","1","3","26","90","2766.59674788","inverse","1","1","3","¿Cuántas presidencias 
constitucionales  hubo en Uruguay? ","41","42",,"0","0","1","competitive","left","2.1639559269","2768.76076508","2.8360440731","2771.80059505","3.78629803658","2775.58697391","2.21370196342","2777.85227394","2779.05596089","2779.15320897","2782.15348005","0","2782.17105794","2787.953475",
"sujeto_0027042","1","3","27","91","2788.17349887","direct","1","1","2","¿Quién escribió mas sinfonías?","Mozart","Haydn",,"1","1","0","competitive","left","1.14707899094","2789.32074594","3.85292100906","2793.39751101","3.64421987534","2797.041785","2.35578012466","2799.44770098","2800.66507602","2800.76570487","2803.76860905","1","2803.78345609","2807.53478599",
"sujeto_0027042","1","3","28","92","2807.75268388","inverse","4","1","2","¿En qué año nació Michael Jackson?","1958","1953",,"1","1","1","individual","right","1.97462797165","2809.72744107","3.02537202835","2812.97353888","4.09197211266","2817.065593","1.90802788734","2819.02672195","2821.00487089","2821.06016493","2824.06147599","1","2824.07782197","2829.94005799",
"sujeto_0027042","1","3","29","93","2830.14749503","direct","3","1","2","¿En qué año entró en vigencia 
la ley antitabaco en Uruguay?","2005","2006",,"1","1","1","competitive","right","2.10466098785","2832.252244","2.89533901215","2835.36905694","4.79337382317","2840.16250801","1.20662617683","2841.42188001","2843.01655602","2843.10562491","2846.10851789","1","2846.12262797","2851.45654392",
"sujeto_0027042","1","3","30","94","2851.70815492","inverse","3","1","1","¿Cuándo se subió el 
primer video a youtube?","2004","2005",,"0","0","1","individual","left","1.77988195419","2853.48810005","3.22011804581","2856.946105","4.98425197601","2861.93042207","1.01574802399","2862.99936104","2864.30494189","2864.36669898","2867.36947489","0","2867.38361406","2875.13748193",
"sujeto_0027042","1","3","31","95","2875.30163598","direct","2","1","1","¿Cuántos habitantes tiene India?","1200 millones","1300 millones",,"0","0","0","competitive","left","2.24538016319","2877.54712892","2.75461983681","2880.5263741","4.06981801987","2884.5962739","1.93018198013","2886.57906199","2888.54860687","2888.64684892","2891.64974904","0","2891.6752739","2897.7228899",
"sujeto_0027042","1","3","32","96","2897.879107","inverse","4","1","2","¿A qué edad murió Bob Marley?","36","37",,"0","0","1","competitive","right","1.17083096504","2899.05004191","3.82916903496","2903.12560201","4.26657915115","2907.39227009","1.73342084885","2909.1760211","2911.07348299","2911.17719793","2914.17747188","0","2914.19543409","2917.29747391",
"sujeto_0027042","1","4","1","97","3039.56389189","direct","2","1","1","¿Cuantos años dirigió la selección 
uruguaya Tabarez?","15 años","13 años",,"0","0","0","competitive","left","1.86245107651","3041.42643309","3.13754892349","3044.75331998","4.75833201408","3049.51171303","1.24166798592","3050.80464888","3051.99570608","3052.08892393","3055.08949494","0","3055.10592008","3062.17787099","2917.3129251"
"sujeto_0027042","1","4","2","98","3062.37451792","inverse","4","1","1","¿Cuantas teclas tiene un teclado 
de computadora generalmente? ","Entre 99 y 108","Entre 109 y 113",,"1","1","1","competitive","left","2.04972100258","3064.42432904","2.95027899742","3067.5839231","5.84366607666","3073.42767596","0.15633392334","3073.63331199","3074.63600993","3074.733845","3077.73675799","1","3077.75106192","3080.12242389",
"sujeto_0027042","1","4","3","99","3080.32005787","direct","1","1","1","¿Cuál Departamento tiene
 mayor superficie?","Río Negro","Soriano",,"0","0","0","competitive","left","1.14086103439","3081.46101189","3.85913896561","3085.51034188","4.87595391273","3090.38638687","1.12404608727","3091.56047797","3093.27347708","3093.37701702","3096.37992001","0","3096.39470005","3100.72070098",
"sujeto_0027042","1","4","4","100","3100.9133029","inverse","3","1","2","¿Cuál es el apellido de las 
hermanastras  de  cenicienta?","Tremaine","Truman",,"0","0","1","competitive","left","1.46345901489","3102.3768239","3.53654098511","3106.12156391","5.50851106644","3111.63012505","0.491488933563","3112.17217493","3114.04147887","3114.13986301","3117.14147902","0","3117.15688109","3119.85276794",
"sujeto_0027042","1","4","5","101","3120.00830102","direct","4","1","4","¿Cuál película ganó un
 Oscar a mejor película?","Alto Impacto","Cache",,"0","0","1","competitive","right","1.2215681076","3121.22994804","3.7784318924","3125.21422791","5.07052993774","3130.28484201","0.929470062256","3131.28290296","3132.401474","3132.500561","3135.501477","0","3135.51866889","3137.78147888",
"sujeto_0027042","1","4","6","102","3137.96910405","inverse","1","1","3","¿A cuántos centímetros
equivale la medida pié?","25","30",,"0","0","1","competitive","left","1.22708702087","3139.19624996","3.77291297913","3143.14117908","4.04921412468","3147.19044209","1.95078587532","3149.191782","3150.23169899","3150.32618809","3153.32908106","0","3153.34297204","3158.74149489",
"sujeto_0027042","1","4","7","103","3158.91162395","direct","2","1","2","¿Qué departamento es mas grande?","Cerro Largo","Paysandú",,"0","0","0","competitive","left","0.870404958725","3159.78210497","4.12959504128","3164.13605404","4.47623109818","3168.61236191","1.52376890182","3170.17026496","3171.76947999","3171.90419698","3174.9054749","0","3174.92263198","3179.0325141",
"sujeto_0027042","1","4","8","104","3179.19077301","inverse","2","1","3","¿Quién pintó la Mona Lisa?","Picasso","Da Vinci","right","0","0","1","competitive","right","1.51695084572","3180.70777392","3.48304915428","3184.38097095","3.57516694069","3187.95623088","2.42483305931","3190.4487381","3192.053478","3192.14895606","3195.15184689","1","3195.16848397","3197.32947588",
"sujeto_0027042","1","4","9","105","3197.53543901","direct","4","1","3","¿Cuántos litros hay en un galon?","3.54","3.78",,"1","1","1","competitive","right","1.47912812233","3199.01465893","3.52087187767","3202.74113107","4.26775813103","3207.00897789","1.73224186897","3208.7917521","3210.30957007","3210.40948796","3213.41239595","1","3213.42719102","3219.21748495",
"sujeto_0027042","1","4","10","106","3219.41288209","inverse","4","1","1","¿Cuántas teclas tiene
 un piano moderno?","80","88",,"0","0","1","individual","right","2.10564088821","3221.51862192","2.89435911179","3224.60238099","3.44827795029","3228.05074096","2.55172204971","3230.65349507","3231.66145587","3231.72147107","3234.72434902","0","3234.73912096","3241.53348994",
"sujeto_0027042","1","4","11","107","3241.7582159","direct","4","1","3","¿Cuántos países hay en África?","54","62",,"0","0","1","competitive","left","1.6470580101","3243.40536499","3.3529419899","3246.94892788","3.77169203758","3250.72069693","2.22830796242","3252.99907804","3254.68947387","3254.78450489","3257.78740096","0","3257.80126095","3265.605479",
"sujeto_0027042","1","4","12","108","3265.75306392","inverse","1","1","3","¿En qué siglo se crearon
 las primeras pistolas?","XV","XIII",,"1","1","1","competitive","right","1.05624198914","3266.8094871","3.94375801086","3270.96266794","4.37982392311","3275.34260702","1.62017607689","3277.01335597","3278.96117496","3279.08054805","3282.08146501","1","3282.0977869","3285.33080602",
"sujeto_0027042","1","4","13","109","3285.50051999","direct","3","1","4","¿En qué año se estrenó 
la serie friends?","1994","1995",,"0","0","1","competitive","left","1.1294271946","3286.63000298","3.8705728054","3290.68910789","5.46023607254","3296.14943695","0.53976392746","3296.7413981","3298.61666298","3298.70844793","3301.70945907","0","3301.7259469","3306.73192406",
"sujeto_0027042","1","4","14","110","3306.94435787","inverse","3","1","4","¿En qué año nació Hitler?","1889","1887",,"0","0","1","competitive","right","1.83451795578","3308.778965","3.16548204422","3312.16785097","4.63830518723","3316.80621099","1.36169481277","3318.21957898","3319.33387208","3319.43614292","3322.43903995","0","3322.45397305","3327.47746801",
"sujeto_0027042","1","4","15","111","3327.773067","direct","1","1","4","¿Cuánto pesa un elefante Africano?","6000 kilos","5400 kilos",,"0","0","0","competitive","left","1.28664183617","3329.05980992","3.71335816383","3332.96363902","3.80332899094","3336.76702404","2.19667100906","3339.01351309","3340.369344","3340.46524096","3343.46547198","0","3343.48278904","3350.18947291",
"sujeto_0027042","1","4","16","112","3350.36778402","inverse","1","1","2","¿Qué porcentaje de 
la población es zurda?","10%","7%",,"1","1","0","competitive","right","1.43279719353","3351.80067396","3.56720280647","3355.55888009","3.83885407448","3359.39783192","2.16114592552","3361.62670588","3362.86972499","3362.96046901","3365.96146798","1","3365.97854996","3371.95747995",
"sujeto_0027042","1","4","17","113","3372.16381693","direct","1","1","2","¿En qué año se estrenó
Volver al futuro?","1984","1985",,"0","0","1","competitive","left","1.34268593788","3373.506603","3.65731406212","3377.35439205","4.57426810265","3381.92872","1.42573189735","3383.42223692","3384.98397994","3385.07281709","3388.07570791","0","3388.09036303","3395.1814599",
"sujeto_0027042","1","4","18","114","3395.34115887","inverse","3","1","2","¿Cuántos jugadores hay en un 
equipo de baseball?","9","8",,"1","1","0","competitive","right","1.10012793541","3396.44134402","3.89987206459","3400.56746888","4.5991089344","3405.16665506","1.4008910656","3406.6191361","3408.23334789","3408.35235","3411.35347295","1","3411.36944509","3416.3454771",
"sujeto_0027042","1","4","19","115","3416.57292104","direct","2","1","1","¿Cuántos Oscar ganó
 la película titanic?","13","11",,"1","1","1","competitive","right","3.95427393913","3420.52729106","1.04572606087","3421.7792089","4.01726603508","3425.79657102","1.98273396492","3427.82737994","3429.12935901","3429.22860408","3432.2295959","1","3432.24612808","3436.84549689",
"sujeto_0027042","1","4","20","116","3437.01630902","inverse","4","1","4","¿En qué año comenzó
la segunda guerra mundial?","1939","1976","left","0","0","1","competitive","left","1.80867409706","3438.82504392","3.19132590294","3442.25548887","4.79271793365","3447.04828787","1.20728206635","3448.30815196","3450.10792708","3450.20889497","3453.20947599","1","3453.22667289","3457.21349001",
"sujeto_0027042","1","4","21","117","3457.41259098","direct","2","1","4","¿Cuántos biomas hay en Uruguay?","5","4",,"0","0","1","competitive","right","1.29322504997","3458.70596099","3.70677495003","3462.58464408","4.38626909256","3466.97095895","1.61373090744","3468.63627291","3470.43355393","3470.53687906","3473.53976798","0","3473.55481005","3479.804142",
"sujeto_0027042","1","4","22","118","3480.02341008","inverse","2","1","3","¿Cuándo murió Pablo Escobar?","1993","1997",,"1","1","1","competitive","right","1.36426186562","3481.38776302","3.63573813438","3485.21394992","3.21289801598","3488.426898","2.78710198402","3491.26402998","3493.04547906","3493.13227606","3496.13348389","1","3496.15150595","3501.85506892",
"sujeto_0027042","1","4","23","119","3502.0689199","direct","1","1","4","¿Qué serie ha ganado mas premios?","Friends","Murphy Brown",,"1","1","0","competitive","left","1.05156087875","3503.12055707","3.94843912125","3507.28898787","5.10682606697","3512.39590287","0.893173933029","3513.34272289","3514.69505692","3514.79294801","3517.79584503","1","3517.81041098","3523.36947298",
"sujeto_0027042","1","4","24","120","3523.59535098","inverse","4","1","2","¿Cuántas fichas tiene el dominó?","26","28",,"1","1","1","competitive","right","1.92402911186","3525.51943302","3.07597088814","3528.80322504","3.75847911835","3532.5618031","2.24152088165","3534.83942509","3535.89464903","3535.99089789","3538.99348998","1","3539.00679302","3544.24978995",
"sujeto_0027042","1","4","25","121","3544.40950108","direct","2","1","4","¿Cuántos son los dientes de leche?","20","25",,"0","0","1","competitive","left","1.03258299828","3545.44218493","3.96741700172","3549.59963703","5.62787914276","3555.22760105","0.372120857239","3555.63415599","3557.3444581","3557.43536592","3560.43748093","0","3560.45235991","3562.59747291",
"sujeto_0027042","1","4","26","122","3562.75399494","inverse","3","1","3","¿Cuántos gramos son una onza?","22","28",,"0","0","1","competitive","right","1.19969296455","3563.95405006","3.80030703545","3567.99180293","3.93925595284","3571.931108","2.06074404716","3574.0442481","3576.03747988","3576.12811494","3579.12948203","0","3579.146492","3585.43666101",
"sujeto_0027042","1","4","27","123","3585.79849195","direct","3","1","1","¿Cuándo salió el primer album
 de los Beatles?","1963","1962",,"1","1","1","competitive","right","1.93133187294","3587.72988391","3.06866812706","3591.03968692","4.88642406464","3595.92616987","1.11357593536","3597.09046292","3598.25400496","3598.3583529","3601.3612361","1","3601.37473106","3605.14547205",
"sujeto_0027042","1","4","28","124","3605.32693195","inverse","3","1","3","¿Quién fundó la empresa apple?","Carlos Slim","Steve Jobs",,"1","1","1","competitive","right","1.99373292923","3607.32079196","3.00626707077","3610.54757905","3.737377882","3614.28506494","2.262622118","3616.60113287","3617.71571803","3617.81866598","3620.8214879","1","3620.83603597","3627.13347197",
"sujeto_0027042","1","4","29","125","3627.37077594","direct","4","1","2","¿Cuántos municipios hay
 en Montevideo?","8","7",,"1","1","1","competitive","right","1.38425087929","3628.75553203","3.61574912071","3632.61195087","3.86374998093","3636.47578192","2.13625001907","3638.66298509","3640.57747197","3640.68064094","3643.68147707","1","3643.69871306","3645.77815104",
"sujeto_0027042","1","4","30","126","3645.96769905","inverse","1","1","1","¿Cuántos kilómetros hay
 de Montevideo a Artigas?","632","599",,"0","0","0","competitive","left","1.17243504524","3647.14027596","3.82756495476","3651.22047091","4.80801606178","3656.02855301","1.19198393822","3657.25635409","3658.73940992","3658.83973908","3661.84145999","0","3661.85762405","3667.90946507",
"sujeto_0027042","1","4","31","127","3668.07642388","direct","2","1","2","¿En qué año nació 
Leonardo Da Vinci?","1452","1511",,"1","1","0","competitive","left","1.09970211983","3669.17620897","3.90029788017","3673.30113506","4.22415304184","3677.52536392","1.77584695816","3679.35218","3681.2054739","3681.30372095","3684.3054769","1","3684.32142305","3687.46547794",
"sujeto_0027042","1","4","32","128","3687.6573391","inverse","3","1","1","¿A qué continente
 pertenece el país Gabón?","Africa","Oceanía",,"0","0","1","competitive","right","1.09752702713","3688.75493097","3.90247297287","3692.84567308","5.02643203735","3697.87217903","0.973567962646","3698.89745092","3700.7090199","3700.81395102","3703.816854","0","3703.83248806","3709.06947494",
