"code","nro_aplicante","nro_bloque","nro_trial_bloque","nro_trial_global","show_game_type","choice_order","rival","pay_individual","pay_competitive","question","answer_left_text","answer_right_text","correct_answer","outcome_individual","outcome_competitive","outcome_rival","game_type","answer","social_time","rt_game_type","feedback_delay","show_question","answer_time","rt_answer_global","feedback_delay_2","show_jitter","jitter_time","show_outcome","outcome_time","outcome_participant_real","show_final_jitter","second_jitter_time","inicio_descanso"
"sujeto_8932899d","1","1","1","1","28.6547889709","direct","3","1","4","¿Cuántos centímetros corresponden
al talle 36 del calzado?","23","24","","0","0","1","competitive","left","3.74971413612","32.4045658112","1.25028586388","33.8264238834","4.34607291222","38.1725399494","1.65392708778","39.8610079288","40.889330864","40.9623370171","43.9653379917","0","43.9790840149","46.1416079998",""
"sujeto_8932899d","1","1","2","2","46.2827019691","inverse","3","1","2","¿Cuántas metros mide la Intendencia
Municipal de Montevideo? ","84","78","","0","0","1","competitive","right","1.53485894203","47.8176319599","3.46514105797","51.4356248379","5.75788903236","57.1935749054","0.242110967636","57.4701328278","59.3481369019","59.4203009605","62.4231908321","0","62.4373099804","64.5286998749",""
"sujeto_8932899d","1","1","3","3","64.6739249229","direct","1","1","3","¿Cuántas La Pasiva
 hay en uruguay?","15","11","","1","1","1","competitive","right","1.05564594269","65.7296378613","3.94435405731","69.8116168976","4.54889702797","74.3605549335","1.45110297203","75.8630130291","77.4747109413","77.5462799072","80.5492768288","1","80.5638298988","84.8421978951",""
"sujeto_8932899d","1","1","4","4","84.984885931","inverse","3","1","3","¿De que color es la camiseta de uruguay?","blanca","celeste","right","1","1","1","competitive","right","0.726719856262","85.7116479874","4.27328014374","90.1387460232","2.81583595276","92.9546208382","3.18416404724","96.1889488697","97.3936979771","97.473623991","100.476588011","1","100.491019011","103.94491601",""
"sujeto_8932899d","1","1","5","5","104.077231884","direct","2","1","1","¿Cuánto metros mide
la torre Eiffel?","333","324","","1","1","1","competitive","left","1.3933699131","105.470667839","3.6066300869","109.230008841","3.95952987671","113.189580917","2.04047012329","115.265456915","116.786840916","116.867085934","119.870065928","1","119.884428024","126.921128035",""
"sujeto_8932899d","1","1","6","6","127.053996801","inverse","3","1","4","¿Cuantas ciudades existen
 en todo el uruguay?","63","72","","0","0","1","competitive","left","0.889647960663","127.943722963","4.11035203934","132.208439827","5.36312699318","137.571606874","0.636873006821","138.243677855","139.298468828","139.377822876","142.37845397","0","142.395007849","150.021174908",""
"sujeto_8932899d","1","1","7","7","150.166512966","direct","1","1","1","¿Cuantos estados tiene África?","52","54","","1","1","0","competitive","left","0.95200419426","151.118583918","4.04799580574","155.321655989","4.38389706612","159.705591917","1.61610293388","161.373631954","163.237655878","163.323854923","166.326792002","1","166.341535807","172.101217985",""
"sujeto_8932899d","1","1","8","8","172.246276855","inverse","4","1","4","¿En qué año nació
 Stephen Hawking?","1952","1942","","0","0","1","competitive","left","0.858376026154","173.104722023","4.14162397385","177.416404009","5.408203125","182.824645996","0.591796875","183.45242691","184.896692991","184.969416857","187.97240901","0","187.985929012","194.085325003",""
"sujeto_8932899d","1","1","9","9","194.22178793","direct","2","1","3","¿Cuánto años tenía Artigas
 cuando se fue a Paraguay?","56","57","","1","1","1","competitive","left","0.867878913879","195.08977294","4.13212108612","199.377692938","5.52287793159","204.90060997","0.477122068405","205.413184881","206.962694883","207.04702282","210.05002284","1","210.06427002","216.107923985",""
"sujeto_8932899d","1","1","10","10","216.247839928","inverse","1","1","2","¿Cuantos milímetros 
mide una hoja A2?","420x592","420x594","","0","0","1","competitive","right","0.851776838303","217.099661827","4.1482231617","221.421260834","4.88033008575","226.301628828","1.11966991425","227.472460032","229.040896893","229.124291897","232.127283812","0","232.141112804","239.214710951",""
"sujeto_8932899d","1","1","11","11","239.362113953","direct","3","1","3","¿Cuál es la menor temperatura 
registrada en Uruguay?","-5.4","-7.4","","0","0","1","competitive","right","1.02657222748","240.388731956","3.97342777252","244.518384933","4.68518996239","249.203612804","1.31481003761","250.568974018","252.250991821","252.336884975","255.339820862","0","255.354585886","259.087850809",""
"sujeto_8932899d","1","1","12","12","259.224238873","inverse","2","1","2","¿Cuantos años hace que 
se fundó facebook?","18","17","","0","0","0","competitive","left","1.03343987465","260.257721901","3.96656012535","264.378818035","3.97984600067","268.358702898","2.02015399933","270.429390907","271.802129984","271.879820824","274.882751942","0","274.896598816","277.671248913",""
"sujeto_8932899d","1","1","13","13","277.796882868","direct","1","1","4","¿Cuál animal es más
 pesado en promedio?","Rinoceronte","Hipopotamo","","0","0","0","competitive","right","1.22669792175","279.023643017","3.77330207825","282.954262972","3.87336611748","286.827689886","2.12663388252","289.055464029","290.134711981","290.207104921","293.210085869","0","293.224323034","297.065335989",""
"sujeto_8932899d","1","1","14","14","297.20906496","inverse","1","1","2","¿Qué personaje de dragon ball 
murió más veces?","Chaoz","Krillin","","1","1","0","competitive","right","0.594648122787","297.803754807","4.40535187721","302.362612009","4.20903396606","306.571704865","1.79096603394","308.397960901","309.855782986","309.931784868","312.934773922","1","312.949331999","320.722275019",""
"sujeto_8932899d","1","1","15","15","320.855157852","direct","3","1","2","La universidad de oxford. 
existe desde:","1096","1249","","1","1","0","competitive","left","0.66846704483","321.52368784","4.33153295517","326.026091814","4.75455212593","330.780704021","1.24544787407","332.077642918","333.126483917","333.211953878","336.214891911","1","336.228717804","342.919523001",""
"sujeto_8932899d","1","1","16","16","343.064253807","inverse","3","1","1","¿Qué escritor latino ganó antes
 el premio nobel?"," García Marquez","Neruda","","0","0","1","competitive","left","0.579397916794","343.643694878","4.42060208321","348.220937014","4.10370707512","352.324704885","1.89629292488","354.272593021","356.01224184","356.090021849","359.093006849","0","359.107533932","362.568056822",""
"sujeto_8932899d","1","1","17","17","362.710836887","direct","4","1","3","¿Cuántos dientes tiene un
 tiburón blanco?","6000","3000","","0","0","1","competitive","left","0.875825881958","363.586704969","4.12417411804","367.864003897","3.91261982918","371.776662827","2.08738017082","373.898813963","374.937821865","375.016944885","378.019937992","0","378.034272909","382.843941927",""
"sujeto_8932899d","1","1","18","18","382.987535","inverse","4","1","1","¿Cuánto mide el paralelo Ecuador?","40.000km","70.000km","","0","0","1","competitive","right","0.637112140656","383.624689817","4.36288785934","388.157480001","4.53820705414","392.695746899","1.46179294586","394.207001925","396.162169933","396.24032402","399.243312836","0","399.257942915","402.860505819",""
"sujeto_8932899d","1","1","19","19","403.011755943","direct","4","1","2","¿Cuál fue el primer libro 
de Stephen King?","Carrie","The Stand","","1","1","1","competitive","left","0.650948047638","403.66276598","4.34905195236","408.1852808","3.58135104179","411.76667285","2.41864895821","414.236717939","415.980830908","416.054055929","419.057068825","1","419.071653843","423.546085835",""
"sujeto_8932899d","1","1","20","20","423.692444801","inverse","2","1","3","¿Qué civilización practicaba
 la momificación?","Grecia","Egipto","right","0","0","1","competitive","right","0.527324914932","424.219815016","4.47267508507","428.84559989","4.10012602806","432.945785999","1.89987397194","434.897692919","436.837021828","436.914665937","439.917587996","1","439.933159828","444.161948919",""
"sujeto_8932899d","1","1","21","21","444.299693823","direct","4","1","4","¿Cuántos millones de visitas
 recibe google por minuto?","3.0","4.5","","0","0","1","competitive","right","0.712089061737","445.011865854","4.28791093826","449.455528975","3.57822203636","453.033797026","2.42177796364","455.491137028","457.006024837","457.09213686","460.09512496","0","460.109391928","467.232077837",""
"sujeto_8932899d","1","1","22","22","467.364413023","inverse","1","1","3","La máquina de fax. se inventó en:","1843","1960","","0","0","1","competitive","right","0.536339998245","467.900798798","4.46366000175","472.514073849","4.85265803337","477.36679101","1.14734196663","478.56711483","479.809228897","479.884094954","482.887064934","0","482.901887894","486.138193846",""
"sujeto_8932899d","1","1","23","23","486.271072865","direct","2","1","4","En la verdadera historia de los
 300 espartanos. habían:","300 soldados","4300 soldados","","1","1","1","competitive","right","0.874718904495","487.14583683","4.1252810955","491.445498943","5.63322019577","497.078758001","0.36677980423","497.496392012","498.757586002","498.831075907","501.834048033","1","501.847646952","505.649444818",""
"sujeto_8932899d","1","1","24","24","505.784011841","inverse","1","1","4","¿Cuántos milímetros crece
 el pelo por día?","0.4","0.04","","0","0","0","competitive","left","0.658746957779","506.442822933","4.34125304222","510.937772989","2.45701408386","513.394846916","3.54298591614","516.988920927","518.749200821","518.82357502","521.826570988","0","521.840881824","528.575973988",""
"sujeto_8932899d","1","1","25","25","528.725907803","direct","4","1","1","¿Cuánto mide la baldosa gris 
clásica de Montevideo?","22x22 cm.","20x20 cm.","","1","1","1","competitive","left","0.769936084747","529.495887995","4.23006391525","533.897819996","5.08390903473","538.981791973","0.916090965271","539.950996876","541.946152925","542.035087824","545.038075924","1","545.052356958","550.595157862",""
"sujeto_8932899d","1","1","26","26","550.723475933","inverse","2","1","2","¿Cuántas películas de rápidos
 y furiosos hay?","10","11","","1","1","0","competitive","right","1.03529596329","551.758832932","3.96470403671","555.878125906","4.19466495514","560.072834015","1.80533504486","561.913395882","563.271394968","563.347154856","566.350135803","1","566.364641905","568.399341822",""
"sujeto_8932899d","1","1","27","27","568.533881903","direct","3","1","1","¿Cuántos masters 1000
 ganó Del Potro?","1","2","","1","1","1","competitive","left","0.631975889206","569.165899992","4.36802411079","573.704075813","3.64376401901","577.34788084","2.35623598099","579.738873959","581.493508816","581.573086023","584.576073885","1","584.59077096","591.987125874",""
"sujeto_8932899d","1","1","28","28","592.129317999","inverse","2","1","4","¿Cuántos meses dura el 
embarazo de una leona?","3 meses","4 meses","","0","0","1","competitive","left","0.721551179886","592.850914001","4.27844882011","597.299091816","5.17067694664","602.469828844","0.82932305336","603.350716829","604.461732864","604.535060883","607.538003922","0","607.552436829","614.274888992",""
"sujeto_8932899d","1","1","29","29","614.403894901","direct","1","1","1","¿En qué año fue creado
 el sandwich?","1762","1653","","1","1","0","competitive","left","0.681940078735","615.085881948","4.31805992126","619.559024811","3.58281707764","623.141901016","2.41718292236","625.611323833","627.209832907","627.295559883","630.298566818","1","630.312908888","633.783566952",""
"sujeto_8932899d","1","1","30","30","633.9161098","inverse","4","1","2","El nombre de la moneda de Vietnam es:","Dinar","Dong","","0","0","1","competitive","right","0.655761957169","634.571938992","4.34423804283","639.070514917","3.76532506943","642.835896969","2.23467493057","645.122615814","646.554628849","646.639794827","649.642769814","0","649.657426834","655.825850964",""
"sujeto_8932899d","1","1","31","31","655.961825848","direct","2","1","1","¿cuantos aleteos puede dar 
un colibrí por segundo?","120","50","","0","0","0","competitive","left","0.7446808815","656.706604004","4.2553191185","661.115204811","4.15065407753","665.265916824","1.84934592247","667.167171955","668.899171829","668.984596968","671.987601995","0","672.002430916","676.214672804",""
"sujeto_8932899d","1","1","32","32","676.353379011","inverse","4","1","3","¿Qué altura promedio tienen
 los hombres uruguayos?","1.73 m","1.72 m","","1","1","1","competitive","left","1.40051794052","677.753942966","3.59948205948","681.509312868","4.43453001976","685.943903923","1.56546998024","687.560761929","688.823199987","688.894605875","691.897590876","1","691.913015842","696.388978958",""
"sujeto_8932899d","1","2","1","33","838.15239501","direct","1","1","1","¿En qué año nació 
el actor Bradd Pitt?","1967","1963","","1","1","1","competitive","left","0.93354010582","839.085978985","4.06645989418","843.308187008","2.80271911621","846.110965014","3.19728088379","849.358438969","850.454281807","850.52718401","853.53012681","1","853.54377389","859.47137785","696.400596857"
"sujeto_8932899d","1","2","2","34","859.595333815","inverse","2","1","1","¿Cual es el segundo 
monte más alto?","Kanchenjunga","K2","","1","1","1","competitive","left","0.817641019821","860.413019896","4.18235898018","864.753314972","4.11158394814","868.864956856","1.88841605186","870.787777901","872.240173817","872.322598934","875.325590849","1","875.340497017","878.770397902",""
"sujeto_8932899d","1","2","3","35","878.909153938","direct","3","1","1","¿Cuándo finalizó la construcción
 del Palacio Legislativo?","1925","1917","","0","0","1","competitive","right","0.881858825684","879.791100979","4.11814117432","884.064595938","5.44334077835","889.507999897","0.556659221649","890.098884821","891.740603924","891.815833807","894.818135023","0","894.833487034","900.531008005",""
"sujeto_8932899d","1","2","4","36","900.668043852","inverse","3","1","3","¿Cuántos integrantes tenía
 en su inicio  el cuarteto de nos?","3","4","","1","1","1","competitive","right","0.608050107956","901.276153803","4.39194989204","905.824862957","3.17507100105","908.999993801","2.82492899895","911.876358032","913.009459019","913.094522953","916.097504854","1","916.111840963","921.761655807",""
"sujeto_8932899d","1","2","5","37","921.896392822","direct","2","1","3","¿Qué valor tiene el número pi?","3.14","4.18","left","0","0","1","competitive","left","0.863604068756","922.760066032","4.13639593124","927.051361799","2.4405939579","929.492013931","3.5594060421","933.100405931","934.554180861","934.63466692","937.637653828","1","937.651594877","944.572562933",""
"sujeto_8932899d","1","2","6","38","944.720803976","inverse","2","1","2","¿Cuál es la esperanza de vida
 en Uruguay?","75","77","","1","1","0","competitive","right","2.65619492531","947.37706399","2.34380507469","949.877942801","3.34394001961","953.221936941","2.65605998039","955.932960033","957.58680582","957.66753602","960.670523882","1","960.684242964","967.147228956",""
"sujeto_8932899d","1","2","7","39","967.289083004","direct","1","1","2","¿Cuantos pisos tiene la torre 
de las comunicaciones?","26","32","","1","1","0","competitive","left","0.815898895264","968.105064869","4.18410110474","972.442883015","4.47909498215","976.922021866","1.52090501785","978.493880033","980.322110891","980.394519806","983.397501945","1","983.41227603","985.558501005",""
"sujeto_8932899d","1","2","8","40","985.698590994","inverse","2","1","4","¿En qué país sudamericano 
no hay McDonalds?","Bolivia","Venezuela","","0","0","1","competitive","right","0.788459062576","986.487108946","4.21154093742","990.868489981","3.88949012756","994.758061886","2.11050987244","996.920323849","998.229688883","998.304354906","1001.30733991","0","1001.32166481","1007.6813879",""
"sujeto_8932899d","1","2","9","41","1007.8235538","direct","3","1","1","¿En qué año empieza
 la Edad Media?","476","512","","1","1","1","competitive","left","0.764467954636","1008.58810496","4.23553204536","1012.97500896","4.51198911667","1017.48704386","1.48801088333","1019.01229787","1020.41605783","1020.49630284","1023.49924898","1","1023.5129199","1026.50147486",""
"sujeto_8932899d","1","2","10","42","1026.64934802","inverse","3","1","4","¿Hace cuántos años surgió
 el ser humano?","200mil","300mil","","0","0","0","competitive","right","0.608762025833","1027.25815701","4.39123797417","1031.80627394","3.88965582848","1035.69596386","2.11034417152","1037.85726285","1039.74324584","1039.825073","1042.82808089","0","1042.84260392","1046.15306187",""
"sujeto_8932899d","1","2","11","43","1046.29632592","direct","3","1","4","¿Cuántas cuadras tiene
 actualmente 18 de julio? ","36","33","","0","0","1","competitive","left","0.496840953827","1046.79326892","4.50315904617","1051.46705198","3.69297504425","1055.16007996","2.30702495575","1057.50092196","1059.20311093","1059.28551197","1062.28850198","0","1062.3028748","1067.02916384",""
"sujeto_8932899d","1","2","12","44","1067.16986203","inverse","1","1","4","¿Qué juego de equipo se 
considera mas rápido?","Lacrosse","Badminton","","0","0","0","competitive","left","0.712243080139","1067.88214993","4.28775691986","1072.32281184","3.94922804832","1076.27208185","2.05077195168","1078.37624502","1079.61935782","1079.69312286","1082.69517493","0","1082.71091104","1090.69964981",""
"sujeto_8932899d","1","2","13","45","1090.84980083","direct","1","1","3","¿Qué promedio de edad 
vive una jirafa? ","25","20","","0","0","1","competitive","right","0.633316993713","1091.48318696","4.36668300629","1096.0043869","4.73960113525","1100.74405885","1.26039886475","1102.05644488","1103.81791401","1103.89042091","1106.89339781","0","1106.90799999","1112.86374092",""
"sujeto_8932899d","1","2","14","46","1113.01219487","inverse","1","1","2","¿Cuántos grandes lagos hay?","7","5","","0","0","1","competitive","right","0.6888859272","1113.70114398","4.3111140728","1118.168015","4.29204297066","1122.46012592","1.70795702934","1124.20232892","1125.49449801","1125.56999302","1128.572963","0","1128.58769989","1136.40741301",""
"sujeto_8932899d","1","2","15","47","1136.55936599","direct","3","1","2","¿Cuántos discos de estudio
 grabó Johhny Cash? ","54","43","","1","1","0","competitive","right","0.888728141785","1137.44816184","4.11127185822","1141.73010802","4.45898008347","1146.18915582","1.54101991653","1147.76415801","1149.0428319","1149.11507893","1152.11799383","1","1152.13271785","1158.78365898",""
"sujeto_8932899d","1","2","16","48","1158.91795301","inverse","4","1","1","¿Cuántos barrios tiene
 Montevideo? ","71","62","","0","0","1","competitive","right","0.545208930969","1159.46322989","4.45479106903","1164.09162688","3.50144886971","1167.59314299","2.49855113029","1170.14210892","1171.14920092","1171.22743297","1174.23041987","0","1174.24498081","1179.70697284",""
"sujeto_8932899d","1","2","17","49","1179.86167192","direct","3","1","3","¿Qué edad tiene Homero Simpson?","36","42","","0","0","1","competitive","right","0.671746969223","1180.53348494","4.32825303078","1185.01599789","2.51316595078","1187.52922392","3.48683404922","1191.05090094","1192.42617798","1192.50316596","1195.50616193","0","1195.52055383","1199.90927291",""
"sujeto_8932899d","1","2","18","50","1200.05760288","inverse","4","1","2","¿Cuántos países con monarquía 
hay en europa actualmente? ","6","10","","1","1","1","competitive","left","0.496507883072","1200.55417681","4.50349211693","1205.21244788","3.56862401962","1208.78111982","2.43137598038","1211.26331186","1212.70114493","1212.78168392","1215.78468204","1","1215.79842782","1221.95522285",""
"sujeto_8932899d","1","2","19","51","1222.08371997","direct","2","1","3","¿Cuántos capítulos de
 Friends existen? ","236","228","","1","1","1","competitive","left","0.70587015152","1222.78965688","4.29412984848","1227.25747991","2.85466694832","1230.11218691","3.14533305168","1233.30701399","1234.6126008","1234.69045401","1237.69342303","1","1237.70795584","1240.08359599",""
"sujeto_8932899d","1","2","20","52","1240.22602201","inverse","1","1","3","¿Cuántas óperas compuso Mozart? ","27","22","","1","1","1","competitive","right","0.668118953705","1240.8942039","4.3318810463","1245.39950085","3.60458087921","1249.00411987","2.39541912079","1251.45064092","1252.742769","1252.81892395","1255.82113385","1","1255.83646989","1263.14797783",""
"sujeto_8932899d","1","2","21","53","1263.30828595","direct","4","1","3","¿Cuántos mundiales de fútbol 
femenino ha realizado FIFA? ","9","7","","1","1","1","competitive","right","0.658908843994","1263.96726298","4.34109115601","1268.47406387","3.7101149559","1272.18421793","2.2898850441","1274.50976181","1275.75344491","1275.82789302","1278.83091283","1","1278.84454489","1284.94698381",""
"sujeto_8932899d","1","2","22","54","1285.09930801","inverse","3","1","2","¿Cuál es la temperatura 
media anual en Montevideo? ","17.5","16.3","","0","0","1","competitive","left","0.582855939865","1285.68223","4.41714406013","1290.27348995","5.10665202141","1295.38020086","0.893347978592","1296.32151294","1298.26006389","1298.33841181","1301.34113693","0","1301.35594082","1307.92544484",""
"sujeto_8932899d","1","2","23","55","1308.05790401","direct","2","1","2","¿En qué año se estrenó el
 videojuego The Sims? ","2000","2002","","0","0","0","competitive","right","0.794250965118","1308.85219884","4.20574903488","1313.21810603","4.45206189156","1317.670228","1.54793810844","1319.26992583","1321.13194895","1321.20334792","1324.20633483","0","1324.22129083","1331.61495495",""
"sujeto_8932899d","1","2","24","56","1331.75608087","inverse","2","1","1","¿Cuál es la canción con 
mas covers? ","Yesterday","Stand by me","","0","0","0","competitive","right","0.508130073547","1332.26428103","4.49186992645","1336.91286802","4.22631597519","1341.13924289","1.77368402481","1342.94890881","1344.34743595","1344.43294501","1347.4351089","0","1347.45054698","1351.62112188",""
"sujeto_8932899d","1","2","25","57","1351.75114083","direct","1","1","4","¿Cuánto duró la guerra
 de los 100 años?","116","123","","0","0","0","competitive","","0.645112037659","1352.39629889","4.35488796234","1356.90539598","6","1362.90552998","0","1362.92272496","1364.40354896","1364.47619081","1367.47915888","0","1367.49350595","1369.81329799",""
"sujeto_8932899d","1","2","26","58","1369.96280885","inverse","4","1","4","¿Qué color tiene la  bandera de Brasil?","Amarillo","Naranja","left","0","0","1","competitive","left","0.811377048492","1370.77423191","4.18862295151","1375.11681986","2.84540700912","1377.96226788","3.15459299088","1381.16696787","1382.73347998","1382.81879997","1385.82178593","1","1385.83638787","1388.8691709",""
"sujeto_8932899d","1","2","27","59","1389.00501084","direct","4","1","3","¿Qué carabela de 
Colon no volvió del viaje?","Santa María","La pinta","","0","0","1","competitive","left","0.759285926819","1389.76436782","4.24071407318","1394.15955687","4.09261584282","1398.25223088","1.90738415718","1400.19462085","1401.68568587","1401.76209998","1404.7650919","0","1404.77951288","1406.87900281",""
"sujeto_8932899d","1","2","28","60","1407.02832699","inverse","4","1","4","¿Cuántos huesos tiene
 un adulto humano?","217","206","","0","0","1","competitive","left","0.658972978592","1407.6873548","4.34102702141","1412.18332386","5.14895892143","1417.33232403","0.851041078568","1418.23600888","1419.50701785","1419.58697701","1422.58910489","0","1422.603652","1430.44131589",""
"sujeto_8932899d","1","2","29","61","1430.5932529","direct","1","1","1","¿Qué país africano fue 
fundado por esclavos?","Liberia","Chad","","0","0","0","competitive","left","0.904989957809","1431.49832582","4.09501004219","1435.76325703","3.68594408035","1439.449265","2.31405591965","1441.81414485","1443.80580997","1443.88257599","1446.88339186","0","1446.9002049","1454.8910749",""
"sujeto_8932899d","1","2","30","62","1455.03519893","inverse","4","1","2","¿A cuánto asciende la cima
 del monte Everest?","7.990 mts","8.848 mts","","0","0","1","competitive","left","0.606068849564","1455.64133","4.39393115044","1460.21059799","5.25262904167","1465.46326995","0.747370958328","1466.26246691","1467.44731283","1467.52970982","1470.53269482","0","1470.54631495","1477.73035502",""
"sujeto_8932899d","1","2","31","63","1477.86543393","direct","4","1","1","¿Cuál es el país mas chico?","Sealand","Luxemburgo","","1","1","1","competitive","left","0.630827903748","1478.49633503","4.36917209625","1483.03948498","4.32487607002","1487.36442399","1.67512392998","1489.073843","1490.93732786","1491.02430081","1494.02711391","1","1494.04275203","1497.1650629",""
"sujeto_8932899d","1","2","32","64","1497.31169796","inverse","2","1","4","¿Cuántas pirámides hay en Egipto?","10000","11000","","1","1","1","competitive","left","0.794592142105","1498.10635281","4.20540785789","1502.46516299","2.94110298157","1505.40632486","3.05889701843","1508.51625395","1509.54986191","1509.63493586","1512.63790584","1","1512.65226293","1517.7613399",""
"sujeto_8932899d","1","3","1","65","1631.16172791","direct","2","1","2","¿Cuál es el quinto país con 
mas extensión?","Canadá","Brasil","","1","1","0","competitive","right","0.904611825943","1632.06640291","4.09538817406","1636.31647897","3.95687198639","1640.27338886","2.04312801361","1642.36816502","1643.70146585","1643.78550601","1646.78848982","1","1646.80333281","1654.52972794","1517.77304697"
"sujeto_8932899d","1","3","2","66","1654.67129493","inverse","1","1","2","¿Qué rasgo facial no tiene
 la Mona Lisa?","Cejas","Pómulos","","0","0","1","competitive","left","0.513088941574","1655.18443084","4.48691105843","1659.82989597","4.80940198898","1664.639364","1.19059801102","1665.86490297","1667.615098","1667.69889092","1670.7018559","0","1670.71648502","1676.98781896",""
"sujeto_8932899d","1","3","3","67","1677.13504386","direct","4","1","3","¿Cuál es el país con 
mayor población?","Esados Unidos","China","right","0","0","1","competitive","right","0.516332864761","1677.65144992","4.48366713524","1682.3080709","3.66625905037","1685.97438788","2.33374094963","1688.35963988","1690.00519681","1690.09377098","1693.09673285","1","1693.11150002","1696.47883081",""
"sujeto_8932899d","1","3","4","68","1696.62960482","inverse","1","1","1","La palabra dinosaurio significa","Lagarto Terrible","Lagarto Dragón","","1","1","0","competitive","right","0.637367010117","1697.2670598","4.36263298988","1701.80147696","4.33181095123","1706.13334489","1.66818904877","1707.85317683","1709.02352095","1709.10360384","1712.10658598","1","1712.12087488","1714.98269892",""
"sujeto_8932899d","1","3","5","69","1715.11955094","direct","2","1","3","¿Qué es el membrillero?","Arbol","Arbusto","","0","0","0","competitive","left","0.657869100571","1715.77746391","4.34213089943","1720.27638984","3.89493703842","1724.17136884","2.10506296158","1726.31081486","1728.26418996","1728.34577084","1731.34875798","0","1731.36350203","1737.82753396",""
"sujeto_8932899d","1","3","6","70","1737.96824694","inverse","3","1","3","¿Alrededor de qué planeta orbita 
el satélite Europa?","Jupiter","Saturno","","1","1","1","competitive","right","0.741132974625","1738.70945191","4.25886702538","1743.12263393","5.6517188549","1748.77441883","0.348281145096","1749.17521286","1750.72000098","1750.79118896","1753.79420495","1","1753.80883694","1756.01400685",""
"sujeto_8932899d","1","3","7","71","1756.16078401","direct","3","1","1","¿Donde fue el mundial de 
fútbol de 1954?","Suiza","Suecia","","1","1","1","competitive","left","0.850696086884","1757.01157403","4.14930391312","1761.32831192","3.34210681915","1764.67047691","2.65789318085","1767.38029599","1768.63291693","1768.71648693","1771.71943498","1","1771.73400998","1775.64582992",""
"sujeto_8932899d","1","3","8","72","1775.80209184","inverse","1","1","4","¿Cuál de los 7 enanitos
no tenía barba?","Bashful","Mudito","","1","1","0","competitive","right","0.675364017487","1776.47751999","4.32463598251","1780.97288895","3.84551119804","1784.81847095","2.15448880196","1787.00857282","1788.58870101","1788.660151","1791.66116881","1","1791.6777668","1796.6062088",""
"sujeto_8932899d","1","3","9","73","1796.7456429","direct","3","1","2","¿Cual red social es
mas utilizada mundialmente?","Instagram","Facebook","","1","1","0","competitive","left","0.614813804626","1797.36052585","4.38518619537","1801.91947198","3.40899419785","1805.32852483","2.59100580215","1807.95377684","1809.87118292","1809.95490384","1812.95787096","1","1812.97269201","1815.90720081",""
"sujeto_8932899d","1","3","10","74","1816.05775189","inverse","4","1","1","¿Cuándo se inició la copa
 América de fútbol?","1916","1923","","1","1","1","competitive","right","0.627648830414","1816.68544292","4.37235116959","1821.21293402","3.30647015572","1824.51946402","2.69352984428","1827.26384902","1829.16127086","1829.24918485","1832.25218701","1","1832.26665187","1834.92276001",""
"sujeto_8932899d","1","3","11","75","1835.04901695","direct","3","1","4","¿Cuántos presidentes de EEUU
han muerto asesinados?","3","4","","0","0","1","competitive","left","0.868479013443","1835.91754198","4.13152098656","1840.22066689","3.25879192352","1843.47951889","2.74120807648","1846.27325082","1847.75719786","1847.84127402","1850.84425187","0","1850.85857892","1854.50269198",""
"sujeto_8932899d","1","3","12","76","1854.64346981","inverse","2","1","4","¿Cuántas veces participó EEUU
 en la copa América?","4","5","","0","0","1","competitive","left","0.6060359478","1855.2495749","4.3939640522","1859.81654","4.35287904739","1864.16948581","1.64712095261","1865.86787295","1867.31198001","1867.38523984","1870.38822794","0","1870.40288186","1876.52006793",""
"sujeto_8932899d","1","3","13","77","1876.65362597","direct","4","1","1","¿Cuál de estos países 
no formaba la URSS?","Azeribayán","Afganistán","","0","0","1","competitive","right","0.585869073868","1877.23953986","4.41413092613","1881.82738185","5.06609487534","1886.89351487","0.933905124664","1887.87975287","1889.19278383","1889.27955389","1892.28249788","0","1892.29725981","1900.27933288",""
"sujeto_8932899d","1","3","14","78","1900.41546297","inverse","1","1","1","¿En qué año se inauguró
 el teatro Solís?","1867","1856","","0","0","0","competitive","left","0.527067184448","1900.94259787","4.47293281555","1905.57298303","5.06948304176","1910.64250398","0.930516958237","1911.62454391","1912.68083692","1912.75827384","1915.7613008","0","1915.7756319","1922.4231379",""
"sujeto_8932899d","1","3","15","79","1922.56114793","direct","1","1","4","¿A qué velocidad vuela 
el avión más rápido?","3529","3874","","0","0","0","competitive","left","0.527401924133","1923.08861685","4.47259807587","1927.73418903","5.76217412949","1933.49639583","0.237825870514","1933.76971483","1935.52524996","1935.60269284","1938.60566998","0","1938.62096691","1940.73125792",""
"sujeto_8932899d","1","3","16","80","1940.87445903","inverse","3","1","4","¿De qué año es la primer 
película cinematográfica?","1897","1888","","0","0","0","competitive","left","0.636024951935","1941.51052785","4.36397504807","1946.06058788","4.40192484856","1950.46257281","1.59807515144","1952.11262393","1953.24517798","1953.32927799","1956.33215284","0","1956.34672499","1961.75645185",""
"sujeto_8932899d","1","3","17","81","1961.89851403","direct","2","1","3","¿Cuántos países 
tiene nuestro planeta?","191","194","","1","1","1","competitive","right","0.59507894516","1962.4937098","4.40492105484","1967.05541301","4.92104911804","1971.97650003","1.07895088196","1973.10618782","1974.46339202","1974.54064989","1977.54361296","1","1977.55827594","1980.79657698",""
"sujeto_8932899d","1","3","18","82","1980.94379997","inverse","2","1","2","¿Cuántos habitantes
 tiene Buenos Aires?","2.9000.000","3650000","","0","0","0","competitive","left","0.511698007584","1981.45556903","4.48830199242","1986.09825802","4.36525893211","1990.46358299","1.63474106789","1992.14986086","1993.54713893","1993.63353586","1996.63649893","0","1996.65093684","2002.48033381",""
"sujeto_8932899d","1","3","19","83","2002.61869788","direct","2","1","1","¿Cuántos kilos forman una tonelada?","1000","1500","left","1","1","1","competitive","left","0.466829061508","2003.08559299","4.53317093849","2007.7897408","4.01176404953","2011.80156493","1.98823595047","2013.82548285","2015.71280885","2015.79355192","2018.7965169","1","2018.81066394","2024.76808786",""
"sujeto_8932899d","1","3","20","84","2024.92943382","inverse","4","1","4","¿Cuántos estados tiene la 
República del Perú? ","24","23","","0","0","1","competitive","right","0.761162042618","2025.69067287","4.23883795738","2030.08712602","3.21344995499","2033.30063581","2.78655004501","2036.12181497","2037.14399886","2037.22260094","2040.22558188","0","2040.24016285","2045.18544602",""
"sujeto_8932899d","1","3","21","85","2045.324893","direct","3","1","3","¿En qué año nació Cristóbal Colón? ","1451","1447","","0","0","1","competitive","left","0.724664926529","2046.04959893","4.27533507347","2050.48111796","4.5493850708","2055.03056192","1.4506149292","2056.53286982","2058.3787899","2058.4660418","2061.46903801","0","2061.48378992","2065.71116781",""
"sujeto_8932899d","1","3","22","86","2065.85285687","inverse","4","1","4","¿Cuánto mide la 
Montaña Aconcagua? ","6234","6962","","0","0","1","competitive","right","0.618757963181","2066.471663","4.38124203682","2071.025069","3.10449409485","2074.12962198","2.89550590515","2077.07520103","2078.36451983","2078.444067","2081.44706583","0","2081.46146798","2088.64412093",""
"sujeto_8932899d","1","3","23","87","2088.77953291","direct","2","1","4","¿Cuánto mide el punto
 más profundo del océano? ","12508","11003","","0","0","1","competitive","left","0.655156850815","2089.434798","4.34484314919","2093.95025992","4.37636089325","2098.32666087","1.62363910675","2099.98706388","2101.23855782","2101.32124901","2104.32426095","0","2104.33849883","2108.54477191",""
"sujeto_8932899d","1","3","24","88","2108.68908286","inverse","1","1","3","¿Cuántos álbumes ha publicado 
el cantante Jaime Roos? ","41","34","","0","0","1","competitive","right","0.648566007614","2109.33769584","4.35143399239","2113.846663","3.77493810654","2117.62165999","2.22506189346","2119.88152695","2121.37139082","2121.4490118","2124.45201182","0","2124.46654391","2130.66269588",""
"sujeto_8932899d","1","3","25","89","2130.80142498","direct","4","1","3","¿En qué año nació el 
ex-presidente Jorge Battle? ","1921","1927","","1","1","1","competitive","right","0.537172079086","2131.33866","4.46282792091","2135.97484398","3.9447581768","2139.91964197","2.0552418232","2142.00952196","2143.74017","2143.8278439","2146.83081985","1","2146.84545803","2150.33145094",""
"sujeto_8932899d","1","3","26","90","2150.462888","inverse","1","1","3","¿Cuántas presidencias 
constitucionales  hubo en Uruguay? ","41","42","","0","0","1","competitive","left","0.581740140915","2151.04466987","4.41825985909","2155.61856198","4.81201410294","2160.4306159","1.18798589706","2161.65368199","2162.85742092","2162.93790197","2165.94088483","0","2165.95517182","2171.73881483",""
"sujeto_8932899d","1","3","27","91","2171.88487291","direct","1","1","2","¿Quién escribió mas sinfonías?","Mozart","Haydn","","1","1","0","competitive","left","0.7398250103","2172.62477493","4.2601749897","2177.04211402","3.0185239315","2180.06067991","2.9814760685","2183.09439182","2184.31183887","2184.39560294","2187.39857197","1","2187.41326785","2191.16469193",""
"sujeto_8932899d","1","3","28","92","2191.31467485","inverse","4","1","2","¿En qué año nació Michael Jackson?","1958","1953","","1","1","1","competitive","left","0.903020858765","2192.21776199","4.09697914124","2196.47338581","3.60328006744","2200.07672596","2.39671993256","2202.52359796","2204.50184393","2204.59179497","2207.59479094","1","2207.60946703","2213.47179294",""
"sujeto_8932899d","1","3","29","93","2213.61120892","direct","3","1","2","¿En qué año entró en vigencia 
la ley antitabaco en Uruguay?","2005","2006","","1","1","1","competitive","left","1.34640884399","2214.95766497","3.65359115601","2218.7674849","4.58813285828","2223.355685","1.41186714172","2224.81894994","2226.41371489","2226.48667192","2229.48965788","1","2229.50435901","2234.83838487",""
"sujeto_8932899d","1","3","30","94","2234.972188","inverse","3","1","1","¿Cuándo se subió el 
primer video a youtube?","2004","2005","","0","0","1","competitive","right","0.932526111603","2235.90477991","4.0674738884","2240.14521194","3.65637302399","2243.80164886","2.34362697601","2246.19634485","2247.50201392","2247.58088803","2250.58386898","0","2250.59821391","2258.35382485",""
"sujeto_8932899d","1","3","31","95","2258.50027895","direct","2","1","1","¿Cuántos habitantes tiene India?","1200 millones","1300 millones","","0","0","0","competitive","right","0.707429170609","2259.20778584","4.29257082939","2263.67236996","4.71126914024","2268.38370299","1.28873085976","2269.708498","2271.67812896","2271.75913191","2274.762115","0","2274.77756","2280.82031298",""
"sujeto_8932899d","1","3","32","96","2280.98745394","inverse","4","1","2","¿A qué edad murió Bob Marley?","36","37","","0","0","1","competitive","right","1.41420602798","2282.40170288","3.58579397202","2286.15146685","3.66019201279","2289.81169796","2.33980798721","2292.18532681","2294.0832119","2294.16993785","2297.17287993","0","2297.18852592","2300.29096985",""
"sujeto_8932899d","1","4","1","97","2423.70466781","direct","2","1","1","¿Cuantos años dirigió la selección 
uruguaya Tabarez?","15 años","13 años","","0","0","0","competitive","left","0.841078996658","2424.54582","4.15892100334","2428.87451482","3.45518994331","2432.32976484","2.54481005669","2434.92423582","2436.11540294","2436.19145894","2439.19446301","0","2439.20918584","2446.28122687","2300.30301499"
"sujeto_8932899d","1","4","2","98","2446.42733097","inverse","4","1","1","¿Cuantas teclas tiene un teclado 
de computadora generalmente? ","Entre 99 y 108","Entre 109 y 113","","1","1","1","competitive","left","0.507473945618","2446.93484902","4.49252605438","2451.604532","4.80721902847","2456.4117918","1.19278097153","2457.63878202","2458.64115691","2458.72269893","2461.72563291","1","2461.74032092","2464.11171794",""
"sujeto_8932899d","1","4","3","99","2464.25828385","direct","1","1","1","¿Cuál Departamento tiene
 mayor superficie?","Río Negro","Soriano","","0","0","0","competitive","left","1.17950892448","2465.43783784","3.82049107552","2469.4141078","3.7876560688","2473.2018249","2.2123439312","2475.46457791","2477.178087","2477.24932194","2480.2523129","0","2480.2666378","2484.59271383",""
"sujeto_8932899d","1","4","4","100","2484.75399685","inverse","3","1","2","¿Cuál es el apellido de las 
hermanastras  de  cenicienta?","Tremaine","Truman","","0","0","1","competitive","left","0.568815946579","2485.32289386","4.43118405342","2489.92137098","4.7824511528","2494.70386195","1.2175488472","2495.97462082","2497.84413195","2497.92530298","2500.9282968","0","2500.94266486","2503.63817286",""
"sujeto_8932899d","1","4","5","101","2503.79391789","direct","4","1","4","¿Cuál película ganó un
 Oscar a mejor película?","Alto Impacto","Cache","","0","0","1","competitive","left","0.65890789032","2504.45287085","4.34109210968","2508.94984102","3.83199810982","2512.7818799","2.16800189018","2515.00142288","2516.12080002","2516.20252991","2519.20553493","0","2519.22044992","2521.48413897",""
"sujeto_8932899d","1","4","6","102","2521.62218189","inverse","1","1","3","¿A cuántos centímetros
equivale la medida pié?","25","30","","0","0","1","competitive","right","0.507677078247","2522.12992692","4.49232292175","2526.7758739","3.76998591423","2530.54592085","2.23001408577","2532.82799292","2533.86799288","2533.94515681","2536.94814801","0","2536.96256089","2542.36352682",""
"sujeto_8932899d","1","4","7","103","2542.49650693","direct","2","1","2","¿Qué departamento es mas grande?","Cerro Largo","Paysandú","","0","0","0","competitive","right","0.515338897705","2543.01188898","4.48466110229","2547.66850591","4.44834280014","2552.116889","1.55165719986","2553.72182703","2555.32162094","2555.40640187","2558.40914989","0","2558.42353892","2562.53354001",""
"sujeto_8932899d","1","4","8","104","2562.69130301","inverse","2","1","3","¿Quién pintó la Mona Lisa?","Picasso","Da Vinci","right","0","0","1","competitive","right","0.58452296257","2563.27589488","4.41547703743","2567.86393595","2.27892804146","2570.14292598","3.72107195854","2573.89777684","2575.50362897","2575.58277583","2578.58542895","1","2578.60120201","2580.76355481",""
"sujeto_8932899d","1","4","9","105","2580.91922188","direct","4","1","3","¿Cuántos litros hay en un galon?","3.54","3.78","","1","1","1","competitive","left","0.62365603447","2581.54292393","4.37634396553","2586.07344103","3.14739108086","2589.22087193","2.85260891914","2592.12455583","2593.642452","2593.72596192","2596.72889996","1","2596.74241686","2602.53471184",""
"sujeto_8932899d","1","4","10","106","2602.66135883","inverse","4","1","1","¿Cuántas teclas tiene
 un piano moderno?","80","88","","0","0","1","competitive","right","0.735692977905","2603.39713383","4.26430702209","2607.817981","4.70186495781","2612.51988792","1.29813504219","2613.87016988","2614.87866402","2614.95366001","2617.95666003","0","2617.97094393","2624.76867199",""
"sujeto_8932899d","1","4","11","107","2624.92183685","direct","4","1","3","¿Cuántos países hay en África?","54","62","","0","0","1","individual","left","0.645081043243","2625.56696391","4.35491895676","2630.07547402","2.71342515945","2632.78896403","3.28657484055","2636.11081386","2637.80136395","2637.84545684","2640.84842992","0","2640.86317492","2648.66793585",""
"sujeto_8932899d","1","4","12","108","2648.79778886","inverse","1","1","3","¿En qué siglo se crearon
 las primeras pistolas?","XV","XIII","","1","1","1","competitive","left","0.617089033127","2649.41494393","4.38291096687","2653.95473194","3.92809677124","2657.8828969","2.07190322876","2659.99014688","2661.93806195","2662.02493596","2665.02714992","1","2665.04184198","2668.27490997",""
"sujeto_8932899d","1","4","13","109","2668.41216898","direct","3","1","4","¿En qué año se estrenó 
la serie friends?","1994","1995","","0","0","1","competitive","right","0.48975610733","2668.90201092","4.51024389267","2673.58550501","3.06740903854","2676.65295386","2.93259096146","2679.63555193","2681.51089001","2681.58726382","2684.59025383","0","2684.60492992","2689.61099696",""
"sujeto_8932899d","1","4","14","110","2689.75653982","inverse","3","1","4","¿En qué año nació Hitler?","1889","1887","","0","0","1","competitive","left","0.645407915115","2690.40201402","4.35459208488","2694.91307187","3.57780694962","2698.49092388","2.42219305038","2700.94717789","2702.06156683","2702.14835691","2705.14918995","0","2705.1656909","2710.19268584",""
"sujeto_8932899d","1","4","15","111","2710.33323288","direct","1","1","4","¿Cuánto pesa un elefante Africano?","6000 kilos","5400 kilos","","0","0","0","competitive","left","0.706676006317","2711.039958","4.29332399368","2715.50235701","3.14260601997","2718.64502501","2.85739398003","2721.53730989","2722.89322782","2722.98093796","2725.983392","0","2725.99010801","2732.69717288",""
"sujeto_8932899d","1","4","16","112","2732.84551191","inverse","1","1","2","¿Qué porcentaje de 
la población es zurda?","10%","7%","","1","1","0","competitive","right","1.03543496132","2733.88099289","3.96456503868","2738.00170588","3.54326105118","2741.54501081","2.45673894882","2744.03627181","2745.27936196","2745.35410786","2748.35708284","1","2748.37181187","2754.35158587",""
"sujeto_8932899d","1","4","17","113","2754.47291803","direct","1","1","2","¿En qué año se estrenó
Volver al futuro?","1984","1985","","0","0","1","competitive","left","0.94810295105","2755.42109084","4.05189704895","2759.62964487","4.86534810066","2764.49504185","1.13465189934","2765.68118691","2767.2420938","2767.31531501","2770.31830001","0","2770.33317685","2777.42463684",""
"sujeto_8932899d","1","4","18","114","2777.56736803","inverse","3","1","2","¿Cuántos jugadores hay en un 
equipo de baseball?","9","8","","1","1","0","competitive","right","0.509609937668","2778.07702184","4.49039006233","2782.72505999","5.55990004539","2788.2850368","0.440099954605","2788.76065183","2790.37493396","2790.46031499","2793.46329689","1","2793.47129202","2798.44853783",""
"sujeto_8932899d","1","4","19","115","2798.58822799","direct","2","1","1","¿Cuántos Oscar ganó
 la película titanic?","13","11","","1","1","1","competitive","left","0.576748132706","2799.1650269","4.42325186729","2803.75007987","3.24588084221","2806.99600101","2.75411915779","2809.78562784","2811.08766484","2811.17126584","2814.17425394","1","2814.18856502","2818.79123902",""
"sujeto_8932899d","1","4","20","116","2818.92249799","inverse","4","1","4","¿En qué año comenzó
la segunda guerra mundial?","1939","1976","left","0","0","1","competitive","","0.638555049896","2819.56112099","4.3614449501","2824.09613085","6","2830.09628797","0","2830.11163998","2831.91150689","2831.99788499","2835.00082898","0","2835.01665998","2839.00380802",""
"sujeto_8932899d","1","4","21","117","2839.15047503","direct","2","1","4","¿Cuántos biomas hay en Uruguay?","5","4","","0","0","1","competitive","right","0.606518030167","2839.75710201","4.39348196983","2844.30672383","2.37824010849","2846.68504","3.62175989151","2850.34031391","2852.13769197","2852.22583294","2855.2287879","0","2855.24352694","2861.49292803",""
"sujeto_8932899d","1","4","22","118","2861.62774086","inverse","2","1","3","¿Cuándo murió Pablo Escobar?","1993","1997","","1","1","1","competitive","left","0.459274053574","2862.08712387","4.54072594643","2866.78410482","2.97490906715","2869.75910687","3.02509093285","2872.83533096","2874.61818981","2874.70397997","2877.70696497","1","2877.72133398","2883.42499995",""
"sujeto_8932899d","1","4","23","119","2883.57244086","direct","1","1","4","¿Qué serie ha ganado mas premios?","Friends","Murphy Brown","","1","1","0","competitive","left","0.529607057571","2884.10212588","4.47039294243","2888.72827482","3.35168290138","2892.08000088","2.64831709862","2894.7798028","2896.13222694","2896.21527886","2899.21827388","1","2899.2327199","2904.79435587",""
"sujeto_8932899d","1","4","24","120","2904.93399501","inverse","4","1","2","¿Cuántas fichas tiene el dominó?","26","28","","1","1","1","competitive","right","0.482007980347","2905.41611195","4.51799201965","2910.08853102","2.95648694038","2913.04513192","3.04351305962","2916.13678885","2917.19208002","2917.27269483","2920.27569389","1","2920.28948498","2925.53259182",""
"sujeto_8932899d","1","4","25","121","2925.67429781","direct","2","1","4","¿Cuántos son los dientes de leche?","20","25","","0","0","1","competitive","left","0.731847047806","2926.40625095","4.26815295219","2930.85165381","2.96841001511","2933.8201139","3.03158998489","2936.90186691","2938.61225891","2938.6862638","2941.68926096","0","2941.70415783","2943.84913087",""
"sujeto_8932899d","1","4","26","122","2943.98931599","inverse","3","1","3","¿Cuántos gramos son una onza?","22","28","","0","0","1","competitive","right","0.586730003357","2944.57612181","4.41326999664","2949.15878296","2.646225214","2951.80507088","3.353774786","2955.19292784","2957.18780684","2957.2609489","2960.26389599","0","2960.2793119","2966.569592",""
"sujeto_8932899d","1","4","27","123","2966.71373391","direct","3","1","1","¿Cuándo salió el primer album
 de los Beatles?","1963","1962","","1","1","1","competitive","left","0.831326961517","2967.54512382","4.16867303848","2971.87001395","2.73813009262","2974.60818601","3.26186990738","2977.92102194","2979.08467603","2979.15646982","2982.15946102","1","2982.17376494","2985.94583392",""
"sujeto_8932899d","1","4","28","124","2986.07509089","inverse","3","1","3","¿Quién fundó la empresa apple?","Carlos Slim","Steve Jobs","","1","1","1","competitive","right","0.503024101257","2986.578161","4.49697589874","2991.23180103","2.99621295929","2994.22808886","3.00378704071","2997.28263187","2998.39728785","2998.48447394","3001.48747587","1","3001.50113988","3007.798944",""
"sujeto_8932899d","1","4","29","125","3007.93549681","direct","4","1","2","¿Cuántos municipios hay
 en Montevideo?","8","7","","1","1","1","competitive","left","0.655599117279","3008.59115195","4.34440088272","3013.09388995","2.92621421814","3016.02016497","3.07378578186","3019.1278758","3021.04265785","3021.12887096","3024.1318748","1","3024.14674187","3026.22786903",""
"sujeto_8932899d","1","4","30","126","3026.36491799","inverse","1","1","1","¿Cuántos kilómetros hay
 de Montevideo a Artigas?","632","599","","0","0","0","competitive","left","0.44922208786","3026.81420994","4.55077791214","3031.518224","4.10087609291","3035.61913991","1.89912390709","3037.57115102","3039.05426502","3039.13845801","3042.14142394","0","3042.15567899","3048.20783782",""
"sujeto_8932899d","1","4","31","127","3048.35746789","direct","2","1","2","¿En qué año nació 
Leonardo Da Vinci?","1452","1511","","1","1","0","competitive","left","0.550671815872","3048.90820789","4.44932818413","3053.52981591","4.32928991318","3057.85914683","1.67071008682","3059.56495881","3061.41858697","3061.4999609","3064.50290489","1","3064.5176208","3067.66397285",""
"sujeto_8932899d","1","4","32","128","3067.80243492","inverse","3","1","1","¿A qué continente
 pertenece el país Gabón?","Africa","Oceanía","","0","0","1","competitive","right","0.772696018219","3068.57520103","4.22730398178","3072.97232699","4.16778206825","3077.14016986","1.83221793175","3079.02567601","3080.83730197","3080.90921593","3083.91215396","0","3083.92767382","3089.16558003",""
