"code","nro_aplicante","nro_bloque","nro_trial_bloque","nro_trial_global","show_game_type","choice_order","rival","pay_individual","pay_competitive","question","answer_left_text","answer_right_text","correct_answer","outcome_individual","outcome_competitive","outcome_rival","game_type","answer","social_time","rt_game_type","feedback_delay","show_question","answer_time","rt_answer_global","feedback_delay_2","show_jitter","jitter_time","show_outcome","outcome_time","outcome_participant_real","show_final_jitter","second_jitter_time","inicio_descanso"
"sujeto_33dcff34","1","1","1","1","629.828567982","direct","3","1","4","¿Cuántos centímetros corresponden
al talle 36 del calzado?","23","24","","0","0","1","individual","right","2.07926392555","631.907873154","2.92073607445","634.997590065","4.86436986923","639.862027168","1.13563013077","641.048470974","642.076782942","642.115618944","645.116042137","0","645.132302046","647.294841051",""
"sujeto_33dcff34","1","1","2","2","647.435734987","inverse","3","1","2","¿Cuántas metros mide la Intendencia
Municipal de Montevideo? ","84","78","","0","0","1","competitive","right","1.25650596619","648.692286015","3.74349403381","652.575238943","4.71909308434","657.294388056","1.28090691566","658.626492023","660.504544973","660.577995062","663.580961943","0","663.595281124","665.688047171",""
"sujeto_33dcff34","1","1","3","3","665.814723015","direct","1","1","3","¿Cuántas La Pasiva
 hay en uruguay?","15","11","","1","1","1","competitive","right","1.2129919529","667.02778101","3.7870080471","670.968112946","4.05070304871","675.018881083","1.94929695129","677.02029705","678.631984949","678.703999996","681.706954002","1","681.722031116","686.000374079",""
"sujeto_33dcff34","1","1","4","4","686.12330699","inverse","3","1","3","¿De que color es la camiseta de uruguay?","blanca","celeste","right","1","1","1","competitive","right","1.11975598335","687.243127108","3.88024401665","691.278139114","4.39024019241","695.668418169","1.60975980759","697.32989502","698.534667015","698.61412406","701.616068125","1","701.630102158","705.084021091",""
"sujeto_33dcff34","1","1","5","5","705.21765399","direct","2","1","1","¿Cuánto metros mide
la torre Eiffel?","333","324","","1","1","1","competitive","right","1.02805685997","706.245754957","3.97194314003","710.373094082","3.55373215675","713.926892042","2.44626784325","716.423899174","717.945311069","718.025058985","721.028015137","1","721.043077946","728.076023102",""
"sujeto_33dcff34","1","1","6","6","728.212303162","inverse","3","1","4","¿Cuantas ciudades existen
 en todo el uruguay?","63","72","","0","0","1","competitive","right","0.988994121552","729.201378107","4.01100587845","733.352432966","4.32199501991","737.674488068","1.67800498009","739.403548956","740.458361149","740.537625074","743.540610075","0","743.554522038","751.181108952",""
"sujeto_33dcff34","1","1","7","7","751.309942007","direct","1","1","1","¿Cuantos estados tiene África?","52","54","","1","1","0","competitive","left","1.00583600998","752.31584096","3.99416399002","756.447715998","4.59630703926","761.044084072","1.40369296074","762.483170986","764.347152948","764.41657114","767.419546127","1","767.434581995","773.191509008",""
"sujeto_33dcff34","1","1","8","8","773.319136143","inverse","4","1","4","¿En qué año nació
 Stephen Hawking?","1952","1942","","0","0","1","competitive","right","1.13427591324","774.453479052","3.86572408676","778.472543955","4.07001709938","782.542618036","1.92998290062","784.524522066","785.968060017","786.058877945","789.061856031","0","789.076131105","795.172081947",""
"sujeto_33dcff34","1","1","9","9","795.299468994","direct","2","1","3","¿Cuánto años tenía Artigas
 cuando se fue a Paraguay?","56","57","","1","1","1","competitive","right","1.33456993103","796.634086132","3.66543006897","800.437952042","4.58820581436","805.02621603","1.41179418564","806.490355015","808.039868116","808.107643127","811.110633135","1","811.124919176","817.167428017",""
"sujeto_33dcff34","1","1","10","10","817.311408997","inverse","1","1","2","¿Cuantos milímetros 
mide una hoja A2?","420x592","420x594","","0","0","1","competitive","right","1.10117387772","818.412649155","3.89882612228","822.450387955","5.60340189934","828.053847075","0.396598100662","828.502020121","830.070397139","830.15072298","833.153733969","0","833.16802907","840.24001503",""
"sujeto_33dcff34","1","1","11","11","840.374083996","direct","3","1","3","¿Cuál es la menor temperatura 
registrada en Uruguay?","-5.4","-7.4","","0","0","1","competitive","left","2.04010987282","842.414237976","2.95989012718","845.544136047","4.0922729969","849.636468172","1.9077270031","851.598444939","853.280058146","853.349430084","856.352071047","0","856.366048098","860.096092939",""
"sujeto_33dcff34","1","1","12","12","860.24981308","inverse","2","1","2","¿Cuantos años hace que 
se fundó facebook?","18","17","","0","0","0","competitive","right","1.04090094566","861.29076004","3.95909905434","865.38587594","4.61797499657","870.00388813","1.38202500343","871.438752174","872.811478138","872.889518023","875.892460108","0","875.906769991","878.681419134",""
"sujeto_33dcff34","1","1","13","13","878.812391996","direct","1","1","4","¿Cuál animal es más
 pesado en promedio?","Rinoceronte","Hipopotamo","","0","0","0","competitive","left","0.85972905159","879.672192097","4.14027094841","883.96641016","4.91404795647","888.880499125","1.08595204353","890.014781952","891.094030142","891.165024996","894.16801095","0","894.182280064","898.020087957",""
"sujeto_33dcff34","1","1","14","14","898.202425003","inverse","1","1","2","¿Qué personaje de dragon ball 
murió más veces?","Chaoz","Krillin","","1","1","0","competitive","left","1.05835080147","899.260842085","3.94164919853","903.344412088","4.87658905983","908.221061945","1.12341094017","909.378673077","910.836470127","910.912657022","913.91563201","1","913.930026054","921.702963114",""
"sujeto_33dcff34","1","1","15","15","921.831439018","direct","3","1","2","La universidad de oxford. 
existe desde:","1096","1249","","1","1","0","competitive","left","0.95592212677","922.787405968","4.04407787323","926.972582102","4.4190120697","931.391636133","1.5809879303","933.024394989","934.073208094","934.158720016","937.160762072","1","937.175877094","943.866745949",""
"sujeto_33dcff34","1","1","16","16","944.006247997","inverse","3","1","1","¿Qué escritor latino ganó antes
 el premio nobel?"," García Marquez","Neruda","","0","0","1","competitive","left","0.763742923737","944.770079136","4.23625707626","949.166341066","5.00689697266","954.173278093","0.993103027344","955.202496052","956.942500114","957.019289017","960.022259951","0","960.037439108","963.497966051",""
"sujeto_33dcff34","1","1","17","17","963.640889168","direct","4","1","3","¿Cuántos dientes tiene un
 tiburón blanco?","6000","3000","","0","0","1","competitive","right","1.16859507561","964.809541941","3.83140492439","968.796682119","4.15803194046","972.954770088","1.84196805954","974.831037045","975.870005131","975.948349953","978.951306105","0","978.965414047","983.772017002",""
"sujeto_33dcff34","1","1","18","18","983.91905117","inverse","4","1","1","¿Cuánto mide el paralelo Ecuador?","40.000km","70.000km","","0","0","1","competitive","right","1.73908805847","985.658202171","3.26091194153","989.056978941","4.47936797142","993.53640604","1.52063202858","995.09157896","997.047647953","997.126106024","1000.12908816","0","1000.14426303","1003.74683809",""
"sujeto_33dcff34","1","1","19","19","1003.87821007","direct","4","1","2","¿Cuál fue el primer libro 
de Stephen King?","Carrie","The Stand","","1","1","1","competitive","right","0.656539916992","1004.53483105","4.34346008301","1009.03455901","4.3243188858","1013.35894299","1.6756811142","1015.06924605","1016.81328511","1016.88643003","1019.88939404","1","1019.90347314","1024.37600803",""
"sujeto_33dcff34","1","1","20","20","1024.50761008","inverse","2","1","3","¿Qué civilización practicaba
 la momificación?","Grecia","Egipto","right","0","0","1","competitive","right","1.78865480423","1026.29633498","3.21134519577","1029.66335607","4.09809803963","1033.76151299","1.90190196037","1035.71378803","1037.65309215","1037.73158503","1040.73455215","1","1040.74883604","1044.97606206",""
"sujeto_33dcff34","1","1","21","21","1045.10064411","direct","4","1","4","¿Cuántos millones de visitas
 recibe google por minuto?","3.0","4.5","","0","0","1","competitive","right","1.38425803185","1046.48497415","3.61574196815","1050.25700903","4.27408695221","1054.53114009","1.72591304779","1056.29227304","1057.80714011","1057.89229298","1060.89525294","0","1060.91060114","1068.03327417",""
"sujeto_33dcff34","1","1","22","22","1068.16210604","inverse","1","1","3","La máquina de fax. se inventó en:","1843","1960","","0","0","1","competitive","left","0.55549621582","1068.71772504","4.44450378418","1073.31887507","4.3608789444","1077.67982316","1.6391210556","1079.35406494","1080.59608698","1080.6721561","1083.6751411","0","1083.68955898","1086.92407799",""
"sujeto_33dcff34","1","1","23","23","1087.07269311","direct","2","1","4","En la verdadera historia de los
 300 espartanos. habían:","300 soldados","4300 soldados","","1","1","1","competitive","left","1.53144001961","1088.60420513","3.46855998039","1092.23059607","4.80576896667","1097.03640509","1.19423103333","1098.27958894","1099.54009199","1099.61337805","1102.61633706","1","1102.63067913","1106.43243003",""
"sujeto_33dcff34","1","1","24","24","1106.56767702","inverse","1","1","4","¿Cuántos milímetros crece
 el pelo por día?","0.4","0.04","","0","0","0","competitive","right","0.781986951828","1107.34970713","4.21801304817","1111.72360301","4.11326503754","1115.83693504","1.88673496246","1117.75858808","1119.51932597","1119.592592","1122.59557295","0","1122.60994101","1129.345052",""
"sujeto_33dcff34","1","1","25","25","1129.49812412","direct","4","1","1","¿Cuánto mide la baldosa gris 
clásica de Montevideo?","22x22 cm.","20x20 cm.","","1","1","1","competitive","right","0.627207994461","1130.12539601","4.37279200554","1134.67011213","5.11541104317","1139.78556108","0.884588956833","1140.7215991","1142.71686602","1142.78832912","1145.79131007","1","1145.80648994","1151.34929395",""
"sujeto_33dcff34","1","1","26","26","1151.47492194","inverse","2","1","2","¿Cuántas películas de rápidos
 y furiosos hay?","10","11","","1","1","0","competitive","right","1.10806202888","1152.58302808","3.89193797112","1156.61481714","3.456387043","1160.07126498","2.543612957","1162.66589212","1164.02391911","1164.10076308","1167.10374713","1","1167.11768198","1169.152354",""
"sujeto_33dcff34","1","1","27","27","1169.29933405","direct","3","1","1","¿Cuántos masters 1000
 ganó Del Potro?","1","2","","1","1","1","competitive","right","1.16919088364","1170.46858811","3.83080911636","1174.45318604","4.06753396988","1178.52078104","1.93246603012","1180.50596499","1182.26003313","1182.34035611","1185.34330702","1","1185.35848808","1192.75485015",""
"sujeto_33dcff34","1","1","28","28","1192.87832904","inverse","2","1","4","¿Cuántos meses dura el 
embarazo de una leona?","3 meses","4 meses","","0","0","1","competitive","right","0.962898015976","1193.84127903","4.03710198402","1198.03797317","4.84245800972","1202.88049006","1.15754199028","1204.07258201","1205.18366194","1205.25599408","1208.25898194","0","1208.27328014","1214.99574709",""
"sujeto_33dcff34","1","1","29","29","1215.12534404","direct","1","1","1","¿En qué año fue creado
 el sandwich?","1762","1653","","1","1","0","competitive","left","0.599589824677","1215.72504115","4.40041017532","1220.28298497","4.87607598305","1225.15911913","1.12392401695","1226.31745815","1227.91600299","1227.98557115","1230.98807812","1","1231.00234795","1234.47298098",""
"sujeto_33dcff34","1","1","30","30","1234.60639095","inverse","4","1","2","El nombre de la moneda de Vietnam es:","Dinar","Dong","","0","0","1","competitive","right","0.595052957535","1235.20150709","4.40494704247","1239.75989294","4.67482495308","1244.43475795","1.32517504692","1245.79481912","1247.22677207","1247.31241107","1250.31540394","0","1250.330616","1256.49901915",""
"sujeto_33dcff34","1","1","31","31","1256.64926505","direct","2","1","1","¿cuantos aleteos puede dar 
un colibrí por segundo?","120","50","","0","0","0","competitive","left","0.874857902527","1257.52418613","4.12514209747","1261.81781101","5.68949604034","1267.50734496","0.310503959656","1267.85503197","1269.58744907","1269.67201996","1272.67499995","0","1272.68945408","1276.90173697",""
"sujeto_33dcff34","1","1","32","32","1277.04064202","inverse","4","1","3","¿Qué altura promedio tienen
 los hombres uruguayos?","1.73 m","1.72 m","","1","1","1","competitive","right","0.922055959702","1277.96274209","4.0779440403","1282.18333316","4.36761808395","1286.55099201","1.63238191605","1288.23490095","1289.49732804","1289.56888509","1292.57187009","1","1292.58616614","1297.06008816",""
"sujeto_33dcff34","1","2","1","33","1426.37721395","direct","1","1","1","¿En qué año nació 
el actor Bradd Pitt?","1967","1963","","1","1","1","competitive","right","0.894009113312","1427.27128816","4.10599088669","1431.52942514","3.28702616692","1434.81649399","2.71297383308","1437.58078003","1438.67664099","1438.74899411","1441.75199509","1","1441.76613402","1447.69370794","1297.07161307"
"sujeto_33dcff34","1","2","2","34","1447.81793594","inverse","2","1","1","¿Cual es el segundo 
monte más alto?","Kanchenjunga","K2","","1","1","1","competitive","left","0.700041055679","1448.51802111","4.29995894432","1452.97605109","5.20815587044","1458.18424797","0.791844129562","1459.01195002","1460.46435308","1460.54577518","1463.54876304","1","1463.56315303","1466.993047",""
"sujeto_33dcff34","1","2","3","35","1467.1318171","direct","3","1","1","¿Cuándo finalizó la construcción
 del Palacio Legislativo?","1925","1917","","0","0","1","competitive","right","1.22977209091","1468.36165714","3.77022790909","1472.28737903","4.97736096382","1477.26478314","1.02263903618","1478.32207203","1479.963763","1480.03947902","1483.04246211","0","1483.05685711","1488.75443101",""
"sujeto_33dcff34","1","2","4","36","1488.89504504","inverse","3","1","3","¿Cuántos integrantes tenía
 en su inicio  el cuarteto de nos?","3","4","","1","1","1","competitive","right","0.688217163086","1489.58333015","4.31178283691","1494.04848409","5.41599106789","1499.46454","0.584008932114","1500.10108495","1501.23416805","1501.31768799","1504.32005501","1","1504.33513618","1509.98494601",""
"sujeto_33dcff34","1","2","5","37","1510.12000203","direct","2","1","3","¿Qué valor tiene el número pi?","3.14","4.18","left","0","0","1","competitive","left","0.770873069763","1510.8909421","4.22912693024","1515.289428","2.76568984985","1518.05517817","3.23431015015","1521.32463598","1522.77883315","1522.85921311","1525.86007214","1","1525.87729406","1532.79828811",""
"sujeto_33dcff34","1","2","6","38","1532.93265605","inverse","2","1","2","¿Cuál es la esperanza de vida
 en Uruguay?","75","77","","1","1","0","competitive","left","0.971936941147","1533.90463614","4.02806305885","1538.07262897","4.22214889526","1542.29482317","1.77785110474","1544.12442398","1545.77821898","1545.85800004","1548.86096597","1","1548.87727308","1555.34030199",""
"sujeto_33dcff34","1","2","7","39","1555.46599913","direct","1","1","2","¿Cuantos pisos tiene la torre 
de las comunicaciones?","26","32","","1","1","0","competitive","right","0.939233064651","1556.40529609","4.06076693535","1560.61918402","4.38630580902","1565.00553298","1.61369419098","1566.66968703","1568.498456","1568.57034302","1571.57332206","1","1571.58868599","1573.73489594",""
"sujeto_33dcff34","1","2","8","40","1573.87447596","inverse","2","1","4","¿En qué país sudamericano 
no hay McDonalds?","Bolivia","Venezuela","","0","0","1","competitive","left","0.795336008072","1574.66987395","4.20466399193","1579.02880096","5.59827613831","1584.62712002","0.401723861694","1585.08081007","1586.390172","1586.46406102","1589.46702003","0","1589.48100209","1595.84069109",""
"sujeto_33dcff34","1","2","9","41","1595.96712208","direct","3","1","1","¿En qué año empieza
 la Edad Media?","476","512","","1","1","1","competitive","left","0.725385904312","1596.69262195","4.27461409569","1601.12132502","3.45840787888","1604.57977605","2.54159212112","1607.17310405","1608.57685995","1608.65806103","1611.660074","1","1611.67553806","1614.66410303",""
"sujeto_33dcff34","1","2","10","42","1614.79359818","inverse","3","1","4","¿Hace cuántos años surgió
 el ser humano?","200mil","300mil","","0","0","0","competitive","left","1.08154392242","1615.875211","3.91845607758","1619.95164704","4.76375412941","1624.71546197","1.23624587059","1626.00222397","1627.88828301","1627.96991897","1630.97289705","0","1630.98724318","1634.29771614",""
"sujeto_33dcff34","1","2","11","43","1634.44024611","direct","3","1","4","¿Cuántas cuadras tiene
 actualmente 18 de julio? ","36","33","","0","0","1","competitive","right","1.05255007744","1635.49285197","3.94744992256","1639.59561801","5.05539488792","1644.65108013","0.944605112076","1645.64725113","1647.34801912","1647.43025303","1650.43322706","0","1650.44835901","1655.17465305",""
"sujeto_33dcff34","1","2","12","44","1655.31615615","inverse","1","1","4","¿Qué juego de equipo se 
considera mas rápido?","Lacrosse","Badminton","","0","0","0","competitive","right","0.841302156448","1656.15752506","4.15869784355","1660.46950316","5.23414897919","1665.70371103","0.765851020813","1666.52347398","1667.76655698","1667.840693","1670.84365511","0","1670.85869503","1678.85213017",""
"sujeto_33dcff34","1","2","13","45","1678.99306798","direct","1","1","3","¿Qué promedio de edad 
vive una jirafa? ","25","20","","0","0","1","competitive","left","0.618061065674","1679.61119699","4.38193893433","1684.15141606","5.36095118523","1689.51240611","0.639048814774","1690.18619895","1691.94772816","1692.02022195","1695.02318406","0","1695.03698802","1700.99265814",""
"sujeto_33dcff34","1","2","14","46","1701.13938713","inverse","1","1","2","¿Cuántos grandes lagos hay?","7","5","","0","0","1","competitive","left","0.732635974884","1701.87212396","4.26736402512","1706.31375813","4.31959295273","1710.6333921","1.68040704727","1712.36447096","1713.65662217","1713.73202014","1716.73500013","0","1716.74858594","1724.56995296",""
"sujeto_33dcff34","1","2","15","47","1724.70049596","direct","3","1","2","¿Cuántos discos de estudio
 grabó Johhny Cash? ","54","43","","1","1","0","competitive","right","0.622779846191","1725.32334614","4.37722015381","1729.85627317","4.93823194504","1734.79454708","1.06176805496","1735.90849304","1737.18706703","1737.258183","1740.26115417","1","1740.27529001","1746.926193",""
"sujeto_33dcff34","1","2","16","48","1747.06033611","inverse","4","1","1","¿Cuántos barrios tiene
 Montevideo? ","71","62","","0","0","1","competitive","left","1.15328812599","1748.21367502","3.84671187401","1752.21473694","3.91330003738","1756.12810516","2.08669996262","1758.2496171","1759.25601816","1759.33429098","1762.33726096","0","1762.35140896","1767.81342697",""
"sujeto_33dcff34","1","2","17","49","1767.95490408","direct","3","1","3","¿Qué edad tiene Homero Simpson?","36","42","","0","0","1","competitive","right","0.694293022156","1768.64924407","4.30570697784","1773.10695505","3.3135869503","1776.42058015","2.6864130497","1779.14187407","1780.51792407","1780.59327817","1783.59606409","0","1783.61047006","1787.99921203",""
"sujeto_33dcff34","1","2","18","50","1788.14486504","inverse","4","1","2","¿Cuántos países con monarquía 
hay en europa actualmente? ","6","10","","1","1","1","competitive","left","0.713995933533","1788.85890508","4.28600406647","1793.30138898","5.41579508781","1798.71725202","0.584204912186","1799.35319901","1800.79151511","1800.86992598","1803.87291217","1","1803.88747597","1810.04430509",""
"sujeto_33dcff34","1","2","19","51","1810.20716715","direct","2","1","3","¿Cuántos capítulos de
 Friends existen? ","236","228","","1","1","1","competitive","right","0.722311019897","1810.92952299","4.2776889801","1815.36185312","5.14601111412","1820.50792694","0.85398888588","1821.39657497","1822.70213008","1822.78029394","1825.78328395","1","1825.79773116","1828.17334414",""
"sujeto_33dcff34","1","2","20","52","1828.31586409","inverse","1","1","3","¿Cuántas óperas compuso Mozart? ","27","22","","1","1","1","competitive","left","1.87545514107","1830.19139099","3.12454485893","1833.48671007","4.71012783051","1838.1968801","1.28987216949","1839.52182817","1840.81396604","1840.88855004","1843.89151907","1","1843.90556812","1851.21603203",""
"sujeto_33dcff34","1","2","21","53","1851.37337208","direct","4","1","3","¿Cuántos mundiales de fútbol 
femenino ha realizado FIFA? ","9","7","","1","1","1","competitive","right","0.847684860229","1852.22110105","4.15231513977","1856.52811909","5.86138510704","1862.38956714","0.13861489296","1862.56426096","1863.80799317","1863.88103414","1866.8840251","1","1866.89837599","1873.00005198",""
"sujeto_33dcff34","1","2","22","54","1873.13309312","inverse","3","1","2","¿Cuál es la temperatura 
media anual en Montevideo? ","17.5","16.3","","0","0","1","competitive","right","0.63078212738","1873.76396394","4.36921787262","1878.29029417","4.8791270256","1883.16946197","1.1208729744","1884.32526612","1886.26386809","1886.34193707","1889.34405518","0","1889.36033416","1895.92807817",""
"sujeto_33dcff34","1","2","23","55","1896.09814596","direct","2","1","2","¿En qué año se estrenó el
 videojuego The Sims? ","2000","2002","","0","0","0","competitive","right","0.873522043228","1896.97173214","4.12647795677","1901.25113606","5.91306090355","1907.164258","0.0869390964508","1907.28569698","1909.14771199","1909.21632004","1912.21928096","0","1912.23144507","1919.62511015",""
"sujeto_33dcff34","1","2","24","56","1919.76564407","inverse","2","1","1","¿Cuál es la canción con 
mas covers? ","Yesterday","Stand by me","","0","0","0","competitive","left","0.588011980057","1920.35370207","4.41198801994","1924.94573903","4.6163790226","1929.56218696","1.3836209774","1930.99720597","1932.39578509","1932.46479106","1935.46776915","0","1935.4819231","1939.65204906",""
"sujeto_33dcff34","1","2","25","57","1939.78299809","direct","1","1","4","¿Cuánto duró la guerra
 de los 100 años?","116","123","","0","0","0","competitive","left","0.829739093781","1940.61280513","4.17026090622","1944.93640399","4.40685486794","1949.34330201","1.59314513206","1950.98966908","1952.47048616","1952.54067016","1955.54365206","0","1955.55774713","1957.87753296",""
"sujeto_33dcff34","1","2","26","58","1958.00912595","inverse","4","1","4","¿Qué color tiene la  bandera de Brasil?","Amarillo","Naranja","left","0","0","1","competitive","left","0.791799068451","1958.80099416","4.20820093155","1963.17997313","3.86554312706","1967.04555416","2.13445687294","1969.22976112","1970.79627395","1970.88053203","1973.88351798","1","1973.89782405","1976.92806005",""
"sujeto_33dcff34","1","2","27","59","1977.10099101","direct","4","1","3","¿Qué carabela de 
Colon no volvió del viaje?","Santa María","La pinta","","0","0","1","competitive","left","1.06114697456","1978.16218495","3.93885302544","1982.25681901","5.8178730011","1988.07473707","0.182126998901","1988.30847907","1989.79947305","1989.87495995","1992.87795806","0","1992.89224696","1994.99172211",""
"sujeto_33dcff34","1","2","28","60","1995.14336014","inverse","4","1","4","¿Cuántos huesos tiene
 un adulto humano?","217","206","","0","0","1","competitive","right","0.811079025269","1995.95450497","4.18892097473","2000.31039214","3.3907699585","2003.70120215","2.6092300415","2006.36235309","2007.63333797","2007.71439409","2010.71738315","0","2010.73078203","2018.56844997",""
"sujeto_33dcff34","1","2","29","61","2018.70030594","direct","1","1","1","¿Qué país africano fue 
fundado por esclavos?","Liberia","Chad","","0","0","0","competitive","left","1.09721112251","2019.79756498","3.90278887749","2023.85698104","4.57025003433","2028.42729115","1.42974996567","2029.90857506","2031.90022516","2031.97503495","2034.97608113","0","2034.99297404","2042.98007703",""
"sujeto_33dcff34","1","2","30","62","2043.15035295","inverse","4","1","2","¿A cuánto asciende la cima
 del monte Everest?","7.990 mts","8.848 mts","","0","0","1","competitive","left","0.770344018936","2043.92073917","4.22965598106","2048.32096815","5.27641010284","2053.59742403","0.723589897156","2054.35564995","2055.54049802","2055.62319517","2058.62614298","0","2058.64050007","2065.82455015",""
"sujeto_33dcff34","1","2","31","63","2065.97885513","direct","4","1","1","¿Cuál es el país mas chico?","Sealand","Luxemburgo","","1","1","1","competitive","right","0.928149938583","2066.90708113","4.07185006142","2071.1324861","3.59321594238","2074.7257421","2.40678405762","2077.16690707","2079.03041911","2079.11799908","2082.12098908","1","2082.13532901","2085.25760913",""
"sujeto_33dcff34","1","2","32","64","2085.38668299","inverse","2","1","4","¿Cuántas pirámides hay en Egipto?","10000","11000","","1","1","1","competitive","right","0.889736890793","2086.276474","4.11026310921","2090.54194212","4.20217514038","2094.74418402","1.79782485962","2096.59281301","2097.62640595","2097.70994401","2100.71201706","1","2100.72705507","2105.83606696",""
"sujeto_33dcff34","1","3","1","65","2219.08155894","direct","2","1","2","¿Cuál es el quinto país con 
mas extensión?","Canadá","Brasil","","1","1","0","competitive","left","0.841042041779","2219.92270112","4.15895795822","2224.21906495","4.44193005562","2228.66103911","1.55806994438","2230.25514412","2231.58844113","2231.67249608","2234.67545605","1","2234.68977904","2242.41616511","2105.84749103"
"sujeto_33dcff34","1","3","2","66","2242.56151199","inverse","1","1","2","¿Qué rasgo facial no tiene
 la Mona Lisa?","Cejas","Pómulos","","0","0","1","competitive","left","0.707260847092","2243.26884103","4.29273915291","2247.71901202","4.2285349369","2251.94761395","1.7714650631","2253.77033806","2255.5207541","2255.60425711","2258.60723996","0","2258.62154102","2264.89287305",""
"sujeto_33dcff34","1","3","3","67","2265.04138613","direct","4","1","3","¿Cuál es el país con 
mayor población?","Esados Unidos","China","right","0","0","1","competitive","right","0.856039047241","2265.89749312","4.14396095276","2270.23013711","3.5291121006","2273.75929403","2.4708878994","2276.28024602","2277.92625904","2278.01588106","2281.01889706","1","2281.03311396","2284.40043807",""
"sujeto_33dcff34","1","3","4","68","2284.96783304","inverse","1","1","1","La palabra dinosaurio significa","Lagarto Terrible","Lagarto Dragón","","1","1","0","competitive","right","0.773258924484","2285.74116015","4.22674107552","2290.12267494","5.21822595596","2295.34094596","0.781774044037","2296.17462897","2297.34404707","2297.42544794","2300.42843604","1","2300.4425261","2303.30435801",""
"sujeto_33dcff34","1","3","5","69","2303.44353914","direct","2","1","3","¿Qué es el membrillero?","Arbol","Arbusto","","0","0","0","competitive","right","1.0952539444","2304.53885603","3.9047460556","2308.59436417","3.42727398872","2312.02168012","2.57272601128","2314.63052607","2316.58460212","2316.66463995","2319.66758013","0","2319.68186116","2326.14586902",""
"sujeto_33dcff34","1","3","6","70","2326.30055499","inverse","3","1","3","¿Alrededor de qué planeta orbita 
el satélite Europa?","Jupiter","Saturno","","1","1","1","competitive","left","0.649931907654","2326.95055294","4.35006809235","2331.46048498","5.65082001686","2337.11136413","0.349179983139","2337.51251912","2339.05731797","2339.129776","2342.13275814","1","2342.14713717","2344.35231304",""
"sujeto_33dcff34","1","3","7","71","2344.48186803","direct","3","1","1","¿Donde fue el mundial de 
fútbol de 1954?","Suiza","Suecia","","1","1","1","competitive","right","1.01239800453","2345.49431205","3.98760199547","2349.63592196","4.42413806915","2354.06009412","1.57586193085","2355.66960096","2356.92217708","2357.00441694","2360.00735903","1","2360.02139711","2363.93312716",""
"sujeto_33dcff34","1","3","8","72","2364.10876703","inverse","1","1","4","¿Cuál de los 7 enanitos
no tenía barba?","Bashful","Mudito","","1","1","0","competitive","right","1.00334095955","2365.11217499","3.99665904045","2369.26164699","4.62639188766","2373.88810396","1.37360811234","2375.29721808","2376.87607408","2376.94796014","2379.95090508","1","2379.96604395","2384.89513707",""
"sujeto_33dcff34","1","3","9","73","2385.03431797","direct","3","1","2","¿Cual red social es
mas utilizada mundialmente?","Instagram","Facebook","","1","1","0","competitive","left","0.96861410141","2386.00305796","4.03138589859","2390.18883705","4.14286780357","2394.33177114","1.85713219643","2396.22352099","2398.14007211","2398.22383714","2401.22404194","1","2401.24134398","2404.17583704",""
"sujeto_33dcff34","1","3","10","74","2404.31059504","inverse","4","1","1","¿Cuándo se inició la copa
 América de fútbol?","1916","1923","","1","1","1","competitive","left","0.921106815338","2405.23175406","4.07889318466","2409.48365617","4.04294991493","2413.52664995","1.95705008507","2415.51725316","2417.41468215","2417.48556209","2420.48855615","1","2420.50285411","2423.15897512",""
"sujeto_33dcff34","1","3","11","75","2423.30477095","direct","3","1","4","¿Cuántos presidentes de EEUU
han muerto asesinados?","3","4","","0","0","1","competitive","left","0.803531885147","2424.10836816","4.19646811485","2428.45936298","4.22603487968","2432.68543911","1.77396512032","2434.49469399","2435.97860312","2436.06218815","2439.06519198","0","2439.07928395","2442.72006702",""
"sujeto_33dcff34","1","3","12","76","2442.84804416","inverse","2","1","4","¿Cuántas veces participó EEUU
 en la copa América?","4","5","","0","0","1","competitive","left","0.750353097916","2443.59844112","4.24964690208","2448.01781511","3.71740102768","2451.73526001","2.28259897232","2454.06604004","2455.51012707","2455.58446097","2458.58739901","0","2458.60272503","2464.71604896",""
"sujeto_33dcff34","1","3","13","77","2464.85728097","direct","4","1","1","¿Cuál de estos países 
no formaba la URSS?","Azeribayán","Afganistán","","0","0","1","competitive","right","0.650940895081","2465.50826716","4.34905910492","2470.03089094","4.61118793488","2474.64213514","1.38881206512","2476.08243704","2477.39550805","2477.46617603","2480.46915007","0","2480.48341298","2488.46553111",""
"sujeto_33dcff34","1","3","14","78","2488.63878107","inverse","1","1","1","¿En qué año se inauguró
 el teatro Solís?","1867","1856","","0","0","0","competitive","left","1.04129886627","2489.68014407","3.95870113373","2493.79233599","4.40267205238","2498.19507098","1.59732794762","2499.84444404","2500.90077305","2500.97789907","2503.98085904","0","2503.99514914","2510.64296103",""
"sujeto_33dcff34","1","3","15","79","2510.78494906","direct","1","1","4","¿A qué velocidad vuela 
el avión más rápido?","3529","3874","","0","0","0","competitive","left","0.580017089844","2511.36504412","4.41998291016","2515.9370141","5.95682406425","2521.89389706","0.0431759357452","2521.97327113","2523.72801805","2523.80644917","2526.80944514","0","2526.82357216","2528.93378997",""
"sujeto_33dcff34","1","3","16","80","2529.07562113","inverse","3","1","4","¿De qué año es la primer 
película cinematográfica?","1897","1888","","0","0","0","competitive","right","0.836794137955","2529.91246009","4.16320586205","2534.24596","4.29386091232","2538.53986096","1.70613908768","2540.27980494","2541.41280317","2541.4976871","2544.50065517","0","2544.51501799","2549.920573",""
"sujeto_33dcff34","1","3","17","81","2550.04938412","direct","2","1","3","¿Cuántos países 
tiene nuestro planeta?","191","194","","1","1","1","competitive","right","2.80343103409","2552.85287905","2.19656896591","2555.22084498","4.38186097145","2559.60276508","1.61813902855","2561.25909114","2562.61628103","2562.69372416","2565.69669008","1","2565.70994902","2568.9480691",""
"sujeto_33dcff34","1","3","18","82","2569.07985497","inverse","2","1","2","¿Cuántos habitantes
 tiene Buenos Aires?","2.9000.000","3650000","","0","0","0","competitive","left","0.834991931915","2569.91495514","4.16500806808","2574.25028396","4.4634039402","2578.71374798","1.5365960598","2580.30211616","2581.69937706","2581.76896095","2584.77186298","0","2584.78700614","2590.61605597",""
"sujeto_33dcff34","1","3","19","83","2590.75448513","direct","2","1","1","¿Cuántos kilos forman una tonelada?","1000","1500","left","1","1","1","competitive","left","1.04321694374","2591.79776216","3.95678305626","2595.91121697","3.71444106102","2599.62571502","2.28555893898","2601.96264005","2603.84998798","2603.930825","2606.93380594","1","2606.94783807","2612.90407515",""
"sujeto_33dcff34","1","3","20","84","2613.08320713","inverse","4","1","4","¿Cuántos estados tiene la 
República del Perú? ","24","23","","0","0","1","competitive","left","0.749481916428","2613.83273602","4.25051808357","2618.25518703","4.48446893692","2622.73971605","1.51553106308","2624.30706716","2625.32922602","2625.40759015","2628.41055298","0","2628.42384696","2633.36915898",""
"sujeto_33dcff34","1","3","21","85","2633.50901699","direct","3","1","3","¿En qué año nació Cristóbal Colón? ","1451","1447","","0","0","1","competitive","right","0.944660902023","2634.45372105","4.05533909798","2638.68362808","4.78604578972","2643.46971607","1.21395421028","2644.7352941","2646.58122206","2646.65250397","2649.65547514","0","2649.6697371","2653.89773011",""
"sujeto_33dcff34","1","3","22","86","2654.03839612","inverse","4","1","4","¿Cuánto mide la 
Montaña Aconcagua? ","6234","6962","","0","0","1","competitive","left","0.814275026321","2654.852736","4.18572497368","2659.19446611","5.25517201424","2664.44967604","0.744827985764","2665.24655008","2666.53591013","2666.61346698","2669.61644816","0","2669.63038707","2676.81400204",""
"sujeto_33dcff34","1","3","23","87","2676.94814897","direct","2","1","4","¿Cuánto mide el punto
 más profundo del océano? ","12508","11003","","0","0","1","competitive","left","0.897550106049","2677.84574699","4.10244989395","2682.10424304","4.09844088554","2686.20274997","1.90155911446","2688.15734315","2689.4088521","2689.49144602","2692.49443913","0","2692.5086","2696.71486497",""
"sujeto_33dcff34","1","3","24","88","2696.86185408","inverse","1","1","3","¿Cuántos álbumes ha publicado 
el cantante Jaime Roos? ","41","34","","0","0","1","competitive","right","0.825906991959","2697.68781304","4.17409300804","2702.01563501","4.6800339222","2706.69571209","1.3199660778","2708.05157208","2709.54143596","2709.61848807","2712.62147403","0","2712.63576508","2718.83193207",""
"sujeto_33dcff34","1","3","25","89","2718.97098017","direct","4","1","3","¿En qué año nació el 
ex-presidente Jorge Battle? ","1921","1927","","1","1","1","competitive","right","0.627784013748","2719.59883213","4.37221598625","2724.12694311","4.85476708412","2728.98174715","1.14523291588","2730.17966008","2731.91035509","2731.99658608","2734.99954605","1","2735.01376104","2738.49978495",""
"sujeto_33dcff34","1","3","26","90","2738.63225102","inverse","1","1","3","¿Cuántas presidencias 
constitucionales  hubo en Uruguay? ","41","42","","0","0","1","competitive","left","0.602532863617","2739.23483515","4.39746713638","2743.78799796","4.26479291916","2748.05283594","1.73520708084","2749.83918309","2751.04295301","2751.12367201","2754.124053","0","2754.13966513","2759.92005396",""
"sujeto_33dcff34","1","3","27","91","2760.0589571","direct","1","1","2","¿Quién escribió mas sinfonías?","Mozart","Haydn","","1","1","0","competitive","left","1.00295591354","2761.06197906","3.99704408646","2765.21402597","5.24080300331","2770.45488906","0.759196996689","2771.25072908","2772.46821308","2772.55099916","2775.55398011","1","2775.56814909","2779.31956005",""
"sujeto_33dcff34","1","3","28","92","2779.45338011","inverse","4","1","2","¿En qué año nació Michael Jackson?","1958","1953","","1","1","1","competitive","right","1.26954913139","2780.7229991","3.73045086861","2784.60887313","4.14505505562","2788.75397301","1.85494494438","2790.64410996","2792.62235308","2792.69446015","2795.69607496","1","2795.71150398","2801.573807",""
"sujeto_33dcff34","1","3","29","93","2801.73001599","direct","3","1","2","¿En qué año entró en vigencia 
la ley antitabaco en Uruguay?","2005","2006","","1","1","1","competitive","right","0.81902885437","2802.54911208","4.18097114563","2806.90362906","5.47235703468","2812.37602997","0.527642965317","2812.95571113","2814.55046511","2814.62208509","2817.62504816","1","2817.64050508","2822.974509",""
"sujeto_33dcff34","1","3","30","94","2823.12582517","inverse","3","1","1","¿Cuándo se subió el 
primer video a youtube?","2004","2005","","0","0","1","competitive","left","0.951260089874","2824.07713294","4.04873991013","2828.28172016","4.94839692116","2833.23017597","1.05160307884","2834.333184","2835.63889003","2835.71682906","2838.71984315","0","2838.73390317","2846.48803401",""
"sujeto_33dcff34","1","3","31","95","2846.63526011","direct","2","1","1","¿Cuántos habitantes tiene India?","1200 millones","1300 millones","","0","0","0","competitive","right","0.90397810936","2847.53928304","4.09602189064","2851.79196906","4.43623399734","2856.22826195","1.56376600266","2857.84511995","2859.81472397","2859.89603806","2862.89905596","0","2862.91301799","2868.96008706",""
"sujeto_33dcff34","1","3","32","96","2869.10124397","inverse","4","1","2","¿A qué edad murió Bob Marley?","36","37","","0","0","1","competitive","right","0.989115953445","2870.09043908","4.01088404655","2874.23704505","4.65031695366","2878.88740396","1.34968304634","2880.28910708","2882.18696713","2882.27256894","2885.27556014","0","2885.28988099","2888.3923161",""
"sujeto_33dcff34","1","4","1","97","3021.31128907","direct","2","1","1","¿Cuantos años dirigió la selección 
uruguaya Tabarez?","15 años","13 años","","0","0","0","competitive","left","0.988991975784","3022.30033016","4.01100802422","3026.46836209","4.47798895836","3030.94639397","1.52201104164","3032.51934195","3033.71050215","3033.78624606","3036.78922105","0","3036.80425906","3043.87606812","2888.40384412"
"sujeto_33dcff34","1","4","2","98","3044.00503397","inverse","4","1","1","¿Cuantas teclas tiene un teclado 
de computadora generalmente? ","Entre 99 y 108","Entre 109 y 113","","1","1","1","competitive","right","0.741544008255","3044.74666309","4.25845599174","3049.16070008","5.68780183792","3054.84854698","0.312198162079","3055.214077","3056.21603203","3056.29685402","3059.29978895","1","3059.31478095","3061.68622613",""
"sujeto_33dcff34","1","4","3","99","3061.86816096","direct","1","1","1","¿Cuál Departamento tiene
 mayor superficie?","Río Negro","Soriano","","0","0","0","competitive","left","1.19150209427","3063.05973196","3.80849790573","3067.02262497","3.69707083702","3070.71975708","2.30292916298","3073.07349014","3074.78692698","3074.85802817","3077.86002302","0","3077.87523913","3082.20133805",""
"sujeto_33dcff34","1","4","4","100","3082.32733297","inverse","3","1","2","¿Cuál es el apellido de las 
hermanastras  de  cenicienta?","Tremaine","Truman","","0","0","1","competitive","left","0.906489849091","3083.23389411","4.09351015091","3087.483531","4.76034092903","3092.24392009","1.23965907097","3093.534518","3095.40406704","3095.4856801","3098.4880631","0","3098.50350499","3101.19945812",""
"sujeto_33dcff34","1","4","5","101","3101.33831501","direct","4","1","4","¿Cuál película ganó un
 Oscar a mejor película?","Alto Impacto","Cache","","0","0","1","competitive","right","0.779695034027","3102.11805511","4.22030496597","3106.50788498","5.6461520195","3112.15409613","0.353847980499","3112.54485512","3113.66425896","3113.74484706","3116.74783111","0","3116.76180196","3119.02643609",""
"sujeto_33dcff34","1","4","6","102","3119.16405797","inverse","1","1","3","¿A cuántos centímetros
equivale la medida pié?","25","30","","0","0","1","competitive","left","0.922110080719","3120.08625817","4.07788991928","3124.33574295","4.25148200989","3128.58728504","1.74851799011","3130.38736296","3131.42736316","3131.50474811","3134.50773597","0","3134.52194214","3139.91980195",""
"sujeto_33dcff34","1","4","7","103","3140.09028697","direct","2","1","2","¿Qué departamento es mas grande?","Cerro Largo","Paysandú","","0","0","0","competitive","left","0.663024902344","3140.75335717","4.33697509766","3145.24658513","4.73678708076","3149.98341298","1.26321291924","3151.29805112","3152.89782","3152.98249316","3155.98547697","0","3155.99986696","3160.10984206",""
"sujeto_33dcff34","1","4","8","104","3160.25169301","inverse","2","1","3","¿Quién pintó la Mona Lisa?","Picasso","Da Vinci","right","0","0","1","competitive","right","1.01478695869","3161.26654506","3.98521304131","3165.40819597","2.80835485458","3168.21659017","3.19164514542","3171.45861816","3173.06446815","3173.14328003","3176.14626312","1","3176.16037416","3178.32271409",""
"sujeto_33dcff34","1","4","9","105","3178.4617331","direct","4","1","3","¿Cuántos litros hay en un galon?","3.54","3.78","","1","1","1","competitive","left","0.740951061249","3179.20279408","4.25904893875","3183.63349795","3.60922908783","3187.24278712","2.39077091217","3189.66778016","3191.18565297","3191.26891804","3194.27190113","1","3194.28607011","3200.07842112",""
"sujeto_33dcff34","1","4","10","106","3200.23842311","inverse","4","1","1","¿Cuántas teclas tiene
 un piano moderno?","80","88","","0","0","1","competitive","right","1.38743209839","3201.62592506","3.61256790161","3205.39498806","4.38592982292","3209.78098512","1.61407017708","3211.44696617","3212.4554131","3212.52999997","3215.53302312","0","3215.54744601","3222.34520507",""
"sujeto_33dcff34","1","4","11","107","3222.48262715","direct","4","1","3","¿Cuántos países hay en África?","54","62","","0","0","1","competitive","right","1.14452910423","3223.62720203","3.85547089577","3227.63943315","4.49771904945","3232.13721204","1.50228095055","3233.69127917","3235.38183618","3235.45855999","3238.461555","0","3238.47565913","3246.28043413",""
"sujeto_33dcff34","1","4","12","108","3246.41055894","inverse","1","1","3","¿En qué siglo se crearon
 las primeras pistolas?","XV","XIII","","1","1","1","individual","right","1.40888595581","3247.81951594","3.59111404419","3251.55305505","4.88934612274","3256.44244194","1.11065387726","3257.60472417","3259.5526371","3259.60482717","3262.60778999","1","3262.62240195","3265.855474",""
"sujeto_33dcff34","1","4","13","109","3266.00781798","direct","3","1","4","¿En qué año se estrenó 
la serie friends?","1994","1995","","0","0","1","competitive","left","1.26373791695","3267.27162504","3.73626208305","3271.16205001","4.98861289024","3276.15072417","1.01138710976","3277.21284914","3279.08807611","3279.16299415","3282.16597199","0","3282.1810441","3287.18701601",""
"sujeto_33dcff34","1","4","14","110","3287.31588101","inverse","3","1","4","¿En qué año nació Hitler?","1889","1887","","0","0","1","competitive","right","1.25290203094","3288.56882715","3.74709796906","3292.47395205","4.21585321426","3296.68987012","1.78414678574","3298.52488899","3299.63927197","3299.70905209","3302.71203399","0","3302.726331","3307.75332403",""
"sujeto_33dcff34","1","4","15","111","3307.89502215","direct","1","1","4","¿Cuánto pesa un elefante Africano?","6000 kilos","5400 kilos","","0","0","0","individual","right","1.39598608017","3309.29104996","3.60401391983","3313.05221009","4.34482717514","3317.39707708","1.65517282486","3319.10286713","3320.45875502","3320.50391006","3323.50690913","0","3323.52144003","3330.22806811",""
"sujeto_33dcff34","1","4","16","112","3330.37281013","inverse","1","1","2","¿Qué porcentaje de 
la población es zurda?","10%","7%","","1","1","0","competitive","right","0.677483081818","3331.05033898","4.32251691818","3335.5291791","5.18514609337","3340.71438503","0.814853906631","3341.58137107","3342.82448101","3342.89895415","3345.90008116","1","3345.91623306","3351.89597106",""
"sujeto_33dcff34","1","4","17","113","3352.05247116","direct","1","1","2","¿En qué año se estrenó
Volver al futuro?","1984","1985","","0","0","1","competitive","right","0.708121061325","3352.76070404","4.29187893867","3357.22372603","3.8198428154","3361.04361415","2.1801571846","3363.27391601","3364.83574796","3364.90916109","3367.91209197","0","3367.92649007","3375.01795101",""
"sujeto_33dcff34","1","4","18","114","3375.16117215","inverse","3","1","2","¿Cuántos jugadores hay en un 
equipo de baseball?","9","8","","1","1","0","competitive","right","0.919637918472","3376.08087707","4.08036208153","3380.31984615","3.93691515923","3384.25682116","2.06308484077","3386.37158513","3387.98584509","3388.056288","3391.05925298","1","3391.07359004","3396.05079699",""
"sujeto_33dcff34","1","4","19","115","3396.19157195","direct","2","1","1","¿Cuántos Oscar ganó
 la película titanic?","13","11","","1","1","1","competitive","left","1.24741697311","3397.43905306","3.75258302689","3401.34800196","3.96104001999","3405.30910206","2.03895998001","3407.38201714","3408.68406701","3408.76792717","3411.77096009","1","3411.78421402","3416.38401794",""
"sujeto_33dcff34","1","4","20","116","3416.53552103","inverse","4","1","4","¿En qué año comenzó
la segunda guerra mundial?","1939","1976","left","0","0","1","competitive","left","0.802775859833","3417.33840609","4.19722414017","3421.72482896","4.86342597008","3426.5883131","1.13657402992","3427.77744198","3429.57729316","3429.6609931","3432.66397095","1","3432.67811704","3436.66524911",""
"sujeto_33dcff34","1","4","21","117","3436.79741716","direct","2","1","4","¿Cuántos biomas hay en Uruguay?","5","4","","0","0","1","competitive","right","1.06310510635","3437.86059117","3.93689489365","3441.9648571","2.602684021","3444.56760812","3.397315979","3448.01600909","3449.81335211","3449.88429594","3452.88728309","0","3452.90180302","3459.14868402",""
"sujeto_33dcff34","1","4","22","118","3459.32392716","inverse","2","1","3","¿Cuándo murió Pablo Escobar?","1993","1997","","1","1","1","competitive","left","0.960819005966","3460.28482413","4.03918099403","3464.48080707","3.94106197357","3468.42192912","2.05893802643","3470.53042102","3472.31324005","3472.39843798","3475.40007305","1","3475.41539717","3481.11907101",""
"sujeto_33dcff34","1","4","23","119","3481.30040503","direct","1","1","4","¿Qué serie ha ganado mas premios?","Friends","Murphy Brown","","1","1","0","competitive","left","1.14553880692","3482.44598913","3.85446119308","3486.44259906","4.36145687103","3490.80411601","1.63854312897","3492.47794509","3493.83036709","3493.91111517","3496.91405797","1","3496.92837596","3502.49000812",""
"sujeto_33dcff34","1","4","24","120","3502.63026595","inverse","4","1","2","¿Cuántas fichas tiene el dominó?","26","28","","1","1","1","competitive","right","1.26492905617","3503.895257","3.73507094383","3507.78706408","3.89719986916","3511.68430901","2.10280013084","3513.83773112","3514.89305615","3514.97313809","3517.97602105","1","3517.99004316","3523.23317099",""
"sujeto_33dcff34","1","4","25","121","3523.35815597","direct","2","1","4","¿Cuántos son los dientes de leche?","20","25","","0","0","1","competitive","right","0.883320093155","3524.24153996","4.11667990685","3528.51005316","3.60547113419","3532.11557007","2.39452886581","3534.56100798","3536.2713201","3536.34577799","3539.34875798","0","3539.36321211","3541.50891995",""
"sujeto_33dcff34","1","4","26","122","3541.69903016","inverse","3","1","3","¿Cuántos gramos son una onza?","22","28","","0","0","1","competitive","left","0.944708108902","3542.64378309","4.0552918911","3546.85836005","3.72642683983","3550.58484817","2.27357316017","3552.89261198","3554.88746715","3554.95966005","3557.96265817","0","3557.97794294","3564.26802611",""
"sujeto_33dcff34","1","4","27","123","3564.41244197","direct","3","1","1","¿Cuándo salió el primer album
 de los Beatles?","1963","1962","","1","1","1","competitive","right","0.696574926376","3565.10906196","4.30342507362","3569.56995797","4.63706588745","3574.20708299","1.36293411255","3575.62135506","3576.78495407","3576.85504603","3579.85798407","1","3579.87216306","3583.64402008",""
"sujeto_33dcff34","1","4","28","124","3583.77465415","inverse","3","1","3","¿Quién fundó la empresa apple?","Carlos Slim","Steve Jobs","","1","1","1","competitive","right","1.00298905373","3584.77775311","3.99701094627","3588.94726205","4.04804086685","3592.99534416","1.95195913315","3594.99747205","3596.11212111","3596.18247509","3599.18541813","1","3599.19970107","3605.49605417",""
"sujeto_33dcff34","1","4","29","125","3605.65068507","direct","4","1","2","¿Cuántos municipios hay
 en Montevideo?","8","7","","1","1","1","competitive","right","0.813780784607","3606.46451211","4.18621921539","3610.80730796","4.7312810421","3615.53863096","1.2687189579","3616.85865402","3618.77344608","3618.85869002","3621.86010504","1","3621.87643099","3623.95753503",""
"sujeto_33dcff34","1","4","30","126","3624.09467697","inverse","1","1","1","¿Cuántos kilómetros hay
 de Montevideo a Artigas?","632","599","","0","0","0","competitive","left","0.642122983932","3624.73686695","4.35787701607","3629.25114107","5.10662317276","3634.35782909","0.89337682724","3635.2859571","3636.76805115","3636.83700514","3639.83998704","0","3639.85389304","3645.90599203",""
"sujeto_33dcff34","1","4","31","127","3646.03914404","direct","2","1","2","¿En qué año nació 
Leonardo Da Vinci?","1452","1511","","1","1","0","competitive","right","0.563874959946","3646.60306311","4.43612504005","3651.19643617","4.10868501663","3655.30518007","1.89131498337","3657.23109198","3659.08471704","3659.16540217","3662.16838408","1","3662.18224001","3665.32865",""
"sujeto_33dcff34","1","4","32","128","3665.46722317","inverse","3","1","1","¿A qué continente
 pertenece el país Gabón?","Africa","Oceanía","","0","0","1","competitive","right","0.947051048279","3666.41431808","4.05294895172","3670.63539696","4.74393892288","3675.37938213","1.25606107712","3676.671628","3678.48326898","3678.55542612","3681.55837703","0","3681.57265115","3686.81055617",""
