"code","nro_aplicante","nro_bloque","nro_trial_bloque","nro_trial_global","show_game_type","choice_order","rival","pay_individual","pay_competitive","question","answer_left_text","answer_right_text","correct_answer","outcome_individual","outcome_competitive","outcome_rival","game_type","answer","social_time","rt_game_type","feedback_delay","show_question","answer_time","rt_answer_global","feedback_delay_2","show_jitter","jitter_time","show_outcome","outcome_time","outcome_participant_real","show_final_jitter","second_jitter_time","inicio_descanso"
"sujeto_2158631b","1","1","1","1","15.1662538052","direct","3","1","4","¿Cuántos centímetros corresponden
al talle 36 del calzado?","23","24","","0","0","1","competitive","right","1.01224088669","16.1785957813","3.98775911331","20.3531899452","1.71536207199","22.0686278343","4.28463792801","26.3860368729","27.4143359661","27.4886848927","30.4916608334","0","30.5060918331","32.6672577858",""
"sujeto_2158631b","1","1","2","2","32.7917029858","inverse","3","1","2","¿Cuántas metros mide la Intendencia
Municipal de Montevideo? ","84","78","","0","0","1","competitive","right","1.72997999191","34.5217499733","3.27002000809","37.9503698349","3.87224292755","41.8226728439","2.12775707245","44.0020689964","45.8801109791","45.9527568817","48.9557359219","0","48.9697709084","51.0624969006",""
"sujeto_2158631b","1","1","3","3","51.2050759792","direct","1","1","3","¿Cuántas La Pasiva
 hay en uruguay?","15","11","","1","1","1","competitive","right","2.33161616325","53.5367388725","2.66838383675","56.3578248024","3.67380809784","60.0316867828","2.32619190216","62.4107139111","64.0223917961","64.0957789421","67.0987379551","1","67.1127789021","71.3911178112",""
"sujeto_2158631b","1","1","4","4","71.530974865","inverse","3","1","3","¿De que color es la camiseta de uruguay?","blanca","celeste","right","1","1","1","competitive","right","2.23483991623","73.7658598423","2.76516008377","76.6863069534","3.38548803329","80.0718348026","2.61451196671","82.7378368378","83.9426047802","84.0226547718","87.0256359577","1","87.0398259163","90.4937229156",""
"sujeto_2158631b","1","1","5","5","90.6244528294","direct","2","1","1","¿Cuánto metros mide
la torre Eiffel?","333","324","","1","1","1","competitive","right","2.29745793343","92.9219539165","2.70254206657","95.7797608376","2.82322883606","98.6030459404","3.17677116394","101.83008194","103.351471901","103.430447817","106.433423996","1","106.447538853","113.484236002",""
"sujeto_2158631b","1","1","6","6","113.615900993","inverse","3","1","4","¿Cuantas ciudades existen
 en todo el uruguay?","63","72","","0","0","1","competitive","left","1.30220293999","114.918152809","3.69779706001","118.774834871","4.1842019558","122.959078789","1.8157980442","124.826756001","125.881547928","125.961662769","128.96464777","0","128.977943897","136.604524851",""
"sujeto_2158631b","1","1","7","7","136.746204853","direct","1","1","1","¿Cuantos estados tiene África?","52","54","","1","1","0","competitive","right","2.78406405449","139.530341864","2.21593594551","141.920338869","3.88690590858","145.807303905","2.11309409142","147.972395897","149.835449934","149.907154799","152.907494783","1","152.924643993","158.683494806",""
"sujeto_2158631b","1","1","8","8","158.842697859","inverse","4","1","4","¿En qué año nació
 Stephen Hawking?","1952","1942","","0","0","1","competitive","left","1.78560590744","160.628345966","3.21439409256","164.031198978","3.64509606361","167.676356792","2.35490393639","170.066216946","171.510526896","171.584887981","174.587864876","0","174.602256775","180.701620817",""
"sujeto_2158631b","1","1","9","9","180.836939812","direct","2","1","3","¿Cuánto años tenía Artigas
 cuando se fue a Paraguay?","56","57","","1","1","1","competitive","right","2.4935760498","183.330560923","2.5064239502","185.994297981","4.39114999771","190.385504961","1.60885000229","192.045545816","193.595057964","193.678942919","196.679469824","1","196.696630955","202.743944883",""
"sujeto_2158631b","1","1","10","10","202.881289959","inverse","1","1","2","¿Cuantos milímetros 
mide una hoja A2?","420x592","420x594","","0","0","1","competitive","right","1.94941306114","204.830775976","3.05058693886","208.054583788","4.46597003937","212.520608902","1.53402996063","214.107447863","215.675833941","215.757875919","218.76082778","0","218.775108814","225.847476959",""
"sujeto_2158631b","1","1","11","11","225.97754097","direct","3","1","3","¿Cuál es la menor temperatura 
registrada en Uruguay?","-5.4","-7.4","","0","0","1","competitive","right","1.62916612625","227.6067698","3.37083387375","231.133789778","4.31494903564","235.448796988","1.68505096436","237.185287952","238.867302895","238.935920954","241.938901901","0","241.953125","245.683490992",""
"sujeto_2158631b","1","1","12","12","245.821144819","inverse","2","1","2","¿Cuantos años hace que 
se fundó facebook?","18","17","","0","0","0","competitive","right","2.22874093056","248.049928904","2.77125906944","250.978052855","4.86687994003","255.844991922","1.13312005997","257.029844999","258.402558804","258.479747772","261.482744932","0","261.497034788","264.271703959",""
"sujeto_2158631b","1","1","13","13","264.415603876","direct","1","1","4","¿Cuál animal es más
 pesado en promedio?","Rinoceronte","Hipopotamo","","0","0","0","competitive","left","1.94847917557","266.364187002","3.05152082443","269.571761847","5.34427499771","274.916097879","0.655725002289","275.656497955","276.735492945","276.806792974","279.807470798","0","279.823641777","283.66465497",""
"sujeto_2158631b","1","1","14","14","283.791081905","inverse","1","1","2","¿Qué personaje de dragon ball 
murió más veces?","Chaoz","Krillin","","1","1","0","competitive","right","2.14806389809","285.939190865","2.85193610191","288.964692831","4.52644991875","293.491186857","1.47355008125","294.998857975","296.456657887","296.533820868","299.536793947","1","299.551047802","307.323487997",""
"sujeto_2158631b","1","1","15","15","307.485610962","direct","3","1","2","La universidad de oxford. 
existe desde:","1096","1249","","1","1","0","competitive","right","1.64667606354","309.132352829","3.35332393646","312.659998894","4.15832805634","316.818369865","1.84167194366","318.693321943","319.74214077","319.810636997","322.811452866","1","322.828723907","329.519534826",""
"sujeto_2158631b","1","1","16","16","329.69687295","inverse","3","1","1","¿Qué escritor latino ganó antes
 el premio nobel?"," García Marquez","Neruda","","0","0","1","competitive","left","3.02259802818","332.71953392","1.97740197182","334.852352858","4.81121301651","339.663606882","1.18878698349","340.889792919","342.629802942","342.707545996","345.710496902","0","345.724434853","349.184956789",""
"sujeto_2158631b","1","1","17","17","349.326614857","direct","4","1","3","¿Cuántos dientes tiene un
 tiburón blanco?","6000","3000","","0","0","1","competitive","right","1.64200687408","350.968697786","3.35799312592","354.481622934","4.01300621033","358.494690895","1.98699378967","360.516614914","361.555600882","361.634424925","364.637423992","0","364.651673794","369.461350918",""
"sujeto_2158631b","1","1","18","18","369.586239815","inverse","4","1","1","¿Cuánto mide el paralelo Ecuador?","40.000km","70.000km","","0","0","1","competitive","left","3.19849586487","372.784837961","1.80150413513","374.775836945","4.09089207649","378.866767883","1.90910792351","380.827403784","382.783557892","382.861871004","385.864804983","0","385.879022837","389.481616974",""
"sujeto_2158631b","1","1","19","19","389.630818844","direct","4","1","2","¿Cuál fue el primer libro 
de Stephen King?","Carrie","The Stand","","1","1","1","competitive","right","2.42809200287","392.058975935","2.57190799713","394.786532879","4.45935201645","399.245923996","1.54064798355","400.820970774","402.563498974","402.637956858","405.640919924","1","405.656064987","410.130511999",""
"sujeto_2158631b","1","1","20","20","410.27382493","inverse","2","1","3","¿Qué civilización practicaba
 la momificación?","Grecia","Egipto","right","0","0","1","competitive","right","1.64127707481","411.915191889","3.35872292519","415.463718891","3.47735095024","418.941110849","2.52264904976","421.497371912","423.436648846","423.515794992","426.518768787","1","426.532987833","430.761778831",""
"sujeto_2158631b","1","1","21","21","430.902054787","direct","4","1","4","¿Cuántos millones de visitas
 recibe google por minuto?","3.0","4.5","","0","0","1","competitive","right","1.73507404327","432.637174845","3.26492595673","436.073099852","4.81207704544","440.885234833","1.18792295456","442.109538794","443.623480797","443.710586786","446.713577986","0","446.727874994","453.847434998",""
"sujeto_2158631b","1","1","22","22","453.979404926","inverse","1","1","3","La máquina de fax. se inventó en:","1843","1960","","0","0","1","competitive","left","1.4599070549","455.439413786","3.5400929451","459.136059999","4.62130999565","463.757429838","1.37869000435","465.187174797","466.429261923","466.504776001","469.507756948","0","469.522078991","472.75836277",""
"sujeto_2158631b","1","1","23","23","472.890579939","direct","2","1","4","En la verdadera historia de los
 300 espartanos. habían:","300 soldados","4300 soldados","","1","1","1","competitive","right","1.32893013954","474.219554901","3.67106986046","478.046639919","5.77488207817","483.82156682","0.225117921829","484.081662893","485.342884779","485.414984941","488.417974949","1","488.431973934","492.233733892",""
"sujeto_2158631b","1","1","24","24","492.383284807","inverse","1","1","4","¿Cuántos milímetros crece
 el pelo por día?","0.4","0.04","","0","0","0","competitive","right","1.20032501221","493.583652973","3.79967498779","497.554738998","3.76989006996","501.324667931","2.23010993004","503.606376886","505.367100954","505.440568924","508.443528891","0","508.457753897","515.191525936",""
"sujeto_2158631b","1","1","25","25","515.326709986","direct","4","1","1","¿Cuánto mide la baldosa gris 
clásica de Montevideo?","22x22 cm.","20x20 cm.","","1","1","1","competitive","left","3.15107703209","518.477851868","1.84892296791","520.483812809","4.98495388031","525.46880579","1.01504611969","526.536799908","528.532059908","528.604046822","531.607018948","1","531.621352911","537.164159775",""
"sujeto_2158631b","1","1","26","26","537.306373835","inverse","2","1","2","¿Cuántas películas de rápidos
 y furiosos hay?","10","11","","1","1","0","competitive","right","1.35455703735","538.661002874","3.64544296265","542.463086843","2.48288702965","544.946015835","3.51711297035","548.513265848","549.871260881","549.94844389","552.951450825","1","552.965584993","555.000271797",""
"sujeto_2158631b","1","1","27","27","555.133418798","direct","3","1","1","¿Cuántos masters 1000
 ganó Del Potro?","1","2","","1","1","1","competitive","left","1.70865893364","556.84212184","3.29134106636","560.289929867","4.60519218445","564.895187855","1.39480781555","566.340368986","568.094997883","568.17454195","571.175484896","1","571.192643881","578.589014769",""
"sujeto_2158631b","1","1","28","28","578.726866961","inverse","2","1","4","¿Cuántos meses dura el 
embarazo de una leona?","3 meses","4 meses","","0","0","1","competitive","right","2.55736517906","581.28427577","2.44263482094","583.878721952","4.17958116531","588.058362961","1.82041883469","589.917249918","591.028264999","591.101862907","594.104863882","0","594.118242979","600.839449883",""
"sujeto_2158631b","1","1","29","29","600.969501972","direct","1","1","1","¿En qué año fue creado
 el sandwich?","1762","1653","","1","1","0","competitive","left","1.54789304733","602.517466784","3.45210695267","606.129371881","4.61909484863","610.748524904","1.38090515137","612.180586815","613.77914381","613.848106861","616.851109982","1","616.865413904","620.336057901",""
"sujeto_2158631b","1","1","30","30","620.484747887","inverse","4","1","2","El nombre de la moneda de Vietnam es:","Dinar","Dong","","0","0","1","competitive","right","1.29885387421","621.783675909","3.70114612579","625.65713191","4.34734988213","630.00453496","1.65265011787","631.707941771","633.139910936","633.225841999","636.228782892","0","636.242718935","642.411151886",""
"sujeto_2158631b","1","1","31","31","642.54061985","direct","2","1","1","¿cuantos aleteos puede dar 
un colibrí por segundo?","120","50","","0","0","0","competitive","left","1.57663702965","644.117321968","3.42336297035","647.718106985","3.89967393875","651.617819786","2.10032606125","653.768357992","655.500689983","655.569660902","658.571494818","0","658.587567806","662.799498796",""
"sujeto_2158631b","1","1","32","32","662.939789772","inverse","4","1","3","¿Qué altura promedio tienen
 los hombres uruguayos?","1.73 m","1.72 m","","1","1","1","competitive","right","2.28908610344","665.228937864","2.71091389656","668.110605001","2.96934294701","671.079986811","3.03065705299","674.162386894","675.424749851","675.497444868","678.500423908","1","678.514636993","682.987495899",""
"sujeto_2158631b","1","2","1","33","821.874205828","direct","1","1","1","¿En qué año nació 
el actor Bradd Pitt?","1967","1963","","1","1","1","competitive","right","1.44391798973","823.318185806","3.55608201027","827.028568983","4.39957404137","831.428199768","1.60042595863","833.079958916","834.17582798","834.247108936","837.250051975","1","837.264272928","843.191450834","682.999724865"
"sujeto_2158631b","1","2","2","34","843.315805912","inverse","2","1","1","¿Cual es el segundo 
monte más alto?","Kanchenjunga","K2","","1","1","1","competitive","left","1.21748900414","844.533353806","3.78251099586","848.490081787","5.21628499031","853.706426859","0.783715009689","854.541313887","855.993704796","856.074903965","859.077883959","1","859.092108965","862.522001982",""
"sujeto_2158631b","1","2","3","35","862.660789967","direct","3","1","1","¿Cuándo finalizó la construcción
 del Palacio Legislativo?","1925","1917","","0","0","1","competitive","right","3.31866812706","865.979519844","1.68133187294","867.864896774","4.29254198074","872.157478809","1.70745801926","873.898548841","875.539430857","875.616406918","878.619422913","0","878.633379936","884.330922842",""
"sujeto_2158631b","1","2","4","36","884.469071865","inverse","3","1","3","¿Cuántos integrantes tenía
 en su inicio  el cuarteto de nos?","3","4","","1","1","1","competitive","right","1.17561984062","885.644762993","3.82438015938","889.628011942","4.56664299965","894.194693804","1.43335700035","895.67924881","896.811430931","896.896102905","899.89909482","1","899.913407803","905.563210964",""
"sujeto_2158631b","1","2","5","37","905.698588848","direct","2","1","3","¿Qué valor tiene el número pi?","3.14","4.18","left","0","0","1","competitive","left","1.44319200516","907.141847849","3.55680799484","910.856120825","2.93072485924","913.786910772","3.06927514076","916.889008999","918.343201876","918.424457788","921.427433968","1","921.441500902","928.362480879",""
"sujeto_2158631b","1","2","6","38","928.493119001","inverse","2","1","2","¿Cuál es la esperanza de vida
 en Uruguay?","75","77","","1","1","0","competitive","right","1.60381102562","930.097006798","3.39618897438","933.650646925","4.0433511734","937.694082975","1.9566488266","939.685330868","941.339114904","941.420387983","944.423374891","1","944.43739295","950.900414944",""
"sujeto_2158631b","1","2","7","39","951.038710833","direct","1","1","2","¿Cuantos pisos tiene la torre 
de las comunicaciones?","26","32","","1","1","0","competitive","right","1.54042506218","952.579207897","3.45957493782","956.195766926","4.0464360714","960.242244959","1.9535639286","962.244262934","964.073029995","964.145806789","967.148788929","1","967.16305995","969.30921483",""
"sujeto_2158631b","1","2","8","40","969.44863987","inverse","2","1","4","¿En qué país sudamericano 
no hay McDonalds?","Bolivia","Venezuela","","0","0","1","competitive","right","1.85170197487","971.300387859","3.14829802513","974.638010979","4.20232510567","978.840397835","1.79767489433","980.690110922","981.999449968","982.074981928","985.075451851","0","985.09164381","991.451303005",""
"sujeto_2158631b","1","2","9","41","991.593625784","direct","3","1","1","¿En qué año empieza
 la Edad Media?","476","512","","1","1","1","competitive","right","1.81081008911","993.404502869","3.18918991089","996.749773979","3.58878207207","1000.33859491","2.41121792793","1002.80144382","1004.20517087","1004.28564596","1007.2886169","1","1007.30292082","1010.29143596",""
"sujeto_2158631b","1","2","10","42","1010.43743896","inverse","3","1","4","¿Hace cuántos años surgió
 el ser humano?","200mil","300mil","","0","0","0","competitive","left","1.29324913025","1011.73079586","3.70675086975","1015.62701297","4.90765094757","1020.53470492","1.09234905243","1021.66162086","1023.54764485","1023.62912488","1026.63208079","0","1026.64616179","1029.95660877",""
"sujeto_2158631b","1","2","11","43","1030.11503983","direct","3","1","4","¿Cuántas cuadras tiene
 actualmente 18 de julio? ","36","33","","0","0","1","competitive","left","1.24679398537","1031.361938","3.75320601463","1035.27047777","5.3713350296","1040.64185286","0.628664970398","1041.32209992","1043.0243659","1043.10577297","1046.10874295","0","1046.12301588","1050.84930682",""
"sujeto_2158631b","1","2","12","44","1050.97486186","inverse","1","1","4","¿Qué juego de equipo se 
considera mas rápido?","Lacrosse","Badminton","","0","0","0","competitive","right","2.61906599998","1053.59397197","2.38093400002","1056.144315","4.58563709259","1060.73001885","1.41436290741","1062.19368696","1063.43680596","1063.51136684","1066.51432896","0","1066.52835584","1074.52350187",""
"sujeto_2158631b","1","2","13","45","1074.64733791","direct","1","1","3","¿Qué promedio de edad 
vive una jirafa? ","25","20","","0","0","1","competitive","right","1.82683181763","1076.47422194","3.17316818237","1079.82820487","5.25497102737","1085.08324099","0.745028972626","1085.87901688","1087.64053679","1087.71251392","1090.71549296","0","1090.73052478","1096.68346381",""
"sujeto_2158631b","1","2","14","46","1096.8153069","inverse","1","1","2","¿Cuántos grandes lagos hay?","7","5","","0","0","1","competitive","left","1.65000295639","1098.4653728","3.34999704361","1102.00604081","3.77129387856","1105.77739978","2.22870612144","1108.05655694","1109.34866095","1109.42382193","1112.42677498","0","1112.44179988","1120.25943589",""
"sujeto_2158631b","1","2","15","47","1120.39310694","direct","3","1","2","¿Cuántos discos de estudio
 grabó Johhny Cash? ","54","43","","1","1","0","competitive","right","1.17643904686","1121.56959677","3.82356095314","1125.54861689","4.69096279144","1130.23964286","1.30903720856","1131.58432889","1132.86266685","1132.93544388","1135.93841696","1","1135.9527638","1142.60365486",""
"sujeto_2158631b","1","2","16","48","1142.73695683","inverse","4","1","1","¿Cuántos barrios tiene
 Montevideo? ","71","62","","0","0","1","competitive","right","3.20273089409","1145.93972898","1.79726910591","1147.9295249","4.86923098564","1152.79881692","1.13076901436","1153.98040199","1154.98745298","1155.06373477","1158.06671286","0","1158.08101988","1163.54303598",""
"sujeto_2158631b","1","2","17","49","1163.68339896","direct","3","1","3","¿Qué edad tiene Homero Simpson?","36","42","","0","0","1","competitive","right","1.36146998405","1165.04493594","3.63853001595","1168.84044886","2.52550888062","1171.36602187","3.47449111938","1174.89090991","1176.26696181","1176.34201384","1179.34499478","0","1179.35932899","1183.74811077",""
"sujeto_2158631b","1","2","18","50","1183.8756268","inverse","4","1","2","¿Cuántos países con monarquía 
hay en europa actualmente? ","6","10","","1","1","1","competitive","","1.30840301514","1185.18409395","3.69159698486","1189.05078578","6","1195.05093884","0","1195.06637478","1196.50468183","1196.58646989","1199.58749986","0","1199.60358787","1205.76040483",""
"sujeto_2158631b","1","2","19","51","1205.88815594","direct","2","1","3","¿Cuántos capítulos de
 Friends existen? ","236","228","","1","1","1","competitive","right","0.976061105728","1206.864259","4.02393889427","1211.04289794","2.8353600502","1213.87829781","3.1646399498","1217.09428883","1218.399858","1218.47967982","1221.48266387","1","1221.4969089","1223.872545",""
"sujeto_2158631b","1","2","20","52","1223.99849677","inverse","1","1","3","¿Cuántas óperas compuso Mozart? ","27","22","","1","1","1","competitive","left","1.00605607033","1225.00460792","3.99394392967","1229.1547339","2.6116027832","1231.76637483","3.3883972168","1235.18845391","1236.48060679","1236.55677581","1239.55975986","1","1239.57386684","1246.88347483",""
"sujeto_2158631b","1","2","21","53","1247.02687287","direct","4","1","3","¿Cuántos mundiales de fútbol 
femenino ha realizado FIFA? ","9","7","","1","1","1","competitive","left","1.19076085091","1248.21767783","3.80923914909","1252.18378496","3.74479293823","1255.92863679","2.25520706177","1258.2179718","1259.46167898","1259.53515792","1262.53813696","1","1262.55338788","1268.65585399",""
"sujeto_2158631b","1","2","22","54","1268.78798485","inverse","3","1","2","¿Cuál es la temperatura 
media anual en Montevideo? ","17.5","16.3","","0","0","1","competitive","left","0.983707904816","1269.7717638","4.01629209518","1273.94573879","3.5689971447","1277.51478291","2.4310028553","1279.99605298","1281.93463182","1282.01369596","1285.01665998","0","1285.03176594","1291.6013",""
"sujeto_2158631b","1","2","23","55","1291.73243999","direct","2","1","2","¿En qué año se estrenó el
 videojuego The Sims? ","2000","2002","","0","0","0","competitive","left","1.35947108269","1293.091959","3.64052891731","1296.89105582","3.77187299728","1300.66297078","2.22812700272","1302.94149899","1304.80348992","1304.87549686","1307.87846589","0","1307.89249897","1315.28611279",""
"sujeto_2158631b","1","2","24","56","1315.44395781","inverse","2","1","1","¿Cuál es la canción con 
mas covers? ","Yesterday","Stand by me","","0","0","0","competitive","right","1.4181189537","1316.86212087","3.5818810463","1320.61831093","3.19882798195","1323.81717777","2.80117201805","1326.66903186","1328.06748199","1328.13675785","1331.1397388","0","1331.15396786","1335.32479787",""
"sujeto_2158631b","1","2","25","57","1335.45632696","direct","1","1","4","¿Cuánto duró la guerra
 de los 100 años?","116","123","","0","0","0","competitive","left","1.2419500351","1336.6983459","3.7580499649","1340.61305499","2.87526702881","1343.48838377","3.12473297119","1346.66413498","1348.14494991","1348.21485496","1351.21545386","0","1351.2327199","1353.55245781",""
"sujeto_2158631b","1","2","26","58","1353.684726","inverse","4","1","4","¿Qué color tiene la  bandera de Brasil?","Amarillo","Naranja","left","0","0","1","competitive","left","1.0556910038","1354.74046087","3.9443089962","1358.8397789","2.63466882706","1361.47448778","3.36533117294","1364.88943696","1366.45596695","1366.54193687","1369.54493093","1","1369.55899382","1372.59173679",""
"sujeto_2158631b","1","2","27","59","1372.72915888","direct","4","1","3","¿Qué carabela de 
Colon no volvió del viaje?","Santa María","La pinta","","0","0","1","competitive","left","0.838541984558","1373.56775498","4.16145801544","1377.88198686","4.9976849556","1382.87971687","1.0023150444","1383.93302989","1385.42409492","1385.50143385","1388.5044198","0","1388.51877999","1390.61824584",""
"sujeto_2158631b","1","2","28","60","1390.75330091","inverse","4","1","4","¿Cuántos huesos tiene
 un adulto humano?","217","206","","0","0","1","competitive","left","1.03840899467","1391.79177785","3.96159100533","1395.90950179","3.65324091911","1399.5628078","2.34675908089","1401.95982385","1403.2308588","1403.31067181","1406.31365585","0","1406.32790995","1414.16349077",""
"sujeto_2158631b","1","2","29","61","1414.29610491","direct","1","1","1","¿Qué país africano fue 
fundado por esclavos?","Liberia","Chad","","0","0","0","competitive","right","1.35175085068","1415.64801788","3.64824914932","1419.5048039","3.43214797974","1422.93699479","2.56785202026","1425.55562997","1427.54725885","1427.62383699","1430.626827","0","1430.64091778","1438.63178897",""
"sujeto_2158631b","1","2","30","62","1438.79239392","inverse","4","1","2","¿A cuánto asciende la cima
 del monte Everest?","7.990 mts","8.848 mts","","0","0","1","competitive","left","0.955761194229","1439.74820089","4.04423880577","1443.98395395","2.71428203583","1446.698282","3.28571796417","1450.03459978","1451.21944785","1451.30299282","1454.30488396","0","1454.31994891","1461.50397491",""
"sujeto_2158631b","1","2","31","63","1461.63792896","direct","4","1","1","¿Cuál es el país mas chico?","Sealand","Luxemburgo","","1","1","1","competitive","left","1.09636497498","1462.73435593","3.90363502502","1466.79173994","3.30461120605","1470.0964129","2.69538879395","1472.84369779","1474.70722294","1474.79591584","1477.7989099","1","1477.81315684","1480.93543482",""
"sujeto_2158631b","1","2","32","64","1481.08101082","inverse","2","1","4","¿Cuántas pirámides hay en Egipto?","10000","11000","","1","1","1","competitive","left","0.548587083817","1481.62967682","4.45141291618","1486.23919487","3.78435587883","1490.02358985","2.21564412117","1492.29079199","1493.32435894","1493.40837097","1496.41139388","1","1496.42556787","1501.53463483",""
"sujeto_2158631b","1","3","1","65","1611.28032899","direct","2","1","2","¿Cuál es el quinto país con 
mas extensión?","Canadá","Brasil","","1","1","0","competitive","right","0.941218137741","1612.22161579","4.05878186226","1616.4406209","3.32099199295","1619.7616508","2.67900800705","1622.49187589","1623.82516885","1623.89262795","1626.89554977","1","1626.910568","1634.6369648","1501.54610491"
"sujeto_2158631b","1","3","2","66","1634.77779388","inverse","1","1","2","¿Qué rasgo facial no tiene
 la Mona Lisa?","Cejas","Pómulos","","0","0","1","competitive","right","0.817107200623","1635.59498191","4.18289279938","1639.93444991","4.80832386017","1644.74281788","1.19167613983","1645.97048998","1647.72091079","1647.80461884","1650.80749083","0","1650.82257199","1657.09388494",""
"sujeto_2158631b","1","3","3","67","1657.24090886","direct","4","1","3","¿Cuál es el país con 
mayor población?","Esados Unidos","China","right","0","0","1","competitive","right","0.959091901779","1658.20007181","4.04090809822","1662.39878297","2.75509405136","1665.15391994","3.24490594864","1668.44797993","1670.09398794","1670.18387485","1673.18685079","1","1673.20113397","1676.56749487",""
"sujeto_2158631b","1","3","4","68","1676.70278478","inverse","1","1","1","La palabra dinosaurio significa","Lagarto Terrible","Lagarto Dragón","","1","1","0","competitive","right","0.720086097717","1677.42295194","4.27991390228","1681.87433982","3.72728204727","1685.60166192","2.27271795273","1687.90808392","1689.07838082","1689.15970087","1692.16266489","1","1692.17703986","1695.03885889",""
"sujeto_2158631b","1","3","5","69","1695.17839789","direct","2","1","3","¿Qué es el membrillero?","Arbol","Arbusto","","0","0","0","competitive","left","1.24210500717","1696.42054582","3.75789499283","1700.33451891","3.54982185364","1703.88439584","2.45017814636","1706.38490582","1708.33901381","1708.41956091","1711.422539","0","1711.4367578","1717.90078187",""
"sujeto_2158631b","1","3","6","70","1718.03804779","inverse","3","1","3","¿Alrededor de qué planeta orbita 
el satélite Europa?","Jupiter","Saturno","","1","1","1","competitive","left","1.66816401482","1719.70625591","3.33183598518","1723.21176195","4.21733808517","1727.42916489","1.78266191483","1729.2633729","1730.80745888","1730.88038087","1733.88336086","1","1733.89735889","1736.10252881",""
"sujeto_2158631b","1","3","7","71","1736.24913692","direct","3","1","1","¿Donde fue el mundial de 
fútbol de 1954?","Suiza","Suecia","","1","1","1","competitive","left","0.96487402916","1737.21407795","4.03512597084","1741.42113996","4.31075906754","1745.73195696","1.68924093246","1747.45542979","1748.7080338","1748.79011297","1751.79306889","1","1751.80727577","1755.71905899",""
"sujeto_2158631b","1","3","8","72","1755.87590289","inverse","1","1","4","¿Cuál de los 7 enanitos
no tenía barba?","Bashful","Mudito","","1","1","0","competitive","right","1.12543916702","1757.00141287","3.87456083298","1761.03067994","3.26298213005","1764.29372096","2.73701786995","1767.08190584","1768.66204596","1768.73268485","1771.73561096","1","1771.75079989","1776.67943096",""
"sujeto_2158631b","1","3","9","73","1776.80149794","direct","3","1","2","¿Cual red social es
mas utilizada mundialmente?","Instagram","Facebook","","1","1","0","competitive","left","1.48888897896","1778.29047585","3.51111102104","1781.95798492","3.86646103859","1785.82448697","2.13353896141","1788.00886893","1789.92622995","1790.01065683","1793.01363897","1","1793.02825999","1795.96275878",""
"sujeto_2158631b","1","3","10","74","1796.09608388","inverse","4","1","1","¿Cuándo se inició la copa
 América de fútbol?","1916","1923","","1","1","1","competitive","right","1.10927581787","1797.20542383","3.89072418213","1801.25166678","4.98046994209","1806.23219085","1.01953005791","1807.30244184","1809.19991589","1809.28709388","1812.29004288","1","1812.30455685","1814.96067595",""
"sujeto_2158631b","1","3","11","75","1815.10608792","direct","3","1","4","¿Cuántos presidentes de EEUU
han muerto asesinados?","3","4","","0","0","1","competitive","right","1.76610517502","1816.87229991","3.23389482498","1820.29387093","3.85915517807","1824.15306497","2.14084482193","1826.328511","1827.81236982","1827.89626598","1830.89919877","0","1830.91355491","1834.55766678",""
"sujeto_2158631b","1","3","12","76","1834.68175387","inverse","2","1","4","¿Cuántas veces participó EEUU
 en la copa América?","4","5","","0","0","1","competitive","left","1.37425780296","1836.05605578","3.62574219704","1839.83717895","3.99464607239","1843.83186078","2.00535392761","1845.8719089","1847.31601882","1847.38926077","1850.39224577","0","1850.4063139","1856.52350378",""
"sujeto_2158631b","1","3","13","77","1856.65746689","direct","4","1","1","¿Cuál de estos países 
no formaba la URSS?","Azeribayán","Afganistán","","0","0","1","competitive","right","1.02338981628","1857.68093491","3.97661018372","1861.81054783","3.704185009","1865.51477599","2.295814991","1867.86333799","1869.17640877","1869.24769378","1872.25066996","0","1872.26494193","1880.247082",""
"sujeto_2158631b","1","3","14","78","1880.38302588","inverse","1","1","1","¿En qué año se inauguró
 el teatro Solís?","1867","1856","","0","0","0","competitive","right","1.74690389633","1882.12998199","3.25309610367","1885.54405689","3.46344280243","1889.00756478","2.53655719757","1891.59442496","1892.65074182","1892.72918487","1895.73217082","0","1895.74642181","1902.39423895",""
"sujeto_2158631b","1","3","15","79","1902.5336628","direct","1","1","4","¿A qué velocidad vuela 
el avión más rápido?","3529","3874","","0","0","0","competitive","left","0.954833984375","1903.4885509","4.04516601562","1907.68813682","4.13127708435","1911.81945491","1.86872291565","1913.73998094","1915.49548292","1915.57400393","1918.57698989","0","1918.59129977","1920.70158195",""
"sujeto_2158631b","1","3","16","80","1920.84349179","inverse","3","1","4","¿De qué año es la primer 
película cinematográfica?","1897","1888","","0","0","0","competitive","left","0.906846046448","1921.75040078","4.09315395355","1925.99807596","3.90121102333","1929.89933085","2.09878897667","1932.04928088","1933.18224597","1933.2660079","1936.268996","0","1936.2841258","1941.69389582",""
"sujeto_2158631b","1","3","17","81","1941.8513968","direct","2","1","3","¿Cuántos países 
tiene nuestro planeta?","191","194","","1","1","1","competitive","left","1.19190907478","1943.04345298","3.80809092522","1947.00445795","3.3496928215","1950.35421181","2.6503071785","1953.05618382","1954.41337395","1954.49107194","1957.49401498","1","1957.50832295","1960.74662495",""
"sujeto_2158631b","1","3","18","82","1960.87649393","inverse","2","1","2","¿Cuántos habitantes
 tiene Buenos Aires?","2.9000.000","3650000","","0","0","0","competitive","left","1.10061621666","1961.97715378","3.89938378334","1966.03438687","3.74161481857","1969.77606082","2.25838518143","1972.08620691","1973.48347998","1973.55326486","1976.55624199","0","1976.57048392","1982.39984894",""
"sujeto_2158631b","1","3","19","83","1982.53879881","direct","2","1","1","¿Cuántos kilos forman una tonelada?","1000","1500","left","1","1","1","competitive","left","1.17118406296","1983.71002793","3.82881593704","1987.69652581","2.3124320507","1990.0090189","3.6875679493","1993.72907281","1995.61642885","1995.69794083","1998.70091891","1","1998.71508098","2004.67251277",""
"sujeto_2158631b","1","3","20","84","2004.81690383","inverse","4","1","4","¿Cuántos estados tiene la 
República del Perú? ","24","23","","0","0","1","competitive","left","1.17302703857","2005.9899869","3.82697296143","2009.99069095","3.40111613274","2013.39184594","2.59888386726","2016.04152489","2017.06349182","2017.1426599","2020.14563584","0","2020.15968895","2025.10499787",""
"sujeto_2158631b","1","3","21","85","2025.2451179","direct","3","1","3","¿En qué año nació Cristóbal Colón? ","1451","1447","","0","0","1","competitive","right","0.736810922623","2025.98198199","4.26318907738","2030.41677499","3.92987203598","2034.34671092","2.07012796402","2036.45191979","2038.29783988","2038.369977","2041.37294388","0","2041.387146","2045.61150193",""
"sujeto_2158631b","1","3","22","86","2045.73855877","inverse","4","1","4","¿Cuánto mide la 
Montaña Aconcagua? ","6234","6962","","0","0","1","competitive","right","1.35620212555","2047.09481788","3.64379787445","2050.89474583","3.03580403328","2053.93061495","2.96419596672","2056.94487691","2058.23423481","2058.31370592","2061.31546879","0","2061.33072996","2068.5143888",""
"sujeto_2158631b","1","3","23","87","2068.64877677","direct","2","1","4","¿Cuánto mide el punto
 más profundo del océano? ","12508","11003","","0","0","1","competitive","right","0.809885025024","2069.45871496","4.19011497498","2073.80688596","4.14468002319","2077.95160484","1.85531997681","2079.84114981","2081.09263682","2081.1755228","2084.17848182","0","2084.18768597","2088.3939569",""
"sujeto_2158631b","1","3","24","88","2088.57301998","inverse","1","1","3","¿Cuántos álbumes ha publicado 
el cantante Jaime Roos? ","41","34","","0","0","1","competitive","right","0.796591997147","2089.36968493","4.20340800285","2093.71614885","4.00633382797","2097.72252679","1.99366617203","2099.76739979","2101.25726986","2101.33522892","2104.33821797","0","2104.35244799","2110.54860282",""
"sujeto_2158631b","1","3","25","89","2110.68668199","direct","4","1","3","¿En qué año nació el 
ex-presidente Jorge Battle? ","1921","1927","","1","1","1","competitive","left","0.809848070145","2111.49658489","4.19015192986","2115.84047198","4.0429391861","2119.88347483","1.9570608139","2121.87584782","2123.60655379","2123.69311094","2126.69609189","1","2126.71140194","2130.19745278",""
"sujeto_2158631b","1","3","26","90","2130.32963586","inverse","1","1","3","¿Cuántas presidencias 
constitucionales  hubo en Uruguay? ","41","42","","0","0","1","competitive","right","1.06832504272","2131.39800477","3.93167495728","2135.50444484","3.23082995415","2138.73532891","2.76917004585","2141.5551579","2142.75892878","2142.83810091","2145.84106898","0","2145.85546279","2151.63911891",""
"sujeto_2158631b","1","3","27","91","2151.78978491","direct","1","1","2","¿Quién escribió mas sinfonías?","Mozart","Haydn","","1","1","0","competitive","left","1.61763000488","2153.40749383","3.38236999512","2156.94949698","3.1078209877","2160.05736184","2.8921790123","2162.999259","2164.21673799","2164.30067492","2167.30365396","1","2167.31880379","2171.07020092",""
"sujeto_2158631b","1","3","28","92","2171.20297194","inverse","4","1","2","¿En qué año nació Michael Jackson?","1958","1953","","1","1","1","competitive","right","1.39732813835","2172.60036278","3.60267186165","2176.39282084","3.38940906525","2179.78229594","2.61059093475","2182.44229889","2184.41947079","2184.49340987","2187.49638891","1","2187.51137996","2193.37370992",""
"sujeto_2158631b","1","3","29","93","2193.54587293","direct","3","1","2","¿En qué año entró en vigencia 
la ley antitabaco en Uruguay?","2005","2006","","1","1","1","competitive","right","1.29337906837","2194.83929992","3.70662093163","2198.70257187","4.16564202309","2202.86827397","1.83435797691","2204.75063491","2206.34539795","2206.41903782","2209.42201996","1","2209.43738985","2214.77139378",""
"sujeto_2158631b","1","3","30","94","2214.90556788","inverse","3","1","1","¿Cuándo se subió el 
primer video a youtube?","2004","2005","","0","0","1","competitive","right","0.856778860092","2215.76242495","4.14322113991","2220.06471181","3.53352594376","2223.59827781","2.46647405624","2226.11549187","2227.42114687","2227.50029087","2230.50324488","0","2230.51761794","2238.27149081",""
"sujeto_2158631b","1","3","31","95","2238.41891694","direct","2","1","1","¿Cuántos habitantes tiene India?","1200 millones","1300 millones","","0","0","0","competitive","right","0.878312110901","2239.29727888","4.1216878891","2243.57703495","3.24710607529","2246.82420683","2.75289392471","2249.62770987","2251.59733582","2251.67875385","2254.6794858","0","2254.69678497","2260.74429679",""
"sujeto_2158631b","1","3","32","96","2260.88048577","inverse","4","1","2","¿A qué edad murió Bob Marley?","36","37","","0","0","1","competitive","right","0.545734167099","2261.42627192","4.4542658329","2266.03816986","2.91789102554","2268.95612097","3.08210897446","2272.08841085","2273.98622489","2274.05628181","2277.05921483","0","2277.07424998","2280.176718",""
"sujeto_2158631b","1","4","1","97","2405.24672198","direct","2","1","1","¿Cuantos años dirigió la selección 
uruguaya Tabarez?","15 años","13 años","","0","0","0","competitive","left","1.02335095406","2406.27013588","3.97664904594","2410.41298389","3.6951007843","2414.10814595","2.3048992157","2416.4629519","2417.65408683","2417.73137188","2420.73435593","0","2420.74837589","2427.81950283","2280.18789196"
"sujeto_2158631b","1","4","2","98","2427.94998598","inverse","4","1","1","¿Cuantas teclas tiene un teclado 
de computadora generalmente? ","Entre 99 y 108","Entre 109 y 113","","1","1","1","competitive","left","1.79321408272","2429.74326396","3.20678591728","2433.15783596","4.33129811287","2437.48920178","1.66870188713","2439.20871592","2440.21149588","2440.29290295","2443.295892","1","2443.30993891","2445.68136287",""
"sujeto_2158631b","1","4","3","99","2445.82755089","direct","1","1","1","¿Cuál Departamento tiene
 mayor superficie?","Río Negro","Soriano","","0","0","0","competitive","left","0.606742858887","2446.43437386","4.39325714111","2450.98330879","2.94685387611","2453.9302299","3.05314612389","2457.03385997","2458.74735999","2458.83542991","2461.8384068","0","2461.852736","2466.17883182",""
"sujeto_2158631b","1","4","4","100","2466.30480695","inverse","3","1","2","¿Cuál es el apellido de las 
hermanastras  de  cenicienta?","Tremaine","Truman","","0","0","1","competitive","left","1.52998781204","2467.83489084","3.47001218796","2471.47809982","4.33805084229","2475.81621385","1.66194915771","2477.52859378","2479.39807796","2479.47901678","2482.4819808","0","2482.49644589","2485.19240594",""
"sujeto_2158631b","1","4","5","101","2485.33131886","direct","4","1","4","¿Cuál película ganó un
 Oscar a mejor película?","Alto Impacto","Cache","","0","0","1","competitive","left","1.05398583412","2486.38537788","3.94601416588","2490.50366092","3.36753702164","2493.87125683","2.63246297836","2496.55482793","2497.67421293","2497.75584483","2500.75883198","0","2500.77306294","2503.03769183",""
"sujeto_2158631b","1","4","6","102","2503.1748538","inverse","1","1","3","¿A cuántos centímetros
equivale la medida pié?","25","30","","0","0","1","competitive","left","1.18743896484","2504.36236","3.81256103516","2508.3462069","3.33497285843","2511.6812458","2.66502714157","2514.39713597","2515.43711185","2515.5154469","2518.51843786","0","2518.53174186","2523.93270898",""
"sujeto_2158631b","1","4","7","103","2524.06710291","direct","2","1","2","¿Qué departamento es mas grande?","Cerro Largo","Paysandú","","0","0","0","competitive","right","0.894266843796","2524.96142387","4.1057331562","2529.22427893","3.06192111969","2532.28623986","2.93807888031","2535.27379179","2536.87350988","2536.95987487","2539.96286893","0","2539.97697687","2544.08697581",""
"sujeto_2158631b","1","4","8","104","2544.24452591","inverse","2","1","3","¿Quién pintó la Mona Lisa?","Picasso","Da Vinci","right","0","0","1","competitive","right","1.24973392487","2545.49430895","3.75026607513","2549.43429089","2.39400196075","2551.82835293","3.60599803925","2555.46749187","2557.07336497","2557.15311694","2560.15607691","1","2560.17006493","2562.33239484",""
"sujeto_2158631b","1","4","9","105","2562.48912692","direct","4","1","3","¿Cuántos litros hay en un galon?","3.54","3.78","","1","1","1","competitive","right","0.992159128189","2563.48134899","4.00784087181","2567.65869784","3.77556300163","2571.43432188","2.22443699837","2573.69282198","2575.21069884","2575.29403591","2578.29702282","1","2578.31129599","2584.10365987",""
"sujeto_2158631b","1","4","10","106","2584.24644184","inverse","4","1","1","¿Cuántas teclas tiene
 un piano moderno?","80","88","","0","0","1","competitive","left","1.21887087822","2585.465379","3.78112912178","2589.40448499","3.42676615715","2592.83128977","2.57323384285","2595.43862796","2596.44712186","2596.52325487","2599.52344179","0","2599.54085684","2606.33857679",""
"sujeto_2158631b","1","4","11","107","2606.4749248","direct","4","1","3","¿Cuántos países hay en África?","54","62","","0","0","1","competitive","left","0.988486051559","2607.46345782","4.01151394844","2611.66670585","3.0567009449","2614.72347689","2.9432990551","2617.71696591","2619.40748978","2619.485425","2622.48840284","0","2622.50180078","2630.30348277",""
"sujeto_2158631b","1","4","12","108","2630.43585587","inverse","1","1","3","¿En qué siglo se crearon
 las primeras pistolas?","XV","XIII","","1","1","1","competitive","right","1.02462482452","2631.46055198","3.97537517548","2635.59575391","4.05868577957","2639.65449977","1.94131422043","2641.62983394","2643.57774591","2643.66434383","2646.66731191","1","2646.68130398","2649.91439199",""
"sujeto_2158631b","1","4","13","109","2650.0669539","direct","3","1","4","¿En qué año se estrenó 
la serie friends?","1994","1995","","0","0","1","competitive","right","1.4365208149","2651.50354099","3.5634791851","2655.23931599","3.42812800407","2658.66751099","2.57187199593","2661.28764796","2663.16304898","2663.23816395","2666.24116182","0","2666.25639892","2671.25945783",""
"sujeto_2158631b","1","4","14","110","2671.40831399","inverse","3","1","4","¿En qué año nació Hitler?","1889","1887","","0","0","1","competitive","left","0.768340110779","2672.17673182","4.23165988922","2676.54944396","3.49609708786","2680.0456059","2.50390291214","2682.582165","2683.69653893","2683.76606488","2686.76904297","0","2686.783288","2691.81028581",""
"sujeto_2158631b","1","4","15","111","2691.93564391","direct","1","1","4","¿Cuánto pesa un elefante Africano?","6000 kilos","5400 kilos","","0","0","0","competitive","right","1.0319018364","2692.96761179","3.9680981636","2697.09385395","3.46366500854","2700.55756092","2.53633499146","2703.14486885","2704.50078797","2704.57943082","2707.58238196","0","2707.59589696","2714.3029778",""
"sujeto_2158631b","1","4","16","112","2714.44815683","inverse","1","1","2","¿Qué porcentaje de 
la población es zurda?","10%","7%","","1","1","0","competitive","right","0.755550861359","2715.20375896","4.24444913864","2719.60507083","2.40852999687","2722.01366282","3.59147000313","2725.65599585","2726.8990519","2726.97340894","2729.97641397","1","2729.99140596","2735.97108293",""
"sujeto_2158631b","1","4","17","113","2736.10919094","direct","1","1","2","¿En qué año se estrenó
Volver al futuro?","1984","1985","","0","0","1","competitive","right","1.50247478485","2737.61170983","3.49752521515","2741.28320479","3.19346284866","2744.47670889","2.80653715134","2747.31490588","2748.87551379","2748.94983697","2751.95152783","0","2751.9668529","2759.05832481",""
"sujeto_2158631b","1","4","18","114","2759.18485498","inverse","3","1","2","¿Cuántos jugadores hay en un 
equipo de baseball?","9","8","","1","1","0","competitive","left","0.516986131668","2759.70189285","4.48301386833","2764.36252999","2.87422513962","2767.2367959","3.12577486038","2770.41222095","2772.02648783","2772.09737396","2775.10033488","1","2775.11473489","2780.09197783",""
"sujeto_2158631b","1","4","19","115","2780.24924493","direct","2","1","1","¿Cuántos Oscar ganó
 la película titanic?","13","11","","1","1","1","competitive","right","0.874634027481","2781.12393594","4.12536597252","2785.40527582","2.67345499992","2788.07877278","3.32654500008","2791.45616794","2792.75824285","2792.84116888","2795.84348679","1","2795.85897779","2800.46163177",""
"sujeto_2158631b","1","4","20","116","2800.6101079","inverse","4","1","4","¿En qué año comenzó
la segunda guerra mundial?","1939","1976","left","0","0","1","competitive","left","0.905846118927","2801.51603389","4.09415388107","2805.76626992","3.57956910133","2809.34587979","2.42043089867","2811.80072284","2813.59949279","2813.68592286","2816.68890786","1","2816.70288181","2820.68749285",""
"sujeto_2158631b","1","4","21","117","2820.82166791","direct","2","1","4","¿Cuántos biomas hay en Uruguay?","5","4","","0","0","1","competitive","left","1.09824800491","2821.91995978","3.90175199509","2825.97231078","3.47455906868","2829.44690895","2.52544093132","2832.00760579","2833.8034339","2833.87556696","2836.87856698","0","2836.8938148","2843.1394999",""
"sujeto_2158631b","1","4","22","118","2843.26157689","inverse","2","1","3","¿Cuándo murió Pablo Escobar?","1993","1997","","1","1","1","competitive","right","1.75539183617","2845.01703691","3.24460816383","2848.43838477","3.34159994125","2851.78004479","2.65840005875","2854.48906183","2856.27188277","2856.34099984","2859.34395981","1","2859.35818791","2865.0618279",""
"sujeto_2158631b","1","4","23","119","2865.19442391","direct","1","1","4","¿Qué serie ha ganado mas premios?","Friends","Murphy Brown","","1","1","0","competitive","left","0.789682149887","2865.98418498","4.21031785011","2870.35007191","3.22897481918","2873.57910585","2.77102518082","2876.40071893","2877.75313687","2877.83545399","2880.836344","1","2880.85250592","2886.41412377",""
"sujeto_2158631b","1","4","24","120","2886.55421185","inverse","4","1","2","¿Cuántas fichas tiene el dominó?","26","28","","1","1","1","competitive","left","1.17688393593","2887.73116183","3.82311606407","2891.72764778","3.19143390656","2894.9191258","2.80856609344","2897.77868199","2898.83396697","2898.9132309","2901.91622996","1","2901.930336","2907.17344594",""
"sujeto_2158631b","1","4","25","121","2907.31512094","direct","2","1","4","¿Cuántos son los dientes de leche?","20","25","","0","0","1","competitive","right","1.20802807808","2908.52319193","3.79197192192","2912.46857285","3.26960086823","2915.73821998","2.73039913177","2918.52025294","2920.23062682","2920.30510688","2923.30748892","0","2923.32268596","2925.46839881",""
"sujeto_2158631b","1","4","26","122","2925.607301","inverse","3","1","3","¿Cuántos gramos son una onza?","22","28","","0","0","1","competitive","left","0.942044019699","2926.54942584","4.0579559803","2930.7646029","2.62762999535","2933.392272","3.37237000465","2936.79863477","2938.79346895","2938.8669529","2941.86748791","0","2941.88488388","2948.17145586",""
"sujeto_2158631b","1","4","27","123","2948.30232191","direct","3","1","1","¿Cuándo salió el primer album
 de los Beatles?","1963","1962","","1","1","1","competitive","right","0.838090896606","2949.14046597","4.16190910339","2953.47628689","3.23805594444","2956.71438289","2.76194405556","2959.52712989","2960.69075298","2960.76247478","2963.76543093","1","2963.77874994","2967.55078983",""
"sujeto_2158631b","1","4","28","124","2967.68070579","inverse","3","1","3","¿Quién fundó la empresa apple?","Carlos Slim","Steve Jobs","","1","1","1","competitive","right","0.897717952728","2968.57849598","4.10228204727","2972.83532691","2.89606785774","2975.73143578","3.10393214226","2978.88626885","2980.00095177","2980.07139778","2983.0743649","1","2983.08946586","2989.38730693",""
"sujeto_2158631b","1","4","29","125","2989.52382398","direct","4","1","2","¿Cuántos municipios hay
 en Montevideo?","8","7","","1","1","1","competitive","left","1.01256918907","2990.53643799","3.98743081093","2994.67661691","3.13678216934","2997.81343794","2.86321783066","3000.72873592","3002.64352393","3002.72987986","3005.73286986","1","3005.74714589","3007.82828689",""
"sujeto_2158631b","1","4","30","126","3007.96580577","inverse","1","1","1","¿Cuántos kilómetros hay
 de Montevideo a Artigas?","632","599","","0","0","0","competitive","right","0.89380812645","3008.85969186","4.10619187355","3013.12353778","3.88795089722","3017.01153278","2.11204910278","3019.17502689","3020.65816998","3020.74253988","3023.7454989","0","3023.75978279","3029.81189489",""
"sujeto_2158631b","1","4","31","127","3029.94440198","direct","2","1","2","¿En qué año nació 
Leonardo Da Vinci?","1452","1511","","1","1","0","competitive","left","0.937245130539","3030.88171887","4.06275486946","3035.10169291","3.17790699005","3038.27963686","2.82209300995","3041.13591886","3042.98948979","3043.07121897","3046.07145381","1","3046.08869386","3049.23509979",""
"sujeto_2158631b","1","4","32","128","3049.35636997","inverse","3","1","1","¿A qué continente
 pertenece el país Gabón?","Africa","Oceanía","","0","0","1","competitive","left","1.45630717278","3050.81275082","3.54369282722","3054.52904391","3.25855708122","3057.7876389","2.74144291878","3060.57827783","3062.38991785","3062.46271181","3065.46568799","0","3065.48052096","3070.71844578",""
