"code","nro_aplicante","nro_bloque","nro_trial_bloque","nro_trial_global","show_game_type","choice_order","rival","pay_individual","pay_competitive","question","answer_left_text","answer_right_text","correct_answer","outcome_individual","outcome_competitive","outcome_rival","game_type","answer","social_time","rt_game_type","feedback_delay","show_question","answer_time","rt_answer_global","feedback_delay_2","show_jitter","jitter_time","show_outcome","outcome_time","outcome_participant_real","show_final_jitter","second_jitter_time","inicio_descanso"
"sujeto_225a39e1","1","1","1","1","25.6579499245","direct","3","1","4","¿Cuántos centímetros corresponden
al talle 36 del calzado?","23","24","","0","0","1","competitive","right","4.96858215332","30.6266019344","0.0314178466797","30.8425891399","4.21207904816","35.0547151566","1.78792095184","36.8797841072","37.908080101","37.9800450802","40.9830269814","0","40.9979259968","43.1604509354",""
"sujeto_225a39e1","1","1","2","2","43.3000741005","inverse","3","1","2","¿Cuántas metros mide la Intendencia
Municipal de Montevideo? ","84","78","","0","0","1","competitive","left","1.33660793304","44.6367321014","3.66339206696","48.4543530941","4.76922512054","53.2236361504","1.23077487946","54.5056500435","56.3836770058","56.4558780193","59.4586839676","0","59.474148035","61.5669159889",""
"sujeto_225a39e1","1","1","3","3","61.708892107","direct","1","1","3","¿Cuántas La Pasiva
 hay en uruguay?","15","11","","1","1","1","competitive","left","2.08575415611","63.7947149277","2.91424584389","66.8654711246","4.29913902283","71.1646671295","1.70086097717","72.9154160023","74.5271151066","74.6000430584","77.603012085","1","77.617246151","81.8955719471",""
"sujeto_225a39e1","1","1","4","4","82.0349969864","inverse","3","1","3","¿De que color es la camiseta de uruguay?","blanca","celeste","right","1","1","1","competitive","right","2.95569992065","84.9907431602","2.04430007935","87.2044970989","3.84414219856","91.0486810207","2.15585780144","93.2424769402","94.4472439289","94.5263381004","97.5293221474","1","97.5437719822","100.997689962",""
"sujeto_225a39e1","1","1","5","5","101.14529705","direct","2","1","1","¿Cuánto metros mide
la torre Eiffel?","333","324","","1","1","1","competitive","right","2.92839884758","104.073760986","2.07160115242","106.314600945","4.7230360508","111.037676096","1.2769639492","112.36907196","113.890465975","113.969387054","116.97238493","1","116.987810135","124.024497986",""
"sujeto_225a39e1","1","1","6","6","124.172426939","inverse","3","1","4","¿Cuantas ciudades existen
 en todo el uruguay?","63","72","","0","0","1","competitive","left","1.72923994064","125.901711941","3.27076005936","129.329874039","5.43175601959","134.761671066","0.568243980408","135.38072896","136.435508013","136.514641047","139.51760006","0","139.531813145","147.158419132",""
"sujeto_225a39e1","1","1","7","7","147.316745996","direct","1","1","1","¿Cuantos estados tiene África?","52","54","","1","1","0","competitive","right","2.82494187355","150.141740084","2.17505812645","152.472413063","4.89424490929","157.36669898","1.10575509071","158.508589029","160.372569084","160.442712069","163.445686102","1","163.460166931","169.221200943",""
"sujeto_225a39e1","1","1","8","8","169.362141132","inverse","4","1","4","¿En qué año nació
 Stephen Hawking?","1952","1942","","0","0","1","competitive","left","3.72440505028","173.086611032","1.27559494972","174.534857035","5.2808470726","179.815744162","0.719152927399","180.584900141","182.028664112","182.102689981","185.105683088","0","185.120355129","191.219727993",""
"sujeto_225a39e1","1","1","9","9","191.355020046","direct","2","1","3","¿Cuánto años tenía Artigas
 cuando se fue a Paraguay?","56","57","","1","1","1","competitive","right","1.64857411385","193.003639936","3.35142588615","196.51393795","5.6747469902","202.188746929","0.325253009796","202.549040079","204.098526955","204.182551146","207.184638977","1","207.200354099","213.247606039",""
"sujeto_225a39e1","1","1","10","10","213.383844137","inverse","1","1","2","¿Cuantos milímetros 
mide una hoja A2?","420x592","420x594","","0","0","1","competitive","","2.50287699699","215.886821032","2.49712300301","218.556978941","6","224.557129145","0","224.576797009","226.145229101","226.227813959","229.230811119","0","229.245708942","236.319357157",""
"sujeto_225a39e1","1","1","11","11","236.463380098","direct","3","1","3","¿Cuál es la menor temperatura 
registrada en Uruguay?","-5.4","-7.4","","0","0","1","competitive","left","1.92735719681","238.39081502","3.07264280319","241.620428085","4.2271361351","245.847605944","1.7728638649","247.654336929","249.336405993","249.421529055","252.424507141","0","252.440006971","256.173304081",""
"sujeto_225a39e1","1","1","12","12","256.324397087","inverse","2","1","2","¿Cuantos años hace que 
se fundó facebook?","18","17","","0","0","0","competitive","left","2.0672750473","258.391716003","2.9327249527","261.47886014","3.73980808258","265.218708038","2.26019191742","267.529371023","268.902091026","268.980517149","271.983492136","0","271.998111963","274.772711039",""
"sujeto_225a39e1","1","1","13","13","274.916810036","direct","1","1","4","¿Cuál animal es más
 pesado en promedio?","Rinoceronte","Hipopotamo","","0","0","0","competitive","right","1.0848698616","276.001742125","3.9151301384","280.073508978","4.97813892365","285.051708937","1.02186107635","286.124763966","287.203999043","287.275357008","290.27837801","0","290.293061972","294.134078026",""
"sujeto_225a39e1","1","1","14","14","294.310894012","inverse","1","1","2","¿Qué personaje de dragon ball 
murió más veces?","Chaoz","Krillin","","1","1","0","competitive","right","1.5237839222","295.834718943","3.4762160778","299.450242043","4.56738591194","304.017668009","1.43261408806","305.501388073","306.95919013","307.035329103","310.038326979","1","310.05321002","317.826147079",""
"sujeto_225a39e1","1","1","15","15","317.970864058","direct","3","1","2","La universidad de oxford. 
existe desde:","1096","1249","","1","1","0","competitive","right","2.2118229866","320.182729959","2.7881770134","323.127264977","5.16534304619","328.292668104","0.834656953812","329.164144039","330.212929964","330.298439026","333.301450014","1","333.315611124","340.006484032",""
"sujeto_225a39e1","1","1","16","16","340.15883112","inverse","3","1","1","¿Qué escritor latino ganó antes
 el premio nobel?"," García Marquez","Neruda","","0","0","1","competitive","right","3.02786517143","343.186738968","1.97213482857","345.322134018","4.04252886772","349.364704132","1.95747113228","351.355899096","353.095909119","353.1736691","356.176650047","0","356.191015005","359.651520967",""
"sujeto_225a39e1","1","1","17","17","359.792840004","direct","4","1","3","¿Cuántos dientes tiene un
 tiburón blanco?","6000","3000","","0","0","1","individual","left","2.40985703468","362.202747107","2.59014296532","364.966412067","3.82220196724","368.788672924","2.17779803276","371.01880002","372.057781935","372.102272987","375.105262041","0","375.120027065","379.929661989",""
"sujeto_225a39e1","1","1","18","18","380.08799696","inverse","4","1","1","¿Cuánto mide el paralelo Ecuador?","40.000km","70.000km","","0","0","1","competitive","left","1.91559004784","382.003695965","3.08440995216","385.261222124","4.64553308487","389.906831026","1.35446691513","391.295644045","393.251718044","393.33042407","396.333449125","0","396.347063065","399.949573994",""
"sujeto_225a39e1","1","1","19","19","400.098942995","direct","4","1","2","¿Cuál fue el primer libro 
de Stephen King?","Carrie","The Stand","","1","1","1","individual","left","3.73874688148","403.83773303","1.26125311852","405.254852057","4.71688985825","409.971810102","1.28311014175","411.306324959","413.05044508","413.090399027","416.093379021","1","416.107627153","420.58207798",""
"sujeto_225a39e1","1","1","20","20","420.726036072","inverse","2","1","3","¿Qué civilización practicaba
 la momificación?","Grecia","Egipto","right","0","0","1","competitive","right","2.14968395233","422.87579298","2.85031604767","425.897480965","5.71319794655","431.610723019","0.286802053452","431.934489012","433.873734951","433.950514078","436.953505993","1","436.969114065","441.197903156",""
"sujeto_225a39e1","1","1","21","21","441.337280989","direct","4","1","4","¿Cuántos millones de visitas
 recibe google por minuto?","3.0","4.5","","0","0","1","competitive","right","1.91327190399","443.250638962","3.08672809601","446.508932114","4.37868404388","450.887681961","1.62131595612","452.560148954","454.075022936","454.161255121","457.162678957","0","457.178313017","464.30100894",""
"sujeto_225a39e1","1","1","22","22","464.445951939","inverse","1","1","3","La máquina de fax. se inventó en:","1843","1960","","0","0","1","competitive","left","1.46573996544","465.911769152","3.53426003456","469.603140116","4.73163509369","474.33483696","1.26836490631","475.638680935","476.880793095","476.955968142","479.958950043","0","479.97339201","483.209695101",""
"sujeto_225a39e1","1","1","23","23","483.341797113","direct","2","1","4","En la verdadera historia de los
 300 espartanos. habían:","300 soldados","4300 soldados","","1","1","1","competitive","right","0.999929189682","484.341769934","4.00007081032","488.512274981","5.42838001251","493.940712929","0.571619987488","494.564271927","495.825510025","495.897418976","498.900431156","1","498.915085077","502.716865063",""
"sujeto_225a39e1","1","1","24","24","502.850340128","inverse","1","1","4","¿Cuántos milímetros crece
 el pelo por día?","0.4","0.04","","0","0","0","competitive","right","1.88539814949","504.735803127","3.11460185051","508.041202068","4.82550883293","512.866773129","1.17449116707","514.092324018","515.853029966","515.925912142","518.92888093","0","518.943642139","525.678740978",""
"sujeto_225a39e1","1","1","25","25","525.812461138","direct","4","1","1","¿Cuánto mide la baldosa gris 
clásica de Montevideo?","22x22 cm.","20x20 cm.","","1","1","1","competitive","right","3.90722799301","529.719752073","1.09277200699","530.969254017","5.57246494293","536.541777134","0.427535057068","537.021415949","539.016657114","539.104640007","542.107603073","1","542.122923136","547.665738106",""
"sujeto_225a39e1","1","1","26","26","547.807435989","inverse","2","1","2","¿Cuántas películas de rápidos
 y furiosos hay?","10","11","","1","1","0","competitive","right","1.6782310009","549.485716105","3.3217689991","552.963875055","3.539757967","556.50367403","2.460242033","559.015213966","560.372586012","560.449485064","563.452494144","1","563.466730118","565.501440048",""
"sujeto_225a39e1","1","1","27","27","565.634809017","direct","3","1","1","¿Cuántos masters 1000
 ganó Del Potro?","1","2","","1","1","1","competitive","left","1.54295897484","567.177813053","3.45704102516","570.789760113","5.05487799644","575.844696045","0.945122003555","576.83951807","578.594140053","578.673354149","581.676347971","1","581.690962076","589.087325096",""
"sujeto_225a39e1","1","1","28","28","589.22550106","inverse","2","1","4","¿Cuántos meses dura el 
embarazo de una leona?","3 meses","4 meses","","0","0","1","competitive","right","1.63322591782","590.858793974","3.36677408218","594.384765148","4.11489105225","598.499716043","1.88510894775","600.436794996","601.547879934","601.620511055","604.623501062","0","604.638113976","611.359610081",""
"sujeto_225a39e1","1","1","29","29","611.505584002","direct","1","1","1","¿En qué año fue creado
 el sandwich?","1762","1653","","1","1","0","competitive","right","1.25517487526","612.760826111","3.74482512474","616.663233995","4.18136000633","620.844658136","1.81863999367","622.714635134","624.313205004","624.398332119","627.401328087","1","627.415699959","630.886327982",""
"sujeto_225a39e1","1","1","30","30","631.034587145","inverse","4","1","2","El nombre de la moneda de Vietnam es:","Dinar","Dong","","0","0","1","competitive","right","2.0900990963","633.124729156","2.9099009037","636.189902067","5.13974094391","641.329683065","0.860259056091","642.241932154","643.673896074","643.758751154","646.761697054","0","646.777126074","652.945572138",""
"sujeto_225a39e1","1","1","31","31","653.094599962","direct","2","1","1","¿cuantos aleteos puede dar 
un colibrí por segundo?","120","50","","0","0","0","competitive","left","2.03011488914","655.124787092","2.96988511086","658.263713121","4.51496815681","662.778721094","1.48503184319","664.316978931","666.049410105","666.134496927","669.137521029","0","669.151988983","673.364263058",""
"sujeto_225a39e1","1","1","32","32","673.504249096","inverse","4","1","3","¿Qué altura promedio tienen
 los hombres uruguayos?","1.73 m","1.72 m","","1","1","1","competitive","left","2.7584810257","676.262812138","2.2415189743","678.661489964","4.18023705482","682.841768026","1.81976294518","684.696402073","685.958832979","686.030635118","689.033587933","1","689.048293114","693.52423501",""
"sujeto_225a39e1","1","2","1","33","816.363996029","direct","1","1","1","¿En qué año nació 
el actor Bradd Pitt?","1967","1963","","1","1","1","competitive","left","1.99578285217","818.359823942","3.00421714783","821.519185066","3.96156811714","825.480793953","2.03843188286","827.552866936","828.648725986","828.720849037","831.723842144","1","831.738501072","837.666110992","693.539181948"
"sujeto_225a39e1","1","2","2","34","837.806154013","inverse","2","1","1","¿Cual es el segundo 
monte más alto?","Kanchenjunga","K2","","1","1","1","competitive","left","1.47556805611","839.281783104","3.52443194389","842.963254929","4.94150996208","847.904803038","1.05849003792","848.997676134","850.450080156","850.531296015","853.534296989","1","853.549803972","856.978632927",""
"sujeto_225a39e1","1","2","3","35","857.134067059","direct","3","1","1","¿Cuándo finalizó la construcción
 del Palacio Legislativo?","1925","1917","","0","0","1","competitive","left","2.45869684219","859.592807055","2.54130315781","862.28919816","5.2094810009","867.49872303","0.7905189991","868.324453115","869.966129065","870.042586088","873.045555115","0","873.060685158","878.758219004",""
"sujeto_225a39e1","1","2","4","36","878.894066095","inverse","3","1","3","¿Cuántos integrantes tenía
 en su inicio  el cuarteto de nos?","3","4","","1","1","1","competitive","right","1.26866412163","880.162774086","3.73133587837","884.066420078","4.59828615189","888.664767027","1.40171384811","890.117913961","891.250625134","891.335107088","894.338097095","1","894.351740122","900.001529932",""
"sujeto_225a39e1","1","2","5","37","900.137089014","direct","2","1","3","¿Qué valor tiene el número pi?","3.14","4.18","left","0","0","1","competitive","left","3.10762786865","903.244781017","1.89237213135","905.294842958","4.31188106537","909.606766939","1.68811893463","911.329467058","912.783672094","912.863788128","915.866769075","1","915.881425142","922.802407026",""
"sujeto_225a39e1","1","2","6","38","922.933223009","inverse","2","1","2","¿Cuál es la esperanza de vida
 en Uruguay?","75","77","","1","1","0","competitive","right","3.10056090355","926.03384304","1.89943909645","928.104340076","3.703302145","931.807698011","2.296697855","934.157510042","935.811347008","935.891612053","938.894567966","1","938.90901804","945.371616125",""
"sujeto_225a39e1","1","2","7","39","945.510347128","direct","1","1","2","¿Cuantos pisos tiene la torre 
de las comunicaciones?","26","32","","1","1","0","competitive","right","1.29740095139","946.807795048","3.70259904861","950.65157795","4.3371989727","954.988837004","1.6628010273","956.702569008","958.531373978","958.603876114","961.606832027","1","961.62112999","963.767352104",""
"sujeto_225a39e1","1","2","8","40","963.906320095","inverse","2","1","4","¿En qué país sudamericano 
no hay McDonalds?","Bolivia","Venezuela","","0","0","1","competitive","right","1.69448113441","965.600844145","3.30551886559","969.060410976","4.82524204254","973.885714054","1.17475795746","975.094269991","976.403604984","976.478083134","979.481070995","0","979.494693995","985.854419947",""
"sujeto_225a39e1","1","2","9","41","985.995887995","direct","3","1","1","¿En qué año empieza
 la Edad Media?","476","512","","1","1","1","competitive","left","2.93286800385","988.928879023","2.06713199615","991.173372984","4.90138792992","996.074804068","1.09861207008","997.221250057","998.625020027","998.706020117","1001.70901299","1","1001.72378802","1004.71235013",""
"sujeto_225a39e1","1","2","10","42","1004.85800695","inverse","3","1","4","¿Hace cuántos años surgió
 el ser humano?","200mil","300mil","","0","0","0","competitive","right","1.29275202751","1006.15080309","3.70724797249","1010.01318502","5.09354305267","1015.10676908","0.906456947327","1016.04944801","1017.93461609","1018.01729703","1021.02029014","0","1021.03484201","1024.34462404",""
"sujeto_225a39e1","1","2","11","43","1024.48574209","direct","3","1","4","¿Cuántas cuadras tiene
 actualmente 18 de julio? ","36","33","","0","0","1","competitive","left","2.44899511337","1026.93478012","2.55100488663","1029.65898299","5.61071801186","1035.269768","0.389281988144","1035.69483113","1037.39707494","1037.47805715","1040.48104","0","1040.49538112","1045.21983314",""
"sujeto_225a39e1","1","2","12","44","1045.36414695","inverse","1","1","4","¿Qué juego de equipo se 
considera mas rápido?","Lacrosse","Badminton","","0","0","0","competitive","left","3.32655000687","1048.69076705","1.67344999313","1050.51946592","4.91530799866","1055.43481398","1.08469200134","1056.57076693","1057.81388497","1057.88752508","1060.89057612","0","1060.90535593","1068.90052414",""
"sujeto_225a39e1","1","2","13","45","1069.03954816","direct","1","1","3","¿Qué promedio de edad 
vive una jirafa? ","25","20","","0","0","1","competitive","right","1.73429608345","1070.77388","3.26570391655","1074.19805503","3.94869494438","1078.14681005","2.05130505562","1080.23338509","1081.99486995","1082.066818","1085.06982207","0","1085.08542705","1091.04114914",""
"sujeto_225a39e1","1","2","14","46","1091.18628407","inverse","1","1","2","¿Cuántos grandes lagos hay?","7","5","","0","0","1","competitive","right","0.973480939865","1092.15980697","4.02651906013","1096.343606","3.24609494209","1099.58976507","2.75390505791","1102.37717295","1103.66933107","1103.74538708","1106.74837613","0","1106.76270413","1114.58404112",""
"sujeto_225a39e1","1","2","15","47","1114.73006606","direct","3","1","2","¿Cuántos discos de estudio
 grabó Johhny Cash? ","54","43","","1","1","0","competitive","right","2.99167299271","1117.72178912","2.00832700729","1119.88780499","4.3028678894","1124.19073796","1.6971321106","1125.94026709","1127.21892715","1127.29123211","1130.29419708","1","1130.30848598","1136.95939803",""
"sujeto_225a39e1","1","2","16","48","1137.09316206","inverse","4","1","1","¿Cuántos barrios tiene
 Montevideo? ","71","62","","0","0","1","competitive","right","1.84152889252","1138.93475199","3.15847110748","1142.26559114","4.42309713364","1146.68875408","1.57690286636","1148.31644511","1149.32352209","1149.39994597","1152.40293312","0","1152.41779113","1157.87982106",""
"sujeto_225a39e1","1","2","17","49","1158.01826596","direct","3","1","3","¿Qué edad tiene Homero Simpson?","36","42","","0","0","1","competitive","left","1.75043606758","1159.76874804","3.24956393242","1163.19284511","3.24284410477","1166.435745","2.75715589523","1169.22800803","1170.60404706","1170.68004012","1173.68303704","0","1173.695467","1178.08421898",""
"sujeto_225a39e1","1","2","18","50","1178.22912192","inverse","4","1","2","¿Cuántos países con monarquía 
hay en europa actualmente? ","6","10","","1","1","1","competitive","left","3.33964109421","1181.56880713","1.66035890579","1183.3877821","5.61493515968","1189.00277305","0.385064840317","1189.42339802","1190.86169505","1190.94050598","1193.94352198","1","1193.95808506","1200.11486697",""
"sujeto_225a39e1","1","2","19","51","1200.25944304","direct","2","1","3","¿Cuántos capítulos de
 Friends existen? ","236","228","","1","1","1","competitive","left","3.05531191826","1203.31480312","1.94468808174","1205.43282413","4.03988194466","1209.47276616","1.96011805534","1211.48438811","1212.78992295","1212.86865211","1215.87157607","1","1215.88580704","1218.26147699",""
"sujeto_225a39e1","1","2","20","52","1218.40443707","inverse","1","1","3","¿Cuántas óperas compuso Mozart? ","27","22","","1","1","1","competitive","left","1.29932403564","1219.70380211","3.70067596436","1223.574435","3.76732897758","1227.34180212","2.23267102242","1229.62509203","1230.91725206","1230.99263906","1233.99469304","1","1234.01125312","1241.32271814",""
"sujeto_225a39e1","1","2","21","53","1241.47857714","direct","4","1","3","¿Cuántos mundiales de fútbol 
femenino ha realizado FIFA? ","9","7","","1","1","1","competitive","right","2.38414311409","1243.8627851","2.61585688591","1246.653265","4.61636090279","1251.26967907","1.38363909721","1252.68945813","1253.93317199","1254.00635099","1257.00932312","1","1257.02353311","1263.126019",""
"sujeto_225a39e1","1","2","22","54","1263.27487803","inverse","3","1","2","¿Cuál es la temperatura 
media anual en Montevideo? ","17.5","16.3","","0","0","1","competitive","right","1.87096691132","1265.14591098","3.12903308868","1268.48003101","5.17671298981","1273.656811","0.823287010193","1274.5169971","1276.45560193","1276.5343461","1279.53733301","0","1279.5518291","1286.12135911",""
"sujeto_225a39e1","1","2","23","55","1286.25335693","direct","2","1","2","¿En qué año se estrenó el
 videojuego The Sims? ","2000","2002","","0","0","0","competitive","left","2.07245206833","1288.32585096","2.92754793167","1291.42749095","4.68726301193","1296.11481404","1.31273698807","1297.47853112","1299.33964205","1299.412884","1302.41586709","0","1302.43104315","1309.824646",""
"sujeto_225a39e1","1","2","24","56","1309.96532393","inverse","2","1","1","¿Cuál es la canción con 
mas covers? ","Yesterday","Stand by me","","0","0","0","competitive","right","1.51335191727","1311.47873497","3.48664808273","1315.12198305","4.88175988197","1320.00378394","1.11824011803","1321.17399001","1322.57257199","1322.64112902","1325.64411497","0","1325.65826893","1329.82910895",""
"sujeto_225a39e1","1","2","25","57","1329.97645807","direct","1","1","4","¿Cuánto duró la guerra
 de los 100 años?","116","123","","0","0","0","competitive","left","1.42020511627","1331.39672208","3.57979488373","1335.14865804","4.64711308479","1339.79582906","1.35288691521","1341.1998291","1342.6806221","1342.75116205","1345.75412107","0","1345.76865315","1348.08845901",""
"sujeto_225a39e1","1","2","26","58","1348.23744297","inverse","4","1","4","¿Qué color tiene la  bandera de Brasil?","Amarillo","Naranja","left","0","0","1","competitive","left","2.47431206703","1350.71180105","2.52568793297","1353.40894103","4.58680582047","1357.99579096","1.41319417953","1359.46051908","1361.02707815","1361.11150694","1364.11452103","1","1364.12892199","1367.16171908",""
"sujeto_225a39e1","1","2","27","59","1367.29688096","direct","4","1","3","¿Qué carabela de 
Colon no volvió del viaje?","Santa María","La pinta","","0","0","1","competitive","right","2.74587106705","1370.04281807","2.25412893295","1372.44884801","5.31987404823","1377.76878715","0.680125951767","1378.50431013","1379.99535799","1380.07143807","1383.07441902","0","1383.08874297","1385.18821001",""
"sujeto_225a39e1","1","2","28","60","1385.340523","inverse","4","1","4","¿Cuántos huesos tiene
 un adulto humano?","217","206","","0","0","1","competitive","right","1.20424795151","1386.54483414","3.79575204849","1390.4945941","5.15114688873","1395.64580202","0.848853111267","1396.54656196","1397.81758404","1397.89632702","1400.89932394","0","1400.91390204","1408.75157809",""
"sujeto_225a39e1","1","2","29","61","1408.89822793","direct","1","1","1","¿Qué país africano fue 
fundado por esclavos?","Liberia","Chad","","0","0","0","competitive","left","3.4095261097","1412.30781698","1.5904738903","1414.057374","3.98335599899","1418.04078913","2.01664400101","1420.10792613","1422.09958506","1422.17556095","1425.17856693","0","1425.19321609","1433.18404603",""
"sujeto_225a39e1","1","2","30","62","1433.32874393","inverse","4","1","2","¿A cuánto asciende la cima
 del monte Everest?","7.990 mts","8.848 mts","","0","0","1","individual","right","2.87497997284","1436.20381403","2.12502002716","1438.48574805","4.7101149559","1443.19590712","1.2898850441","1444.52097011","1445.70581913","1445.75543809","1448.75841808","0","1448.77175999","1455.95581508",""
"sujeto_225a39e1","1","2","31","63","1456.10709405","direct","4","1","1","¿Cuál es el país mas chico?","Sealand","Luxemburgo","","1","1","1","competitive","right","1.65473294258","1457.76189613","3.34526705742","1461.24805403","4.38669991493","1465.6347971","1.61330008507","1467.29906702","1469.16257715","1469.25027609","1472.25324416","1","1472.26772094","1475.39001298",""
"sujeto_225a39e1","1","2","32","64","1475.51887798","inverse","2","1","4","¿Cuántas pirámides hay en Egipto?","10000","11000","","1","1","1","competitive","left","2.3519589901","1477.87094402","2.6480410099","1480.690768","4.88697195053","1485.57779908","1.11302804947","1486.73990297","1487.77350593","1487.85758901","1490.86057305","1","1490.87500715","1495.98407602",""
"sujeto_225a39e1","1","3","1","65","1624.06086802","direct","2","1","2","¿Cuál es el quinto país con 
mas extensión?","Canadá","Brasil","","1","1","0","competitive","left","1.4399368763","1625.50086904","3.5600631237","1629.21787715","5.14195203781","1634.3598721","0.858047962189","1635.25219798","1636.58551908","1636.66931915","1639.67230511","1","1639.68658209","1647.41297507","1495.99916005"
"sujeto_225a39e1","1","3","2","66","1647.55509114","inverse","1","1","2","¿Qué rasgo facial no tiene
 la Mona Lisa?","Cejas","Pómulos","","0","0","1","competitive","left","1.3546500206","1648.90977812","3.6453499794","1652.71204305","5.4807009697","1658.19278812","0.519299030304","1658.76316309","1660.51359105","1660.59757304","1663.60058904","0","1663.61517215","1669.88651299",""
"sujeto_225a39e1","1","3","3","67","1670.03323793","direct","4","1","3","¿Cuál es el país con 
mayor población?","Esados Unidos","China","right","0","0","1","competitive","right","1.35662794113","1671.38993597","3.64337205887","1675.19101214","4.93574714661","1680.12682009","1.06425285339","1681.24286699","1682.88890004","1682.95970893","1685.96264005","1","1685.97703314","1689.344383",""
"sujeto_225a39e1","1","3","4","68","1689.47958612","inverse","1","1","1","La palabra dinosaurio significa","Lagarto Terrible","Lagarto Dragón","","1","1","0","competitive","","2.68365001678","1692.16334701","2.31634998322","1694.65074015","6","1700.65088606","0","1700.66973805","1701.84003901","1701.91993403","1704.92287993","0","1704.93746114","1707.79928112",""
"sujeto_225a39e1","1","3","5","69","1707.93909407","direct","2","1","3","¿Qué es el membrillero?","Arbol","Arbusto","","0","0","0","competitive","left","2.10870909691","1710.04786396","2.89129090309","1713.09455013","3.55318593979","1716.64776111","2.44681406021","1719.14509702","1721.09921813","1721.18021107","1724.18318605","0","1724.19751596","1730.66157293",""
"sujeto_225a39e1","1","3","6","70","1730.79869699","inverse","3","1","3","¿Alrededor de qué planeta orbita 
el satélite Europa?","Jupiter","Saturno","","1","1","1","competitive","left","1.78806591034","1732.58680511","3.21193408966","1735.96621704","5.48645591736","1741.45272803","0.513544082642","1742.02040815","1743.56521297","1743.63644814","1746.63943601","1","1746.65413809","1748.85930705",""
"sujeto_225a39e1","1","3","7","71","1749.00568604","direct","3","1","1","¿Donde fue el mundial de 
fútbol de 1954?","Suiza","Suecia","","1","1","1","competitive","right","3.99612188339","1753.00185013","1.00387811661","1754.16562104","4.98010897636","1759.14577007","1.01989102364","1760.20055795","1761.45316505","1761.53456116","1764.53757405","1","1764.55115199","1768.46288204",""
"sujeto_225a39e1","1","3","8","72","1768.60298896","inverse","1","1","4","¿Cuál de los 7 enanitos
no tenía barba?","Bashful","Mudito","","1","1","0","competitive","left","1.70080900192","1770.30383897","3.29919099808","1773.77321601","5.68057990074","1779.45383406","0.319420099258","1779.81155705","1781.39164495","1781.47793913","1784.48092604","1","1784.49516892","1789.424263",""
"sujeto_225a39e1","1","3","9","73","1789.56360507","direct","3","1","2","¿Cual red social es
mas utilizada mundialmente?","Instagram","Facebook","","1","1","0","competitive","right","1.36224508286","1790.92589211","3.63775491714","1794.70255995","4.46821498871","1799.17081809","1.53178501129","1800.75373507","1802.67112303","1802.754493","1805.75749493","1","1805.77220201","1808.70666599",""
"sujeto_225a39e1","1","3","10","74","1808.85701799","inverse","4","1","1","¿Cuándo se inició la copa
 América de fútbol?","1916","1923","","1","1","1","competitive","left","2.24675703049","1811.10381913","2.75324296951","1814.02716398","4.69462895393","1818.72183394","1.30537104607","1820.064533","1821.96168399","1822.04853296","1825.05157399","1","1825.06614208","1827.72226906",""
"sujeto_225a39e1","1","3","11","75","1827.86777401","direct","3","1","4","¿Cuántos presidentes de EEUU
han muerto asesinados?","3","4","","0","0","1","competitive","left","0.922088861465","1828.78990698","4.07791113853","1833.03856301","4.07824993134","1837.116853","1.92175006866","1839.07270503","1840.55664611","1840.64062715","1843.64361501","0","1843.65784597","1847.30195594",""
"sujeto_225a39e1","1","3","12","76","1847.44327497","inverse","2","1","4","¿Cuántas veces participó EEUU
 en la copa América?","4","5","","0","0","1","competitive","right","3.25652194023","1850.69984198","1.74347805977","1852.59888101","4.44388794899","1857.04283214","1.55611205101","1858.63410497","1860.07821703","1860.15308809","1863.15601897","0","1863.16938806","1869.28659797",""
"sujeto_225a39e1","1","3","13","77","1869.43771005","direct","4","1","1","¿Cuál de estos países 
no formaba la URSS?","Azeribayán","Afganistán","","0","0","1","competitive","right","2.59512281418","1872.0329361","2.40487718582","1874.60933614","5.01644396782","1879.62580514","0.983556032181","1880.66227412","1881.97535896","1882.06266403","1885.06561708","0","1885.08014202","1893.06229711",""
"sujeto_225a39e1","1","3","14","78","1893.21849513","inverse","1","1","1","¿En qué año se inauguró
 el teatro Solís?","1867","1856","","0","0","0","competitive","right","1.72034597397","1894.93891215","3.27965402603","1898.38885903","4.65392780304","1903.04285312","1.34607219696","1904.44083595","1905.49716306","1905.57483315","1908.57781911","0","1908.592448","1915.24026394",""
"sujeto_225a39e1","1","3","15","79","1915.376513","direct","1","1","4","¿A qué velocidad vuela 
el avión más rápido?","3529","3874","","0","0","0","competitive","left","2.71326780319","1918.08982396","2.28673219681","1920.53152108","4.52527499199","1925.05686307","1.47472500801","1926.58597708","1928.34094501","1928.41983414","1931.42281914","0","1931.4371891","1933.54746509",""
"sujeto_225a39e1","1","3","16","80","1933.68891001","inverse","3","1","4","¿De qué año es la primer 
película cinematográfica?","1897","1888","","0","0","0","competitive","right","1.56387400627","1935.25284815","3.43612599373","1938.84223604","4.64155697823","1943.48383713","1.35844302177","1944.87802196","1946.01102304","1946.09576511","1949.09873104","0","1949.11305308","1954.52283001",""
"sujeto_225a39e1","1","3","17","81","1954.66548896","direct","2","1","3","¿Cuántos países 
tiene nuestro planeta?","191","194","","1","1","1","competitive","right","3.1283390522","1957.79389405","1.8716609478","1959.8375051","4.990265131","1964.82782698","1.009734869","1965.88917613","1967.24639893","1967.32344794","1970.32564807","1","1970.34024906","1973.57859206",""
"sujeto_225a39e1","1","3","18","82","1973.70883512","inverse","2","1","2","¿Cuántos habitantes
 tiene Buenos Aires?","2.9000.000","3650000","","0","0","0","competitive","left","2.32402515411","1976.03290796","2.67597484589","1978.86434603","3.13139796257","1981.99580812","2.86860203743","1984.9147191","1986.31197906","1986.38309908","1989.38565302","0","1989.40031195","1995.22967696",""
"sujeto_225a39e1","1","3","19","83","1995.36903095","direct","2","1","1","¿Cuántos kilos forman una tonelada?","1000","1500","left","1","1","1","competitive","left","2.11181712151","1997.48089099","2.88818287849","2000.52427602","3.67348885536","2004.19782996","2.32651114464","2006.57627892","2008.46269011","2008.54434395","2011.54732895","1","2011.56161213","2017.51903605",""
"sujeto_225a39e1","1","3","20","84","2017.66398811","inverse","4","1","4","¿Cuántos estados tiene la 
República del Perú? ","24","23","","0","0","1","competitive","right","2.00782799721","2019.67185998","2.99217200279","2022.81816411","5.12866616249","2027.94689202","0.871333837509","2028.85410094","2029.87628794","2029.95493698","2032.95792508","0","2032.97221708","2037.91759396",""
"sujeto_225a39e1","1","3","21","85","2038.0569241","direct","3","1","3","¿En qué año nació Cristóbal Colón? ","1451","1447","","0","0","1","competitive","left","2.36586809158","2040.42283511","2.63413190842","2043.24705601","4.20872187614","2047.45583701","1.79127812386","2049.29876494","2051.14467096","2051.23347998","2054.23650193","0","2054.25118494","2058.479182",""
"sujeto_225a39e1","1","3","22","86","2058.61894011","inverse","4","1","4","¿Cuánto mide la 
Montaña Aconcagua? ","6234","6962","","0","0","1","competitive","right","3.80894804001","2062.42796397","1.19105195999","2063.77386999","4.37701201439","2068.15092301","1.62298798561","2069.80899715","2071.09835911","2071.19379497","2074.19674897","0","2074.21051311","2081.394171",""
"sujeto_225a39e1","1","3","23","87","2081.54392505","direct","2","1","4","¿Cuánto mide el punto
 más profundo del océano? ","12508","11003","","0","0","1","competitive","left","1.17194581032","2082.71595216","3.82805418968","2086.71992993","4.19988298416","2090.91985297","1.80011701584","2092.77099705","2094.02251816","2094.10521698","2097.10820508","0","2097.12258196","2101.32885814",""
"sujeto_225a39e1","1","3","24","88","2101.4741621","inverse","1","1","3","¿Cuántos álbumes ha publicado 
el cantante Jaime Roos? ","41","34","","0","0","1","competitive","right","1.59077191353","2103.06498408","3.40922808647","2106.62761307","5.18515086174","2111.81282902","0.81484913826","2112.68116713","2114.17102313","2114.24820995","2117.25118899","0","2117.2654891","2123.46163106",""
"sujeto_225a39e1","1","3","25","89","2123.59968495","direct","4","1","3","¿En qué año nació el 
ex-presidente Jorge Battle? ","1921","1927","","1","1","1","competitive","","3.32216906548","2126.92189813","1.67783093452","2128.75753212","6","2134.75766206","0","2134.777807","2136.50850916","2136.59384203","2139.59467697","0","2139.61143899","2143.09750295",""
"sujeto_225a39e1","1","3","26","90","2143.22980595","inverse","1","1","3","¿Cuántas presidencias 
constitucionales  hubo en Uruguay? ","41","42","","0","0","1","competitive","left","1.05697894096","2144.28682709","3.94302105904","2148.38474393","4.21007704735","2152.59486008","1.78992295265","2154.41884112","2155.62262797","2155.70338511","2158.70636106","0","2158.72106409","2164.50467896",""
"sujeto_225a39e1","1","3","27","91","2164.6555531","direct","1","1","2","¿Quién escribió mas sinfonías?","Mozart","Haydn","","1","1","0","competitive","left","1.91736102104","2166.57296205","3.08263897896","2169.82756805","4.34522080421","2174.17284703","1.65477919579","2175.86431098","2177.08177495","2177.1647501","2180.16768694","1","2180.18212199","2183.93360615",""
"sujeto_225a39e1","1","3","28","92","2184.08339596","inverse","4","1","2","¿En qué año nació Michael Jackson?","1958","1953","","1","1","1","competitive","right","2.59743595123","2186.68087411","2.40256404877","2189.25406504","4.4737508297","2193.72785711","1.5262491703","2195.30487299","2197.28310704","2197.372401","2200.37538409","1","2200.38990593","2206.24939609",""
"sujeto_225a39e1","1","3","29","93","2206.40814805","direct","3","1","2","¿En qué año entró en vigencia 
la ley antitabaco en Uruguay?","2005","2006","","1","1","1","competitive","right","2.49855780602","2208.90674806","2.50144219398","2211.56790304","4.92983388901","2216.49777198","1.07016611099","2217.60243416","2219.19719195","2219.26965809","2222.27265716","1","2222.28735709","2227.62135816",""
"sujeto_225a39e1","1","3","30","94","2227.75582814","inverse","3","1","1","¿Cuándo se subió el 
primer video a youtube?","2004","2005","","0","0","1","competitive","left","2.09200716019","2229.84790015","2.90799283981","2232.91191506","3.42797899246","2236.33995295","2.57202100754","2238.94575906","2240.25142908","2240.33114815","2243.33412504","0","2243.34754801","2251.10318112",""
"sujeto_225a39e1","1","3","31","95","2251.24897695","direct","2","1","1","¿Cuántos habitantes tiene India?","1200 millones","1300 millones","","0","0","0","competitive","right","1.55185890198","2252.80087996","3.44814109802","2256.40501308","4.24387121201","2260.64892316","1.75612878799","2262.44127297","2264.41091204","2264.49222112","2267.49521112","0","2267.50956106","2273.55708098",""
"sujeto_225a39e1","1","3","32","96","2273.71132708","inverse","4","1","2","¿A qué edad murió Bob Marley?","36","37","","0","0","1","competitive","right","1.7595281601","2275.47091699","3.2404718399","2278.86803007","4.24184298515","2283.10993409","1.75815701485","2284.92009997","2286.81797004","2286.90427208","2289.90725994","0","2289.9216671","2293.02412915",""
"sujeto_225a39e1","1","4","1","97","2427.30989313","direct","2","1","1","¿Cuantos años dirigió la selección 
uruguaya Tabarez?","15 años","13 años","","0","0","0","competitive","left","1.39495897293","2428.70491505","3.60504102707","2432.464293","5.0855948925","2437.54995108","0.914405107498","2438.51570702","2439.70687103","2439.78280711","2442.78576493","0","2442.80075192","2449.87277198","2293.04011393"
"sujeto_225a39e1","1","4","2","98","2450.01792192","inverse","4","1","1","¿Cuantas teclas tiene un teclado 
de computadora generalmente? ","Entre 99 y 108","Entre 109 y 113","","1","1","1","competitive","left","2.29589390755","2452.31385803","2.70410609245","2455.20788813","3.54103899002","2458.74897313","2.45896100998","2461.26002598","2462.26274109","2462.34544802","2465.34842205","1","2465.36265612","2467.73408794",""
"sujeto_225a39e1","1","4","3","99","2467.86332393","direct","1","1","1","¿Cuál Departamento tiene
 mayor superficie?","Río Negro","Soriano","","0","0","0","competitive","right","2.00160598755","2469.86497808","2.99839401245","2473.01784205","3.87300086021","2476.89088416","2.12699913979","2479.06863713","2480.78212214","2480.85276794","2483.85570908","0","2483.87124515","2488.19732904",""
"sujeto_225a39e1","1","4","4","100","2488.33858395","inverse","3","1","2","¿Cuál es el apellido de las 
hermanastras  de  cenicienta?","Tremaine","Truman","","0","0","1","competitive","left","1.85628604889","2490.19493294","3.14371395111","2493.51327896","4.73553609848","2498.24885416","1.26446390152","2499.56281495","2501.43164611","2501.51416302","2504.51713896","0","2504.53092694","2507.22685313",""
"sujeto_225a39e1","1","4","5","101","2507.36663914","direct","4","1","4","¿Cuál película ganó un
 Oscar a mejor película?","Alto Impacto","Cache","","0","0","1","competitive","left","2.01525402069","2509.38196015","2.98474597931","2512.52219296","4.44366407394","2516.96591711","1.55633592606","2518.55701303","2519.67639804","2519.75798297","2522.76097393","0","2522.77544308","2525.04007316",""
"sujeto_225a39e1","1","4","6","102","2525.17599893","inverse","1","1","3","¿A cuántos centímetros
equivale la medida pié?","25","30","","0","0","1","competitive","left","1.50388097763","2526.67992496","3.49611902237","2530.32450104","4.36530900002","2534.68986607","1.63469099998","2536.36052299","2537.39967513","2537.47846699","2540.48146296","0","2540.49514198","2545.89611101",""
"sujeto_225a39e1","1","4","7","103","2546.03012109","direct","2","1","2","¿Qué departamento es mas grande?","Cerro Largo","Paysandú","","0","0","0","competitive","left","1.46569919586","2547.49588299","3.53430080414","2551.19244599","4.0804169178","2555.27292204","1.9195830822","2557.24256611","2558.84233308","2558.92678809","2561.92965293","0","2561.94436693","2566.05433607",""
"sujeto_225a39e1","1","4","8","104","2566.19592595","inverse","2","1","3","¿Quién pintó la Mona Lisa?","Picasso","Da Vinci","right","0","0","1","competitive","left","2.56399703026","2568.76003909","2.43600296974","2571.36770201","3.84611701965","2575.21387601","2.15388298035","2577.40347409","2579.00934696","2579.08862901","2582.09070015","0","2582.10625505","2584.26672316",""
"sujeto_225a39e1","1","4","9","105","2584.42397404","direct","4","1","3","¿Cuántos litros hay en un galon?","3.54","3.78","","1","1","1","competitive","right","1.7168879509","2586.14090514","3.2831120491","2589.58048797","4.32135891914","2593.90188694","1.67864108086","2595.62801909","2597.14592505","2597.22840405","2600.23064208","1","2600.24615812","2606.03851509",""
"sujeto_225a39e1","1","4","10","106","2606.18079615","inverse","4","1","1","¿Cuántas teclas tiene
 un piano moderno?","80","88","","0","0","1","competitive","left","1.96108913422","2608.14200807","3.03891086578","2611.35595012","4.16292214394","2615.51893115","1.83707785606","2617.38808393","2618.39654207","2618.47321296","2621.47621202","0","2621.48981214","2628.28754616",""
"sujeto_225a39e1","1","4","11","107","2628.44529414","direct","4","1","3","¿Cuántos países hay en África?","54","62","","0","0","1","competitive","left","2.32157993317","2630.76694393","2.67842006683","2633.60151601","5.2843580246","2638.88594103","0.715641975403","2639.653301","2641.34383798","2641.42065597","2644.42364907","0","2644.43735814","2652.23474908",""
"sujeto_225a39e1","1","4","12","108","2652.38941813","inverse","1","1","3","¿En qué siglo se crearon
 las primeras pistolas?","XV","XIII","","1","1","1","competitive","left","1.13046216965","2653.51995516","3.86953783035","2657.54658914","3.73626494408","2661.28291512","2.26373505592","2663.59716606","2665.54507899","2665.63206911","2668.63505602","1","2668.64952207","2671.88266015",""
"sujeto_225a39e1","1","4","13","109","2672.03464103","direct","3","1","4","¿En qué año se estrenó 
la serie friends?","1994","1995","","0","0","1","competitive","right","2.81525993347","2674.84994602","2.18474006653","2677.18923211","4.33563303947","2681.52492595","1.66436696053","2683.24202299","2685.11736894","2685.19278598","2688.19572806","0","2688.20996094","2693.21603394",""
"sujeto_225a39e1","1","4","14","110","2693.36197305","inverse","3","1","4","¿En qué año nació Hitler?","1889","1887","","0","0","1","competitive","right","1.41582489014","2694.77783608","3.58417510986","2698.51706505","4.06876683235","2702.5858891","1.93123316765","2704.56746101","2705.68182516","2705.75357199","2708.75660205","0","2708.77019596","2713.79718614",""
"sujeto_225a39e1","1","4","15","111","2713.93835306","direct","1","1","4","¿Cuánto pesa un elefante Africano?","6000 kilos","5400 kilos","","0","0","0","competitive","left","3.08455300331","2717.02297211","1.91544699669","2719.11179399","3.76606798172","2722.87792015","2.23393201828","2725.162925","2726.51880813","2726.59710097","2729.60009193","0","2729.61480713","2736.32187605",""
"sujeto_225a39e1","1","4","16","112","2736.46530294","inverse","1","1","2","¿Qué porcentaje de 
la población es zurda?","10%","7%","","1","1","0","competitive","left","1.77255296707","2738.237921","3.22744703293","2741.62321997","4.33963704109","2745.96292114","1.66036295891","2747.67423105","2748.9173491","2748.99170399","2751.99469805","1","2752.00893211","2757.98867893",""
"sujeto_225a39e1","1","4","17","113","2758.12694597","direct","1","1","2","¿En qué año se estrenó
Volver al futuro?","1984","1985","","0","0","1","competitive","right","1.47493386269","2759.60194612","3.52506613731","2763.26778007","4.58507394791","2767.85289216","1.41492605209","2769.31922793","2770.88072395","2770.95317101","2773.95613003","0","2773.97065997","2781.06211615",""
"sujeto_225a39e1","1","4","18","114","2781.20547199","inverse","3","1","2","¿Cuántos jugadores hay en un 
equipo de baseball?","9","8","","1","1","0","competitive","right","2.45566701889","2783.66120505","2.54433298111","2786.36295295","5.00897598267","2791.37199593","0.991024017334","2792.39778304","2794.01206708","2794.098032","2797.10100603","1","2797.11514211","2802.09238505",""
"sujeto_225a39e1","1","4","19","115","2802.23372412","direct","2","1","1","¿Cuántos Oscar ganó
 la película titanic?","13","11","","1","1","1","competitive","left","1.9841401577","2804.21792793","3.0158598423","2807.390347","3.36950397491","2810.75991011","2.63049602509","2813.440907","2814.742975","2814.82598805","2817.82898498","1","2817.84298801","2822.44566011",""
"sujeto_225a39e1","1","4","20","116","2822.59437013","inverse","4","1","4","¿En qué año comenzó
la segunda guerra mundial?","1939","1976","left","0","0","1","competitive","right","1.80452489853","2824.39896297","3.19547510147","2827.78298497","4.24291801453","2832.02594399","1.75708198547","2833.81877303","2835.61866093","2835.70371795","2838.70669603","0","2838.72039294","2842.70759296",""
"sujeto_225a39e1","1","4","21","117","2842.85530496","direct","2","1","4","¿Cuántos biomas hay en Uruguay?","5","4","","0","0","1","competitive","left","3.19861698151","2846.05396914","1.80138301849","2848.01049995","4.16130304337","2852.17184114","1.83869695663","2854.04529405","2855.84270096","2855.91277599","2858.91573215","0","2858.93103099","2865.18044615",""
"sujeto_225a39e1","1","4","22","118","2865.31477094","inverse","2","1","3","¿Cuándo murió Pablo Escobar?","1993","1997","","1","1","1","competitive","left","1.04416298866","2866.35898209","3.95583701134","2870.46767712","4.82217717171","2875.28991914","1.17782282829","2876.52067995","2878.30353212","2878.38860893","2881.39161515","1","2881.40623093","2887.10687804",""
"sujeto_225a39e1","1","4","23","119","2887.25738502","direct","1","1","4","¿Qué serie ha ganado mas premios?","Friends","Murphy Brown","","1","1","0","competitive","left","1.87354707718","2889.13105798","3.12645292282","2892.43291211","4.36100316048","2896.79395795","1.63899683952","2898.46905208","2899.82146502","2899.90306401","2902.90605307","1","2902.9208231","2908.48245001",""
"sujeto_225a39e1","1","4","24","120","2908.63938212","inverse","4","1","2","¿Cuántas fichas tiene el dominó?","26","28","","1","1","1","competitive","left","2.75250601768","2911.39195299","2.24749398232","2913.81145716","4.17442798615","2917.98594809","1.82557201385","2919.86389399","2920.91922903","2920.99752498","2924.000525","1","2924.01395893","2929.25707507",""
"sujeto_225a39e1","1","4","25","121","2929.39941597","direct","2","1","4","¿Cuántos son los dientes de leche?","20","25","","0","0","1","competitive","left","1.00048708916","2930.39997411","3.99951291084","2934.55637193","4.63254308701","2939.1889751","1.36745691299","2940.60737896","2942.31772614","2942.40773606","2945.41070199","0","2945.42593503","2947.57163215",""
"sujeto_225a39e1","1","4","26","122","2947.71040702","inverse","3","1","3","¿Cuántos gramos son una onza?","22","28","","0","0","1","competitive","left","1.69453287125","2949.40498495","3.30546712875","2952.86625314","4.45356893539","2957.31988597","1.54643106461","2958.91373706","2960.9085691","2960.98177099","2963.98473716","0","2963.99938202","2970.28965211",""
"sujeto_225a39e1","1","4","27","123","2970.43415999","direct","3","1","1","¿Cuándo salió el primer album
 de los Beatles?","1963","1962","","1","1","1","competitive","right","1.79066896439","2972.22488308","3.20933103561","2975.59409094","4.65877890587","2980.25292897","1.34122109413","2981.62798095","2982.79163003","2982.86233211","2985.86531806","1","2985.88005304","2989.65209508",""
"sujeto_225a39e1","1","4","28","124","2989.78136802","inverse","3","1","3","¿Quién fundó la empresa apple?","Carlos Slim","Steve Jobs","","1","1","1","competitive","right","1.72556686401","2991.50699997","3.27443313599","2994.93714404","3.98876786232","2998.9259541","2.01123213768","3000.98832798","3002.10300803","3002.18940306","3005.19236207","1","3005.20676303","3011.50464606",""
"sujeto_225a39e1","1","4","29","125","3011.64095902","direct","4","1","2","¿Cuántos municipios hay
 en Montevideo?","8","7","","1","1","1","competitive","left","1.74191594124","3013.38292003","3.25808405876","3016.79925203","3.3816409111","3020.180933","2.6183590889","3022.84882808","3024.76360512","3024.85019803","3027.85071301","1","3027.86790895","3029.9490571",""
"sujeto_225a39e1","1","4","30","126","3030.10251498","inverse","1","1","1","¿Cuántos kilómetros hay
 de Montevideo a Artigas?","632","599","","0","0","0","competitive","left","2.08829402924","3032.19086504","2.91170597076","3035.27407408","4.57876610756","3039.85287905","1.42123389244","3041.30984592","3042.79298806","3042.87637901","3045.87932801","0","3045.89395905","3051.94609213",""
"sujeto_225a39e1","1","4","31","127","3052.07897615","direct","2","1","2","¿En qué año nació 
Leonardo Da Vinci?","1452","1511","","1","1","0","competitive","right","1.80594491959","3053.88496399","3.19405508041","3057.23591495","5.38392591476","3062.61989999","0.616074085236","3063.28742313","3065.14103603","3065.22136712","3068.22435808","1","3068.23925805","3071.38569593",""
"sujeto_225a39e1","1","4","32","128","3071.52325702","inverse","3","1","1","¿A qué continente
 pertenece el país Gabón?","Africa","Oceanía","","0","0","1","competitive","left","1.48265790939","3073.00595808","3.51734209061","3076.67951393","4.45937013626","3081.1389451","1.54062986374","3082.71346903","3084.52509809","3084.59768796","3087.60067916","0","3087.61496806","3092.85280609",""
