"code","nro_aplicante","nro_bloque","nro_trial_bloque","nro_trial_global","show_game_type","choice_order","rival","pay_individual","pay_competitive","question","answer_left_text","answer_right_text","correct_answer","outcome_individual","outcome_competitive","outcome_rival","game_type","answer","social_time","rt_game_type","feedback_delay","show_question","answer_time","rt_answer_global","feedback_delay_2","show_jitter","jitter_time","show_outcome","outcome_time","outcome_participant_real","show_final_jitter","second_jitter_time","inicio_descanso"
"sujeto_9ae17e76","1","1","1","1","667.801641941","direct","3","1","4","¿Cuántos centímetros corresponden
al talle 36 del calzado?","23","24","","0","0","1","competitive","right","2.41406607628","670.215749979","2.58593392372","672.989340067","5.68237113953","678.671781063","0.317628860474","679.027544975","680.055795908","680.127583027","683.130529881","0","683.144911051","685.307470083",""
"sujeto_9ae17e76","1","1","2","2","685.446880102","inverse","3","1","2","¿Cuántas metros mide la Intendencia
Municipal de Montevideo? ","84","78","","0","0","1","competitive","right","2.14186310768","687.588810921","2.85813689232","690.601466894","5.04018998146","695.641716957","0.959810018539","696.653444052","698.531501055","698.6036551","701.606580973","0","701.620798111","703.713551044",""
"sujeto_9ae17e76","1","1","3","3","703.855705976","direct","1","1","3","¿Cuántas La Pasiva
 hay en uruguay?","15","11","","1","1","1","competitive","left","1.73199081421","705.587759018","3.26800918579","709.010276079","3.37345004082","712.383785963","2.62654995918","715.061295033","716.672926903","716.745305061","719.748301983","1","719.762351036","724.040646076",""
"sujeto_9ae17e76","1","1","4","4","724.183515072","inverse","3","1","3","¿De que color es la camiseta de uruguay?","blanca","celeste","right","1","1","1","individual","right","1.84514498711","726.028723955","3.15485501289","729.354453087","3.31013202667","732.66463995","2.68986797333","735.405452013","736.610193968","736.657012939","739.659943104","1","739.674056053","743.127934933",""
"sujeto_9ae17e76","1","1","5","5","743.275259972","direct","2","1","1","¿Cuánto metros mide
la torre Eiffel?","333","324","","1","1","1","competitive","right","1.67250585556","744.947832108","3.32749414444","748.413695097","3.71902608871","752.132781029","2.28097391129","754.464909077","755.986298084","756.066200018","759.069175959","1","759.083409071","766.117589951",""
"sujeto_9ae17e76","1","1","6","6","766.2845819","inverse","3","1","4","¿Cuantas ciudades existen
 en todo el uruguay?","63","72","","0","0","1","competitive","left","2.24311304092","768.527765989","2.75688695908","771.442256927","4.86244893074","776.304750919","1.13755106926","777.477248907","778.532041073","778.610591888","781.613538027","0","781.628900051","789.255496979",""
"sujeto_9ae17e76","1","1","7","7","789.396277905","direct","1","1","1","¿Cuantos estados tiene África?","52","54","","1","1","0","competitive","right","1.55741596222","790.953757048","3.44258403778","794.554055929","4.04061698914","798.59471488","1.95938301086","800.605021954","802.469026089","802.539825916","805.542807102","1","805.55684495","811.317837954",""
"sujeto_9ae17e76","1","1","8","8","811.477355957","inverse","4","1","4","¿En qué año nació
 Stephen Hawking?","1952","1942","","0","0","1","individual","right","1.73330402374","813.210726976","3.26669597626","816.648731947","3.37797188759","820.026771069","2.62202811241","822.682564974","824.125618935","824.167377949","827.170316935","0","827.185357094","833.284702063",""
"sujeto_9ae17e76","1","1","9","9","833.420058966","direct","2","1","3","¿Cuánto años tenía Artigas
 cuando se fue a Paraguay?","56","57","","1","1","1","competitive","right","1.68578386307","835.10591507","3.31421613693","838.57691288","4.86678099632","843.443734884","1.13321900368","844.627448082","846.176915884","846.261313915","849.261590958","1","849.280167103","855.325606108",""
"sujeto_9ae17e76","1","1","10","10","855.465833902","inverse","1","1","2","¿Cuantos milímetros 
mide una hoja A2?","420x592","420x594","","0","0","1","competitive","","1.28089594841","856.746773958","3.71910405159","860.605001926","6","866.605122089","0","866.620800018","868.189225912","868.274481058","871.277462959","0","871.291145086","878.361578941",""
"sujeto_9ae17e76","1","1","11","11","878.509176016","direct","3","1","3","¿Cuál es la menor temperatura 
registrada en Uruguay?","-5.4","-7.4","","0","0","1","competitive","right","1.62945914268","880.138669968","3.37054085732","883.667433023","4.2281961441","887.895685911","1.7718038559","889.701704979","891.383724928","891.452425957","894.455410004","0","894.46972394","898.201812029",""
"sujeto_9ae17e76","1","1","12","12","898.354568005","inverse","2","1","2","¿Cuantos años hace que 
se fundó facebook?","18","17","","0","0","0","competitive","left","1.47919797897","899.833834887","3.52080202103","903.510102987","4.32456088066","907.834719896","1.67543911934","909.545337915","910.91804409","910.996469975","913.999459982","0","914.013576984","916.788211107",""
"sujeto_9ae17e76","1","1","13","13","916.931802034","direct","1","1","4","¿Cuál animal es más
 pesado en promedio?","Rinoceronte","Hipopotamo","","0","0","0","competitive","right","1.44194507599","918.373790979","3.55805492401","922.084928989","4.44278883934","926.527784109","1.55721116066","928.120218039","929.199476957","929.270240068","932.270823956","0","932.287225008","936.128226042",""
"sujeto_9ae17e76","1","1","14","14","936.305756092","inverse","1","1","2","¿Qué personaje de dragon ball 
murió más veces?","Chaoz","Krillin","","1","1","0","competitive","right","1.03902816772","937.344858885","3.96097183228","941.463401079","5.47032213211","946.933784008","0.529677867889","947.515001059","948.972826958","949.048866987","952.051839113","1","952.06545496","959.837609053",""
"sujeto_9ae17e76","1","1","15","15","959.967438936","direct","3","1","2","La universidad de oxford. 
existe desde:","1096","1249","","1","1","0","competitive","right","1.99839091301","961.965905905","3.00160908699","965.124049902","4.06566905975","969.18978405","1.93433094025","971.159734011","972.208534956","972.294312954","975.297290087","1","975.311495066","982.002367973",""
"sujeto_9ae17e76","1","1","16","16","982.179219961","inverse","3","1","1","¿Qué escritor latino ganó antes
 el premio nobel?"," García Marquez","Neruda","","0","0","1","individual","left","2.11151194572","984.290796041","2.88848805428","987.353790045","3.06089401245","990.414725065","2.93910598755","993.404356956","995.144367933","995.188925982","998.189582109","0","998.206724882","1001.66724992",""
"sujeto_9ae17e76","1","1","17","17","1001.84183097","direct","4","1","3","¿Cuántos dientes tiene un
 tiburón blanco?","6000","3000","","0","0","1","individual","right","1.93395400047","1003.77583098","3.06604599953","1007.01371193","3.15492606163","1010.168679","2.84507393837","1013.06469107","1014.10369492","1014.14894509","1017.15192103","0","1017.1664989","1021.97617507",""
"sujeto_9ae17e76","1","1","18","18","1022.11803889","inverse","4","1","1","¿Cuánto mide el paralelo Ecuador?","40.000km","70.000km","","0","0","1","individual","right","1.7226691246","1023.84077406","3.2773308754","1027.25820303","3.93549799919","1031.19377208","2.06450200081","1033.30870295","1035.26483297","1035.31021309","1038.31317711","0","1038.32708907","1041.92961311",""
"sujeto_9ae17e76","1","1","19","19","1042.06195307","direct","4","1","2","¿Cuál fue el primer libro 
de Stephen King?","Carrie","The Stand","","1","1","1","competitive","left","1.80275702477","1043.86475706","3.19724297523","1047.23527408","3.75541305542","1050.9907279","2.24458694458","1053.2853601","1055.02948308","1055.10353899","1058.10652089","1","1058.12094307","1062.59534597",""
"sujeto_9ae17e76","1","1","20","20","1062.73888588","inverse","2","1","3","¿Qué civilización practicaba
 la momificación?","Grecia","Egipto","right","0","0","1","competitive","left","1.25379991531","1063.99273491","3.74620008469","1067.89075589","4.27796792984","1072.16876507","1.72203207016","1073.92574096","1075.86501288","1075.9438529","1078.94683099","0","1078.96116495","1083.18995905",""
"sujeto_9ae17e76","1","1","21","21","1083.3294301","direct","4","1","4","¿Cuántos millones de visitas
 recibe google por minuto?","3.0","4.5","","0","0","1","individual","left","1.99733805656","1085.32681203","3.00266194344","1088.48792696","3.57780003548","1092.065768","2.42219996452","1094.53798199","1096.05287504","1096.08905196","1099.092031","0","1099.10622096","1106.228899",""
"sujeto_9ae17e76","1","1","22","22","1106.3575561","inverse","1","1","3","La máquina de fax. se inventó en:","1843","1960","","0","0","1","competitive","left","1.35711312294","1107.71472692","3.64288687706","1111.50016499","2.97158288956","1114.47178602","3.02841711044","1117.55124211","1118.79335093","1118.8687129","1121.87162995","0","1121.88604307","1125.12158895",""
"sujeto_9ae17e76","1","1","23","23","1125.2714231","direct","2","1","4","En la verdadera historia de los
 300 espartanos. habían:","300 soldados","4300 soldados","","1","1","1","competitive","left","1.38232493401","1126.65381908","3.61767506599","1130.42686296","4.07285284996","1134.49977803","1.92714715004","1136.4787221","1137.73995304","1137.81265306","1140.81557989","1","1140.82956195","1144.63132191",""
"sujeto_9ae17e76","1","1","24","24","1144.81518507","inverse","1","1","4","¿Cuántos milímetros crece
 el pelo por día?","0.4","0.04","","0","0","0","competitive","left","1.38252615929","1146.19777393","3.61747384071","1149.96893907","4.04274296761","1154.01172209","1.95725703239","1156.00043511","1157.76114798","1157.83513188","1160.83809805","0","1160.85247803","1167.58755088",""
"sujeto_9ae17e76","1","1","25","25","1167.73749089","direct","4","1","1","¿Cuánto mide la baldosa gris 
clásica de Montevideo?","22x22 cm.","20x20 cm.","","1","1","1","individual","right","2.28826403618","1170.02579999","2.71173596382","1172.89907193","4.44567704201","1177.34481096","1.55432295799","1178.95059609","1180.94585609","1180.98470592","1183.98765111","1","1184.00291991","1189.54569793",""
"sujeto_9ae17e76","1","1","26","26","1189.68724799","inverse","2","1","2","¿Cuántas películas de rápidos
 y furiosos hay?","10","11","","1","1","0","competitive","left","1.85952091217","1191.54681706","3.14047908783","1194.86040807","3.47028303146","1198.33073092","2.52971696854","1200.91164494","1202.2696569","1202.34612298","1205.34909892","1","1205.36245394","1207.39715695",""
"sujeto_9ae17e76","1","1","27","27","1207.53110003","direct","3","1","1","¿Cuántos masters 1000
 ganó Del Potro?","1","2","","1","1","1","individual","right","2.05660820007","1209.58775401","2.94339179993","1212.68692398","4.10688591003","1216.79387498","1.89311408997","1218.73715806","1220.49171495","1220.53790903","1223.54082394","1","1223.55522108","1230.95156693",""
"sujeto_9ae17e76","1","1","28","28","1231.09022903","inverse","2","1","4","¿Cuántos meses dura el 
embarazo de una leona?","3 meses","4 meses","","0","0","1","competitive","right","1.51259207726","1232.60288811","3.48740792274","1236.24362111","4.77914714813","1241.02283001","1.22085285187","1242.27925301","1243.38962007","1243.46373892","1246.46563196","0","1246.48096991","1253.20158005",""
"sujeto_9ae17e76","1","1","29","29","1253.33199501","direct","1","1","1","¿En qué año fue creado
 el sandwich?","1762","1653","","1","1","0","competitive","right","1.41280198097","1254.7448411","3.58719801903","1258.47661495","3.78213596344","1262.258811","2.21786403656","1264.5273881","1266.12595701","1266.21170592","1269.21466208","1","1269.22899294","1272.69762993",""
"sujeto_9ae17e76","1","1","30","30","1272.83178997","inverse","4","1","2","El nombre de la moneda de Vietnam es:","Dinar","Dong","","0","0","1","competitive","left","2.57395601273","1275.40580797","2.42604398727","1277.98594499","4.08878302574","1282.07479811","1.91121697426","1284.03839707","1285.46959996","1285.55562091","1288.55859709","0","1288.57335901","1294.74173188",""
"sujeto_9ae17e76","1","1","31","31","1294.87403011","direct","2","1","1","¿cuantos aleteos puede dar 
un colibrí por segundo?","120","50","","0","0","0","competitive","right","2.29369187355","1297.16776609","2.70630812645","1300.03098488","5.3106970787","1305.34173989","0.689302921295","1306.06699204","1307.79938006","1307.88329291","1310.88626504","0","1310.90089989","1315.11315489",""
"sujeto_9ae17e76","1","1","32","32","1315.30311298","inverse","4","1","3","¿Qué altura promedio tienen
 los hombres uruguayos?","1.73 m","1.72 m","","1","1","1","competitive","left","2.45960116386","1317.76277208","2.54039883614","1320.472085","3.71268296242","1324.18482709","2.28731703758","1326.52258992","1327.78499699","1327.85737109","1330.85760593","1","1330.87697506","1335.352911",""
"sujeto_9ae17e76","1","2","1","33","1469.09586692","direct","1","1","1","¿En qué año nació 
el actor Bradd Pitt?","1967","1963","","1","1","1","competitive","left","3.11190485954","1472.20783401","1.88809514046","1474.25408697","4.14466786385","1478.39879799","1.85533213615","1480.28946495","1481.38535094","1481.4566071","1484.45957589","1","1484.47374201","1490.39761996","1335.36783099"
"sujeto_9ae17e76","1","2","2","34","1490.54140592","inverse","2","1","1","¿Cual es el segundo 
monte más alto?","Kanchenjunga","K2","","1","1","1","competitive","left","1.39034700394","1491.93179703","3.60965299606","1495.68196201","3.7908000946","1499.472826","2.2091999054","1501.73275208","1503.18516707","1503.26711988","1506.27009392","1","1506.28408289","1509.71396995",""
"sujeto_9ae17e76","1","2","3","35","1509.86881495","direct","3","1","1","¿Cuándo finalizó la construcción
 del Palacio Legislativo?","1925","1917","","0","0","1","competitive","right","1.19000291824","1511.05888605","3.80999708176","1515.04214311","3.63866496086","1518.68084788","2.36133503914","1521.09294391","1522.73362708","1522.81024194","1525.81322289","0","1525.82737303","1531.5249269",""
"sujeto_9ae17e76","1","2","4","36","1531.66321111","inverse","3","1","3","¿Cuántos integrantes tenía
 en su inicio  el cuarteto de nos?","3","4","","1","1","1","competitive","right","1.72460007668","1533.38786197","3.27539992332","1536.81962609","4.18810796738","1541.0077939","1.81189203262","1542.87079906","1544.00390196","1544.08903193","1547.09201193","1","1547.10528493","1552.75509906",""
"sujeto_9ae17e76","1","2","5","37","1552.89033794","direct","2","1","3","¿Qué valor tiene el número pi?","3.14","4.18","left","0","0","1","competitive","right","1.52743291855","1554.4178369","3.47256708145","1558.04700994","3.17884802818","1561.22592306","2.82115197182","1564.08106089","1565.53529191","1565.61564708","1568.61863494","0","1568.63359189","1575.55458403",""
"sujeto_9ae17e76","1","2","6","38","1575.6792469","inverse","2","1","2","¿Cuál es la esperanza de vida
 en Uruguay?","75","77","","1","1","0","competitive","right","1.43155694008","1577.11087489","3.56844305992","1580.84271908","3.26298499107","1584.10574102","2.73701500893","1586.87589788","1588.52956295","1588.61070299","1591.61363506","1","1591.62764812","1598.08960891",""
"sujeto_9ae17e76","1","2","7","39","1598.22940111","direct","1","1","2","¿Cuantos pisos tiene la torre 
de las comunicaciones?","26","32","","1","1","0","competitive","right","1.39935684204","1599.62883306","3.60064315796","1603.38613701","3.60367894173","1606.98986197","2.39632105827","1609.43604708","1611.26486206","1611.33754396","1614.34046507","1","1614.35568404","1616.50190806",""
"sujeto_9ae17e76","1","2","8","40","1616.65747595","inverse","2","1","4","¿En qué país sudamericano 
no hay McDonalds?","Bolivia","Venezuela","","0","0","1","competitive","left","1.20132088661","1617.85884309","3.79867911339","1621.81355691","4.34621191025","1626.15983009","1.65378808975","1627.86441302","1629.17358804","1629.24885798","1632.24963093","0","1632.26686001","1638.62660503",""
"sujeto_9ae17e76","1","2","9","41","1638.7676971","direct","3","1","1","¿En qué año empieza
 la Edad Media?","476","512","","1","1","1","competitive","left","1.62509989738","1640.39283895","3.37490010262","1643.90847397","3.56633996964","1647.47487807","2.43366003036","1649.95928788","1651.36299491","1651.44408703","1654.445575","1","1654.4607439","1657.44927311",""
"sujeto_9ae17e76","1","2","10","42","1657.57913399","inverse","3","1","4","¿Hace cuántos años surgió
 el ser humano?","200mil","300mil","","0","0","0","competitive","left","0.941686153412","1658.52088809","4.05831384659","1662.73108411","4.20667815208","1666.93782306","1.79332184792","1668.78378391","1670.66956091","1670.75164008","1673.75460505","0","1673.76912403","1677.07765794",""
"sujeto_9ae17e76","1","2","11","43","1677.22039199","direct","3","1","4","¿Cuántas cuadras tiene
 actualmente 18 de julio? ","36","33","","0","0","1","competitive","left","0.90443611145","1678.12487197","4.09556388855","1682.37743306","4.57337212563","1686.95086694","1.42662787437","1688.42896509","1690.13120794","1690.21268201","1693.21563506","0","1693.23097301","1697.95726395",""
"sujeto_9ae17e76","1","2","12","44","1698.0988121","inverse","1","1","4","¿Qué juego de equipo se 
considera mas rápido?","Lacrosse","Badminton","","0","0","0","competitive","right","1.29396104813","1699.3928349","3.70603895187","1703.23872805","4.57404208183","1707.81283808","1.42595791817","1709.27332401","1710.51641202","1710.5904181","1713.59341311","0","1713.60753798","1721.60162306",""
"sujeto_9ae17e76","1","2","13","45","1721.74257493","direct","1","1","3","¿Qué promedio de edad 
vive una jirafa? ","25","20","","0","0","1","competitive","right","1.10324192047","1722.84589291","3.89675807953","1726.90099096","3.88276982307","1730.78382707","2.11723017693","1732.95101404","1734.71254206","1734.78575706","1737.78870606","0","1737.80367494","1743.75938988",""
"sujeto_9ae17e76","1","2","14","46","1743.88790107","inverse","1","1","2","¿Cuántos grandes lagos hay?","7","5","","0","0","1","competitive","right","0.820857048035","1744.70882297","4.17914295197","1749.04401207","2.68570613861","1751.72977996","3.31429386139","1755.09546709","1756.387573","1756.46395588","1759.46694589","0","1759.48111892","1767.30161095",""
"sujeto_9ae17e76","1","2","15","47","1767.46585107","direct","3","1","2","¿Cuántos discos de estudio
 grabó Johhny Cash? ","54","43","","1","1","0","competitive","right","0.932001113892","1768.39790606","4.06799888611","1772.63907003","4.26069307327","1776.8998239","1.73930692673","1778.67405009","1779.95268989","1780.02446389","1783.02744198","1","1783.04182196","1789.68962193",""
"sujeto_9ae17e76","1","2","16","48","1789.82674408","inverse","4","1","1","¿Cuántos barrios tiene
 Montevideo? ","71","62","","0","0","1","individual","right","1.42905402184","1791.25587201","3.57094597816","1794.9859581","3.82581520081","1798.81181908","2.17418479919","1801.01984406","1802.02691603","1802.07125902","1805.07422495","0","1805.08745503","1810.54948497",""
"sujeto_9ae17e76","1","2","17","49","1810.70618391","direct","3","1","3","¿Qué edad tiene Homero Simpson?","36","42","","0","0","1","individual","right","0.528620958328","1811.23487592","4.47137904167","1815.86229706","3.75642704964","1819.61878991","2.24357295036","1821.913414","1823.2894721","1823.33198595","1826.33495688","0","1826.34862304","1830.73734593",""
"sujeto_9ae17e76","1","2","18","50","1830.88375306","inverse","4","1","2","¿Cuántos países con monarquía 
hay en europa actualmente? ","6","10","","1","1","1","individual","right","1.49401903152","1832.37781811","3.50598096848","1836.03697991","3.93681097031","1839.9738481","2.06318902969","1842.08940196","1843.52765107","1843.57386708","1846.57684398","1","1846.59109998","1852.74791694",""
"sujeto_9ae17e76","1","2","19","51","1852.89282799","direct","2","1","3","¿Cuántos capítulos de
 Friends existen? ","236","228","","1","1","1","competitive","left","1.15597200394","1854.04886794","3.84402799606","1858.03345799","3.53926086426","1861.57275605","2.46073913574","1864.08480906","1865.38973689","1865.4686389","1868.47160196","1","1868.48590207","1870.86154509",""
"sujeto_9ae17e76","1","2","20","52","1871.00542307","inverse","1","1","3","¿Cuántas óperas compuso Mozart? ","27","22","","1","1","1","competitive","right","1.41039299965","1872.41586399","3.58960700035","1876.17617202","3.38565993309","1879.56190205","2.61434006691","1882.22708607","1883.51922011","1883.5945251","1886.59753394","1","1886.61180806","1893.9216311",""
"sujeto_9ae17e76","1","2","21","53","1894.06519103","direct","4","1","3","¿Cuántos mundiales de fútbol 
femenino ha realizado FIFA? ","9","7","","1","1","1","competitive","right","1.18483400345","1895.25007105","3.81516599655","1899.22343898","0.737449884415","1899.96095705","5.26255011559","1905.271806","1906.51549101","1906.59092307","1909.59388208","1","1909.60886002","1915.7113359",""
"sujeto_9ae17e76","1","2","22","54","1915.84310889","inverse","3","1","2","¿Cuál es la temperatura 
media anual en Montevideo? ","17.5","16.3","","0","0","1","individual","left","1.3546860218","1917.19786692","3.6453139782","1920.99875093","0.804011821747","1921.80280209","5.19598817825","1927.04930401","1928.98790002","1929.03574204","1932.03762507","0","1932.05458808","1938.624125",""
"sujeto_9ae17e76","1","2","23","55","1938.77093911","direct","2","1","2","¿En qué año se estrenó el
 videojuego The Sims? ","2000","2002","","0","0","0","competitive","right","0.784866094589","1939.5558691","4.21513390541","1943.92396808","0.969850063324","1944.89387608","5.03014993668","1949.97492909","1951.83695197","1951.91096592","1954.91395998","0","1954.92917991","1962.32284307",""
"sujeto_9ae17e76","1","2","24","56","1962.48060203","inverse","2","1","1","¿Cuál es la canción con 
mas covers? ","Yesterday","Stand by me","","0","0","0","competitive","right","1.11724901199","1963.59790206","3.88275098801","1967.64160705","3.83711004257","1971.47877502","2.16288995743","1973.69239688","1975.09096003","1975.17712092","1978.17762804","0","1978.19396996","1982.36479211",""
"sujeto_9ae17e76","1","2","25","57","1982.51228905","direct","1","1","4","¿Cuánto duró la guerra
 de los 100 años?","116","123","","0","0","0","competitive","right","0.912566184998","1983.42490292","4.087433815","1987.66851902","3.1202750206","1990.78885388","2.8797249794","1993.71907997","1995.19992805","1995.27066302","1998.27358389","0","1998.28787303","2000.60763311",""
"sujeto_9ae17e76","1","2","26","58","2000.75601697","inverse","4","1","4","¿Qué color tiene la  bandera de Brasil?","Amarillo","Naranja","left","0","0","1","competitive","right","0.702123880386","2001.45820904","4.29787611961","2005.92642307","0.847387075424","2006.77385306","5.15261292458","2011.96027398","2013.52677488","2013.61333299","2016.61630893","0","2016.63031292","2019.66311193",""
"sujeto_9ae17e76","1","2","27","59","2019.79791808","direct","4","1","3","¿Qué carabela de 
Colon no volvió del viaje?","Santa María","La pinta","","0","0","1","competitive","left","1.03395295143","2020.83191705","3.96604704857","2024.96936011","3.98732995987","2028.95672393","2.01267004013","2031.02168202","2032.51269603","2032.58895493","2035.59191704","0","2035.60637093","2037.70583701",""
"sujeto_9ae17e76","1","2","28","60","2037.85733199","inverse","4","1","4","¿Cuántos huesos tiene
 un adulto humano?","217","206","","0","0","1","competitive","left","1.09344005585","2038.9508369","3.90655994415","2043.01347089","3.78627204895","2046.79980302","2.21372795105","2049.06434393","2050.33532","2050.4150629","2053.41803908","0","2053.42707205","2061.26473689",""
"sujeto_9ae17e76","1","2","29","61","2061.41114902","direct","1","1","1","¿Qué país africano fue 
fundado por esclavos?","Liberia","Chad","","0","0","0","competitive","right","1.43570995331","2062.84690309","3.56429004669","2066.57500005","4.19986200333","2070.77492404","1.80013799667","2072.62609005","2074.6176939","2074.69386411","2077.69683504","0","2077.71199799","2085.7028501",""
"sujeto_9ae17e76","1","2","30","62","2085.86359501","inverse","4","1","2","¿A cuánto asciende la cima
 del monte Everest?","7.990 mts","8.848 mts","","0","0","1","competitive","right","1.06717801094","2086.93083906","3.93282198906","2091.02099991","3.25074696541","2094.27178597","2.74925303459","2097.07164097","2098.25649595","2098.34004307","2101.34302592","0","2101.35700607","2108.54105401",""
"sujeto_9ae17e76","1","2","31","63","2108.69175696","direct","4","1","1","¿Cuál es el país mas chico?","Sealand","Luxemburgo","","1","1","1","competitive","right","1.18406701088","2109.87589002","3.81593298912","2113.84491611","3.04583096504","2116.89078689","2.95416903496","2119.88012099","2121.74364495","2121.81500006","2124.81792498","1","2124.83215904","2127.95367503",""
"sujeto_9ae17e76","1","2","32","64","2128.10133004","inverse","2","1","4","¿Cuántas pirámides hay en Egipto?","10000","11000","","1","1","1","competitive","left","1.40649008751","2129.507864","3.59350991249","2133.26006103","3.26871609688","2136.52881408","2.73128390312","2139.31085396","2140.34444594","2140.42811298","2143.43109703","1","2143.44520497","2148.55427194",""
"sujeto_9ae17e76","1","3","1","65","2372.85267496","direct","2","1","2","¿Cuál es el quinto país con 
mas extensión?","Canadá","Brasil","","1","1","0","competitive","right","1.16919589043","2374.02193308","3.83080410957","2378.01616693","4.9526309967","2382.96883798","1.0473690033","2384.06902003","2385.40231395","2385.48577595","2388.4887321","1","2388.50283194","2396.22920609","2148.56897807"
"sujeto_9ae17e76","1","3","2","66","2396.40459991","inverse","1","1","2","¿Qué rasgo facial no tiene
 la Mona Lisa?","Cejas","Pómulos","","0","0","1","competitive","left","1.1632540226","2397.56792307","3.8367459774","2401.56484699","5.16096282005","2406.72585011","0.839037179947","2407.59935498","2409.34963703","2409.43348598","2412.43364096","0","2412.45074105","2418.72207999",""
"sujeto_9ae17e76","1","3","3","67","2418.8679781","direct","4","1","3","¿Cuál es el país con 
mayor población?","Esados Unidos","China","right","0","0","1","competitive","right","0.899942159653","2419.76796699","4.10005784035","2424.04073191","3.60414409637","2427.6449461","2.39585590363","2430.09222889","2431.73819399","2431.82693195","2434.8299129","1","2434.84413004","2438.2114749",""
"sujeto_9ae17e76","1","3","4","68","2438.36229897","inverse","1","1","1","La palabra dinosaurio significa","Lagarto Terrible","Lagarto Dragón","","1","1","0","competitive","right","1.00658392906","2439.36895299","3.99341607094","2443.51941109","4.51037096977","2448.0298419","1.48962903023","2449.55381203","2450.72414708","2450.80456305","2453.8075459","1","2453.82188511","2456.68164396",""
"sujeto_9ae17e76","1","3","5","69","2456.84082603","direct","2","1","3","¿Qué es el membrillero?","Arbol","Arbusto","","0","0","0","competitive","left","1.22099018097","2458.06188297","3.77900981903","2462.00900507","3.54377603531","2465.55284595","2.45622396469","2468.04385209","2469.99796796","2470.0786159","2473.08161902","0","2473.09685588","2479.56088495",""
"sujeto_9ae17e76","1","3","6","70","2479.69819498","inverse","3","1","3","¿Alrededor de qué planeta orbita 
el satélite Europa?","Jupiter","Saturno","","1","1","1","competitive","right","0.704640865326","2480.40287805","4.29535913467","2484.85517693","3.30068802834","2488.15590596","2.69931197166","2490.9062531","2492.45102906","2492.52537608","2495.52835011","1","2495.54233909","2497.747509",""
"sujeto_9ae17e76","1","3","7","71","2497.8939209","direct","3","1","1","¿Donde fue el mundial de 
fútbol de 1954?","Suiza","Suecia","","1","1","1","competitive","right","1.86699795723","2499.76097107","3.13300204277","2503.06511903","3.64672207832","2506.7119019","2.35327792168","2509.10093904","2510.35354495","2510.43607903","2513.43908","1","2513.45252895","2517.36430192",""
"sujeto_9ae17e76","1","3","8","72","2517.52152395","inverse","1","1","4","¿Cuál de los 7 enanitos
no tenía barba?","Bashful","Mudito","","1","1","0","competitive","left","1.04234194756","2518.56396794","3.95765805244","2522.67608905","4.13376617432","2526.80992198","1.86623382568","2528.72717404","2530.30731797","2530.37821007","2533.38118505","1","2533.39643693","2538.32553506",""
"sujeto_9ae17e76","1","3","9","73","2538.4646039","direct","3","1","2","¿Cual red social es
mas utilizada mundialmente?","Instagram","Facebook","","1","1","0","competitive","left","1.06330704689","2539.52797699","3.93669295311","2543.6363821","3.33446097374","2546.97088194","2.66553902626","2549.68858194","2551.60563207","2551.68930292","2554.68965602","1","2554.7069819","2557.64148593",""
"sujeto_9ae17e76","1","3","10","74","2557.7923429","inverse","4","1","1","¿Cuándo se inició la copa
 América de fútbol?","1916","1923","","1","1","1","individual","right","2.71950602531","2560.51191497","2.28049397469","2562.98005009","4.40377902985","2567.38389111","1.59622097015","2569.03234196","2570.92965293","2570.96574593","2573.96871805","1","2573.98385406","2576.63997793",""
"sujeto_9ae17e76","1","3","11","75","2576.81892109","direct","3","1","4","¿Cuántos presidentes de EEUU
han muerto asesinados?","3","4","","0","0","1","competitive","left","1.04092812538","2577.85991311","3.95907187462","2581.97421288","3.69964599609","2585.6739049","2.30035400391","2588.02473998","2589.50862503","2589.59236789","2592.59535003","0","2592.61082792","2596.25493598",""
"sujeto_9ae17e76","1","3","12","76","2596.42839193","inverse","2","1","4","¿Cuántas veces participó EEUU
 en la copa América?","4","5","","0","0","1","competitive","right","0.872530937195","2597.30102992","4.12746906281","2601.60005307","3.73278808594","2605.33290005","2.26721191406","2607.65111899","2609.09523106","2609.16910791","2612.17208791","0","2612.18612003","2618.30164909",""
"sujeto_9ae17e76","1","3","13","77","2618.47089291","direct","4","1","1","¿Cuál de estos países 
no formaba la URSS?","Azeribayán","Afganistán","","0","0","1","competitive","right","1.59301400185","2620.0639751","3.40698599815","2623.62818003","5.9046690464","2629.53291893","0.095330953598","2629.66167998","2630.97473192","2631.0623939","2634.06537604","0","2634.07873297","2642.06087708",""
"sujeto_9ae17e76","1","3","14","78","2642.21395588","inverse","1","1","1","¿En qué año se inauguró
 el teatro Solís?","1867","1856","","0","0","0","competitive","right","0.926886081696","2643.14088702","4.0731139183","2647.3576479","3.46518301964","2650.82286906","2.53481698036","2653.40002608","2654.45632696","2654.53454804","2657.53757191","0","2657.55177402","2664.19959807",""
"sujeto_9ae17e76","1","3","15","79","2664.339118","direct","1","1","4","¿A qué velocidad vuela 
el avión más rápido?","3529","3874","","0","0","0","competitive","right","1.10977983475","2665.44896293","3.89022016525","2669.50224805","1.67862010002","2671.18090796","4.32137989998","2675.53572392","2677.29124308","2677.37145591","2680.3744421","0","2680.38873005","2682.49900293",""
"sujeto_9ae17e76","1","3","16","80","2682.65684509","inverse","3","1","4","¿De qué año es la primer 
película cinematográfica?","1897","1888","","0","0","0","competitive","left","0.730045080185","2683.3869319","4.26995491982","2687.82806301","0.805797815323","2688.63392305","5.19420218468","2693.87786102","2695.01083994","2695.09752607","2698.100492","0","2698.11460209","2703.52437496",""
"sujeto_9ae17e76","1","3","17","81","2703.69899297","direct","2","1","3","¿Cuántos países 
tiene nuestro planeta?","191","194","","1","1","1","competitive","right","1.230894804","2704.92992902","3.769105196","2708.85415006","3.6297390461","2712.48393393","2.3702609539","2714.88625407","2716.24347305","2716.32096696","2719.32396007","1","2719.33845997","2722.57673597",""
"sujeto_9ae17e76","1","3","18","82","2722.70591688","inverse","2","1","2","¿Cuántos habitantes
 tiene Buenos Aires?","2.9000.000","3650000","","0","0","0","competitive","right","0.860970020294","2723.56695795","4.13902997971","2727.88246799","0.793428182602","2728.67596388","5.2065718174","2733.93126106","2735.32852292","2735.40129495","2738.40425801","0","2738.41850901","2744.24567795",""
"sujeto_9ae17e76","1","3","19","83","2744.36999488","direct","2","1","1","¿Cuántos kilos forman una tonelada?","1000","1500","left","1","1","1","competitive","right","1.18589711189","2745.55594397","3.81410288811","2749.54306698","1.59782600403","2751.14094901","4.40217399597","2755.57614493","2757.46353006","2757.54496002","2760.5456419","0","2760.56269407","2766.52011704",""
"sujeto_9ae17e76","1","3","20","84","2766.68138409","inverse","4","1","4","¿Cuántos estados tiene la 
República del Perú? ","24","23","","0","0","1","competitive","right","0.779514074326","2767.46096301","4.22048592567","2771.85160899","3.80621886253","2775.65786695","2.19378113747","2777.90443301","2778.92662692","2779.00572395","2782.00869107","0","2782.02304792","2786.96837091",""
"sujeto_9ae17e76","1","3","21","85","2787.12469792","direct","3","1","3","¿En qué año nació Cristóbal Colón? ","1451","1447","","0","0","1","individual","right","1.05311894417","2788.17788196","3.94688105583","2792.28099203","0.983831167221","2793.26486492","5.01616883278","2798.33007598","2800.17598391","2800.21588302","2803.21764493","0","2803.2340579","2807.4620471",""
"sujeto_9ae17e76","1","3","22","86","2807.60203791","inverse","4","1","4","¿Cuánto mide la 
Montaña Aconcagua? ","6234","6962","","0","0","1","competitive","right","1.03387498856","2808.63599491","3.96612501144","2812.75879908","0.965075016022","2813.72391605","5.03492498398","2818.808146","2820.09752989","2820.17760301","2823.18058705","0","2823.19483089","2830.37848091",""
"sujeto_9ae17e76","1","3","23","87","2830.51395893","direct","2","1","4","¿Cuánto mide el punto
 más profundo del océano? ","12508","11003","","0","0","1","competitive","left","0.940955877304","2831.45498395","4.0590441227","2835.671134","0.896777868271","2836.56795406","5.10322213173","2841.72068906","2842.97220302","2843.05673599","2846.05970192","0","2846.07380891","2850.28009009",""
"sujeto_9ae17e76","1","3","24","88","2850.40816092","inverse","1","1","3","¿Cuántos álbumes ha publicado 
el cantante Jaime Roos? ","41","34","","0","0","1","competitive","right","0.894742012024","2851.30294895","4.10525798798","2855.56360197","1.397315979","2856.960958","4.602684021","2861.59741688","2863.08727288","2863.16678095","2866.16975093","0","2866.1837709","2872.37763906",""
"sujeto_9ae17e76","1","3","25","89","2872.55211997","direct","4","1","3","¿En qué año nació el 
ex-presidente Jorge Battle? ","1921","1927","","1","1","1","competitive","left","1.11577296257","2873.66796088","3.88422703743","2877.70814705","0.937813043594","2878.64603209","5.06218695641","2883.75759506","2885.488276","2885.56000495","2888.56297588","1","2888.57730794","2892.06335211",""
"sujeto_9ae17e76","1","3","26","90","2892.19772005","inverse","1","1","3","¿Cuántas presidencias 
constitucionales  hubo en Uruguay? ","41","42","","0","0","1","competitive","right","0.876196146011","2893.073982","4.12380385399","2897.36910605","1.04577302933","2898.41493797","4.95422697067","2903.41852808","2904.62227511","2904.70523906","2907.7082231","0","2907.72149301","2913.5051589",""
"sujeto_9ae17e76","1","3","27","91","2913.64095497","direct","1","1","2","¿Quién escribió mas sinfonías?","Mozart","Haydn","","1","1","0","competitive","left","1.23700404167","2914.87806392","3.76299595833","2918.7976799","2.86018896103","2921.6579349","3.13981103897","2924.83113503","2926.04861903","2926.1387279","2929.14165807","1","2929.14983988","2932.9012289",""
"sujeto_9ae17e76","1","3","28","92","2933.05160189","inverse","4","1","2","¿En qué año nació Michael Jackson?","1958","1953","","1","1","1","competitive","right","0.978329896927","2934.02999711","4.02167010307","2938.22069097","0.907218933105","2939.12797189","5.09278106689","2944.271703","2946.24995494","2946.3244319","2949.32742405","1","2949.34176111","2955.20409298",""
"sujeto_9ae17e76","1","3","29","93","2955.34380388","direct","3","1","2","¿En qué año entró en vigencia 
la ley antitabaco en Uruguay?","2005","2006","","1","1","1","competitive","right","0.873373031616","2956.21724606","4.12662696838","2960.5193131","1.01755404472","2961.53691101","4.98244595528","2966.56811094","2968.16284895","2968.23800111","2971.2409749","1","2971.25524998","2976.5892601",""
"sujeto_9ae17e76","1","3","30","94","2976.72261691","inverse","3","1","1","¿Cuándo se subió el 
primer video a youtube?","2004","2005","","0","0","1","competitive","right","1.56329488754","2978.28597498","3.43670511246","2981.87968111","0.776179075241","2982.65590405","5.22382092476","2987.92961407","2989.23528409","2989.31518388","2992.31764293","0","2992.33194709","3000.08606291",""
"sujeto_9ae17e76","1","3","31","95","3000.23354506","direct","2","1","1","¿Cuántos habitantes tiene India?","1200 millones","1300 millones","","0","0","0","competitive","left","1.0833761692","3001.31698298","3.9166238308","3005.39114594","1.0527639389","3006.44395089","4.9472360611","3011.4411149","3013.40966797","3013.49121499","3016.49418807","0","3016.50842905","3022.55593896",""
"sujeto_9ae17e76","1","3","32","96","3022.71065903","inverse","4","1","2","¿A qué edad murió Bob Marley?","36","37","","0","0","1","competitive","right","0.841396093369","3023.55216694","4.15860390663","3027.88667893","3.79118990898","3031.67792702","2.20881009102","3033.92143989","3035.81930494","3035.9061501","3038.9091301","0","3038.9231379","3042.02562904",""
"sujeto_9ae17e76","1","4","1","97","3175.8173871","direct","2","1","1","¿Cuantos años dirigió la selección 
uruguaya Tabarez?","15 años","13 años","","0","0","0","competitive","right","2.40249204636","3178.21993709","2.59750795364","3180.99776196","0.786121845245","3181.78394794","5.21387815475","3187.04818892","3188.23935294","3188.31786489","3191.32078505","0","3191.33431506","3198.40634704","3042.04044604"
"sujeto_9ae17e76","1","4","2","98","3198.56724691","inverse","4","1","1","¿Cuantas teclas tiene un teclado 
de computadora generalmente? ","Entre 99 y 108","Entre 109 y 113","","1","1","1","competitive","right","1.31669592857","3199.88398695","3.68330407143","3203.72673893","1.23018908501","3204.95696902","4.76981091499","3209.77601504","3210.77870893","3210.86244297","3213.86542106","1","3213.87937593","3216.25076008",""
"sujeto_9ae17e76","1","4","3","99","3216.41459608","direct","1","1","1","¿Cuál Departamento tiene
 mayor superficie?","Río Negro","Soriano","","0","0","0","competitive","right","1.08740901947","3217.50205803","3.91259098053","3221.5836761","0.943256139755","3222.52699304","5.05674386024","3227.61802506","3229.33149695","3229.40420008","3232.40569997","0","3232.42094707","3236.74699593",""
"sujeto_9ae17e76","1","4","4","100","3236.922786","inverse","3","1","2","¿Cuál es el apellido de las 
hermanastras  de  cenicienta?","Tremaine","Truman","","0","0","1","competitive","right","0.939157962799","3237.86202312","4.0608420372","3242.07982898","1.00611281395","3243.08600807","4.99388718605","3248.12908101","3249.99861598","3250.08116698","3253.0816679","0","3253.09806705","3255.79402709",""
"sujeto_9ae17e76","1","4","5","101","3255.94955206","direct","4","1","4","¿Cuál película ganó un
 Oscar a mejor película?","Alto Impacto","Cache","","0","0","1","competitive","left","1.00043296814","3256.95002508","3.99956703186","3261.14061499","1.02630281448","3262.16696095","4.97369718552","3267.18985009","3268.30921888","3268.39182711","3271.39366889","0","3271.40882301","3273.67345309",""
"sujeto_9ae17e76","1","4","6","102","3273.8274529","inverse","1","1","3","¿A cuántos centímetros
equivale la medida pié?","25","30","","0","0","1","competitive","right","1.03955698013","3274.86706591","3.96044301987","3278.98021197","0.89271402359","3279.87298703","5.10728597641","3285.03063607","3286.07067108","3286.15006304","3289.15300894","0","3289.16694093","3294.56784701",""
"sujeto_9ae17e76","1","4","7","103","3294.70271897","direct","2","1","2","¿Qué departamento es mas grande?","Cerro Largo","Paysandú","","0","0","0","competitive","right","1.05718398094","3295.75994992","3.94281601906","3299.85969901","0.939136981964","3300.79887104","5.06086301804","3305.909446","3307.50917697","3307.59584498","3310.59879589","0","3310.61302495","3314.72300506",""
"sujeto_9ae17e76","1","4","8","104","3314.86359692","inverse","2","1","3","¿Quién pintó la Mona Lisa?","Picasso","Da Vinci","right","0","0","1","competitive","right","0.751893997192","3315.61567807","4.24810600281","3320.05317998","3.15366721153","3323.20690608","2.84633278847","3326.10414195","3327.70967293","3327.78910208","3330.79208708","1","3330.80648398","3332.96878409",""
"sujeto_9ae17e76","1","4","9","105","3333.10823393","direct","4","1","3","¿Cuántos litros hay en un galon?","3.54","3.78","","1","1","1","competitive","right","0.972696065903","3334.08103895","4.0273039341","3338.29640007","2.45746898651","3340.75392389","3.54253101349","3344.34663606","3345.86452389","3345.94875407","3348.95173001","1","3348.96579003","3354.75765896",""
"sujeto_9ae17e76","1","4","10","106","3354.90060711","inverse","4","1","1","¿Cuántas teclas tiene
 un piano moderno?","80","88","","0","0","1","competitive","right","1.08232998848","3355.98298192","3.91767001152","3360.07341194","3.13442707062","3363.20787907","2.86557292938","3366.12352705","3367.13199711","3367.22522902","3370.22820711","0","3370.24208403","3377.03981495",""
"sujeto_9ae17e76","1","4","11","107","3377.19393206","direct","4","1","3","¿Cuántos países hay en África?","54","62","","0","0","1","competitive","right","0.960000991821","3378.1540041","4.03999900818","3382.3521471","2.92384600639","3385.27611589","3.07615399361","3388.40239406","3390.09295607","3390.17079902","3393.173738","0","3393.18861294","3400.99337697",""
"sujeto_9ae17e76","1","4","12","108","3401.12244701","inverse","1","1","3","¿En qué siglo se crearon
 las primeras pistolas?","XV","XIII","","1","1","1","competitive","right","0.762523889542","3401.88501692","4.23747611046","3406.28165889","2.96927404404","3409.25099897","3.03072595596","3412.33218503","3414.28011894","3414.36658311","3417.36956191","1","3417.38396502","3420.61706591",""
"sujeto_9ae17e76","1","4","13","109","3420.76933599","direct","3","1","4","¿En qué año se estrenó 
la serie friends?","1994","1995","","0","0","1","competitive","left","1.04856014252","3421.81795788","3.95143985748","3425.94154596","3.81139302254","3429.75299811","2.18860697746","3431.97628188","3433.85164309","3433.92764211","3436.93067002","0","3436.94478106","3441.94965506",""
"sujeto_9ae17e76","1","4","14","110","3442.09634805","inverse","3","1","4","¿En qué año nació Hitler?","1889","1887","","0","0","1","competitive","right","0.993633985519","3443.09005308","4.00636601448","3447.24798608","2.99499297142","3450.24304104","3.00500702858","3453.28272009","3454.39708805","3454.46774006","3457.47074103","0","3457.48508596","3462.51208496",""
"sujeto_9ae17e76","1","4","15","111","3462.68691611","direct","1","1","4","¿Cuánto pesa un elefante Africano?","6000 kilos","5400 kilos","","0","0","0","competitive","left","0.850019931793","3463.537009","4.14998006821","3467.84573698","3.05214881897","3470.89794207","2.94785118103","3473.89650798","3475.25244904","3475.33190703","3478.33365011","0","3478.34896898","3485.05603695",""
"sujeto_9ae17e76","1","4","16","112","3485.20070004","inverse","1","1","2","¿Qué porcentaje de 
la población es zurda?","10%","7%","","1","1","0","competitive","left","0.977234125137","3486.17797589","4.02276587486","3490.3574369","1.24653196335","3491.60401011","4.75346803665","3496.39109206","3497.63419104","3497.71048689","3500.71346688","1","3500.72701192","3506.70675206",""
"sujeto_9ae17e76","1","4","17","113","3506.86193991","direct","1","1","2","¿En qué año se estrenó
Volver al futuro?","1984","1985","","0","0","1","competitive","right","0.716998100281","3507.57898211","4.28300189972","3512.03516507","0.754781961441","3512.78999209","5.24521803856","3518.084337","3519.64563799","3519.72116208","3522.72415805","0","3522.73831105","3529.82973409",""
"sujeto_9ae17e76","1","4","18","114","3529.97272205","inverse","3","1","2","¿Cuántos jugadores hay en un 
equipo de baseball?","9","8","","1","1","0","competitive","right","0.786204099655","3530.75897288","4.21379590034","3535.12936401","3.01858282089","3538.14800811","2.98141717911","3541.18105507","3542.79533601","3542.86547303","3545.86563897","1","3545.88424897","3550.85762405",""
"sujeto_9ae17e76","1","4","19","115","3550.98803306","direct","2","1","1","¿Cuántos Oscar ganó
 la película titanic?","13","11","","1","1","1","competitive","right","0.87194108963","3551.86002994","4.12805891037","3556.14159489","2.80633211136","3558.94798493","3.19366788864","3562.19272399","3563.49474502","3563.57772088","3566.58071208","1","3566.59395504","3571.19662595",""
"sujeto_9ae17e76","1","4","20","116","3571.34675288","inverse","4","1","4","¿En qué año comenzó
la segunda guerra mundial?","1939","1976","left","0","0","1","competitive","right","0.646239995956","3571.99304509","4.35376000404","3576.518502","0.684464931488","3577.20303011","5.31553506851","3582.56804991","3584.36789298","3584.454","3587.45697308","0","3587.47139907","3591.45854998",""
"sujeto_9ae17e76","1","4","21","117","3591.59064293","direct","2","1","4","¿Cuántos biomas hay en Uruguay?","5","4","","0","0","1","competitive","right","0.738362073898","3592.32908797","4.2616379261","3596.72907901","0.870871782303","3597.60001898","5.1291282177","3602.77839088","3604.57575393","3604.64787602","3607.65083194","0","3607.66592407","3613.91533494",""
"sujeto_9ae17e76","1","4","22","118","3614.06859303","inverse","2","1","3","¿Cuándo murió Pablo Escobar?","1993","1997","","1","1","1","competitive","left","0.702401161194","3614.77104688","4.29759883881","3619.21969604","1.87522006035","3621.09498","4.12477993965","3625.27072406","3627.05356407","3627.12329507","3630.12627292","1","3630.14073706","3635.84438992",""
"sujeto_9ae17e76","1","4","23","119","3635.99290395","direct","1","1","4","¿Qué serie ha ganado mas premios?","Friends","Murphy Brown","","1","1","0","competitive","left","1.02507400513","3637.01804709","3.97492599487","3641.15223598","4.54362487793","3645.69590306","1.45637512207","3647.18670011","3648.53909898","3648.62089896","3651.62164307","1","3651.63800788","3657.19963288",""
"sujeto_9ae17e76","1","4","24","120","3657.34000802","inverse","4","1","2","¿Cuántas fichas tiene el dominó?","26","28","","1","1","1","competitive","right","1.03990983963","3658.37998295","3.96009016037","3662.5133729","2.94261097908","3665.45604491","3.05738902092","3668.54709411","3669.60238695","3669.68230104","3672.68527699","1","3672.69778204","3677.94085908",""
"sujeto_9ae17e76","1","4","25","121","3678.11615896","direct","2","1","4","¿Cuántos son los dientes de leche?","20","25","","0","0","1","competitive","left","1.04779291153","3679.16399288","3.95220708847","3683.27379107","3.4151699543","3686.68900394","2.5848300457","3689.32406688","3691.03364205","3691.10982609","3694.11278105","0","3694.12688494","3696.27259898",""
"sujeto_9ae17e76","1","4","26","122","3696.41176009","inverse","3","1","3","¿Cuántos gramos son una onza?","22","28","","0","0","1","competitive","left","0.812215089798","3697.22401905","4.1877849102","3701.57846308","2.35843801498","3703.93695998","3.64156198502","3707.63090801","3709.62576008","3709.69856906","3712.70156693","0","3712.716892","3719.00714707",""
"sujeto_9ae17e76","1","4","27","123","3719.18518496","direct","3","1","1","¿Cuándo salió el primer album
 de los Beatles?","1963","1962","","1","1","1","competitive","left","0.998878955841","3720.18414211","4.00112104416","3724.36177993","3.74817895889","3728.11002588","2.25182104111","3730.41231894","3731.57592988","3731.6462369","3734.64921808","1","3734.664217","3738.43624806",""
"sujeto_9ae17e76","1","4","28","124","3738.56547189","inverse","3","1","3","¿Quién fundó la empresa apple?","Carlos Slim","Steve Jobs","","1","1","1","competitive","right","0.755537986755","3739.32105398","4.24446201324","3743.72145391","1.31156897545","3745.03309298","4.68843102455","3749.77134109","3750.88601804","3750.97335696","3753.97634506","1","3753.99073792","3760.28860402",""
"sujeto_9ae17e76","1","4","29","125","3760.42531395","direct","4","1","2","¿Cuántos municipios hay
 en Montevideo?","8","7","","1","1","1","competitive","left","0.962666034698","3761.38802409","4.0373339653","3765.58229399","2.72760987282","3768.30994606","3.27239012718","3771.61591291","3773.53069997","3773.61813307","3776.6211381","1","3776.6351459","3778.71628499",""
"sujeto_9ae17e76","1","4","30","126","3778.85428309","inverse","1","1","1","¿Cuántos kilómetros hay
 de Montevideo a Artigas?","632","599","","0","0","0","competitive","right","1.0477449894","3779.90209603","3.9522550106","3784.00873995","0.796270847321","3784.80505991","5.20372915268","3790.058007","3791.54113507","3791.61136389","3794.61434793","0","3794.62858605","3800.67764902",""
"sujeto_9ae17e76","1","4","31","127","3800.81262493","direct","2","1","2","¿En qué año nació 
Leonardo Da Vinci?","1452","1511","","1","1","0","competitive","right","0.784390926361","3801.59706688","4.21560907364","3805.97014689","0.993804931641","3806.96401405","5.00619506836","3812.01970005","3813.87330198","3813.95528007","3816.95826101","1","3816.97268009","3820.11909604",""
"sujeto_9ae17e76","1","4","32","128","3820.2586751","inverse","3","1","1","¿A qué continente
 pertenece el país Gabón?","Africa","Oceanía","","0","0","1","competitive","right","0.856290102005","3821.11500788","4.14370989799","3825.41299391","0.917968988419","3826.33100104","5.08203101158","3831.46216011","3833.27365208","3833.34846902","3836.35144806","0","3836.3665061","3841.60165095",""
