"code","nro_aplicante","nro_bloque","nro_trial_bloque","nro_trial_global","show_game_type","choice_order","rival","pay_individual","pay_competitive","question","answer_left_text","answer_right_text","correct_answer","outcome_individual","outcome_competitive","outcome_rival","game_type","answer","social_time","rt_game_type","feedback_delay","show_question","answer_time","rt_answer_global","feedback_delay_2","show_jitter","jitter_time","show_outcome","outcome_time","outcome_participant_real","show_final_jitter","second_jitter_time","inicio_descanso"
"sujeto_d60b64ec","1","1","1","1","24.5355889797","direct","3","1","4","¿Cuántos centímetros corresponden
al talle 36 del calzado?","23","24","","0","0","1","competitive","right","2.79113292694","27.3267841339","2.20886707306","29.7071590424","4.77663898468","34.4838690758","1.22336101532","35.7428870201","36.7711901665","36.8436222076","39.8465790749","0","39.8611819744","42.023651123",""
"sujeto_d60b64ec","1","1","2","2","42.1632640362","inverse","3","1","2","¿Cuántas metros mide la Intendencia
Municipal de Montevideo? ","84","78","","0","0","1","individual","left","1.05759191513","43.2209630013","3.94240808487","47.3160531521","5.0847671032","52.4008610249","0.915232896805","53.3671050072","55.245126009","55.2844481468","58.2854959965","0","58.3020291328","60.3948011398",""
"sujeto_d60b64ec","1","1","3","3","60.5369939804","direct","1","1","3","¿Cuántas La Pasiva
 hay en uruguay?","15","11","","1","1","1","competitive","left","1.38485002518","61.9218890667","3.61514997482","65.7098050117","4.36701703072","70.076884985","1.63298296928","71.7613852024","73.3730092049","73.4446461201","76.4476029873","1","76.4632132053","80.7415750027",""
"sujeto_d60b64ec","1","1","4","4","80.8796620369","inverse","3","1","3","¿De que color es la camiseta de uruguay?","blanca","celeste","right","1","1","1","competitive","right","1.08419394493","81.9639050961","3.91580605507","86.0368480682","4.59602689743","90.6329472065","1.40397310257","92.0716040134","93.2763462067","93.3556790352","96.3577280045","1","96.3729631901","99.8258590698",""
"sujeto_d60b64ec","1","1","5","5","99.9576761723","direct","2","1","1","¿Cuánto metros mide
la torre Eiffel?","333","324","","1","1","1","competitive","right","1.16617798805","101.123920202","3.83382201195","105.109009027","4.26581692696","109.374865055","1.73418307304","111.145033121","112.666419983","112.74556303","115.748588085","1","115.763283014","122.799911022",""
"sujeto_d60b64ec","1","1","6","6","122.931523085","inverse","3","1","4","¿Cuantas ciudades existen
 en todo el uruguay?","63","72","","0","0","1","competitive","right","1.31832480431","124.249915123","3.68167519569","128.092388153","4.3764500618","132.468896151","1.6235499382","134.126240015","135.180850029","135.260832071","138.263815165","0","138.277592182","145.904184103",""
"sujeto_d60b64ec","1","1","7","7","146.060660124","direct","1","1","1","¿Cuantos estados tiene África?","52","54","","1","1","0","competitive","right","1.29918408394","147.359918118","3.70081591606","151.220812082","4.51604795456","155.736921072","1.48395204544","157.272160053","159.13619113","159.222877979","162.225851059","1","162.240475178","168.001501083",""
"sujeto_d60b64ec","1","1","8","8","168.141619205","inverse","4","1","4","¿En qué año nació
 Stephen Hawking?","1952","1942","","0","0","1","competitive","right","1.2312541008","169.372917175","3.7687458992","173.299359083","4.17347693443","177.472897053","1.82652306557","179.349814177","180.794104099","180.867632151","183.870617151","0","183.884840012","189.984177113",""
"sujeto_d60b64ec","1","1","9","9","190.120258093","direct","2","1","3","¿Cuánto años tenía Artigas
 cuando se fue a Paraguay?","56","57","","1","1","1","competitive","left","1.11860394478","191.238931179","3.88139605522","195.276908159","4.28896212578","199.565910101","1.71103787422","201.327413082","202.876904011","202.962454081","205.965438128","1","205.979816198","212.027127028",""
"sujeto_d60b64ec","1","1","10","10","212.164643049","inverse","1","1","2","¿Cuantos milímetros 
mide una hoja A2?","420x592","420x594","","0","0","1","competitive","right","0.853289842606","213.017981052","4.14671015739","217.320183039","4.54172897339","221.86197114","1.45827102661","223.354958057","224.923403025","225.005828142","228.008773088","0","228.023411036","235.097009182",""
"sujeto_d60b64ec","1","1","11","11","235.240595102","direct","3","1","3","¿Cuál es la menor temperatura 
registrada en Uruguay?","-5.4","-7.4","","0","0","1","competitive","right","1.17731595039","236.417980194","3.82268404961","240.399533033","4.38634300232","244.785914183","1.61365699768","246.451629162","248.133661032","248.219042063","251.222025156","0","251.236596107","254.969902039",""
"sujeto_d60b64ec","1","1","12","12","255.104499102","inverse","2","1","2","¿Cuantos años hace que 
se fundó facebook?","18","17","","0","0","0","competitive","left","0.976436138153","256.080980062","4.02356386185","260.26019907","4.43067288399","264.690932989","1.56932711601","266.312013149","267.684700012","267.762493134","270.765510082","0","270.779918194","273.554594994",""
"sujeto_d60b64ec","1","1","13","13","273.68149519","direct","1","1","4","¿Cuál animal es más
 pesado en promedio?","Rinoceronte","Hipopotamo","","0","0","0","competitive","right","1.01144003868","274.692982197","3.98855996132","278.851264","4.6416580677","283.492962122","1.3583419323","284.887712002","285.966961145","286.055253029","289.058237076","0","289.072447062","292.913457155",""
"sujeto_d60b64ec","1","1","14","14","293.107673168","inverse","1","1","2","¿Qué personaje de dragon ball 
murió más veces?","Chaoz","Krillin","","1","1","0","competitive","right","0.877269029617","293.985019207","4.12273097038","298.262804031","4.83012485504","303.092998981","1.16987514496","304.314131975","305.771964073","305.849045992","308.852038145","1","308.866026163","316.638182163",""
"sujeto_d60b64ec","1","1","15","15","316.77137804","direct","3","1","2","La universidad de oxford. 
existe desde:","1096","1249","","1","1","0","competitive","right","0.696581840515","317.468023062","4.30341815948","321.942110062","5.00789499283","326.950052023","0.992105007172","327.977080107","329.025880098","329.110159159","332.113160133","1","332.127817154","338.81867218",""
"sujeto_d60b64ec","1","1","16","16","338.962150097","inverse","3","1","1","¿Qué escritor latino ganó antes
 el premio nobel?"," García Marquez","Neruda","","0","0","1","competitive","right","1.13383984566","340.096055984","3.86616015434","344.119697094","4.22531199455","348.345067024","1.77468800545","350.154695988","351.894708157","351.971573114","354.974548101","0","354.989850044","358.45038414",""
"sujeto_d60b64ec","1","1","17","17","358.591119051","direct","4","1","3","¿Cuántos dientes tiene un
 tiburón blanco?","6000","3000","","0","0","1","individual","left","0.705904006958","359.297106028","4.29409599304","363.761322975","4.96667599678","368.728123188","1.03332400322","369.813920975","370.852882147","370.89764905","373.900647163","0","373.915006161","378.72469902",""
"sujeto_d60b64ec","1","1","18","18","378.84998703","inverse","4","1","1","¿Cuánto mide el paralelo Ecuador?","40.000km","70.000km","","0","0","1","competitive","right","0.614053964615","379.464114189","4.38594603539","384.007230043","4.50970602036","388.516996145","1.49029397964","390.042541981","391.998697042","392.076659203","395.079673052","0","395.094211102","398.696812153",""
"sujeto_d60b64ec","1","1","19","19","398.845277071","direct","4","1","2","¿Cuál fue el primer libro 
de Stephen King?","Carrie","The Stand","","1","1","1","competitive","right","1.0136988163","399.859024048","3.9863011837","404.017777205","3.91715812683","407.934997082","2.08284187317","410.068592072","411.812741995","411.886734009","414.889744043","1","414.903376102","419.37779212",""
"sujeto_d60b64ec","1","1","20","20","419.505748987","inverse","2","1","3","¿Qué civilización practicaba
 la momificación?","Grecia","Egipto","right","0","0","1","competitive","right","0.549217939377","420.055034161","4.45078206062","424.67714715","3.54281401634","428.220000982","2.45718598366","430.712112188","432.651407003","432.730007172","435.732984066","1","435.748212099","439.977009058",""
"sujeto_d60b64ec","1","1","21","21","440.132951975","direct","4","1","4","¿Cuántos millones de visitas
 recibe google por minuto?","3.0","4.5","","0","0","1","competitive","right","0.700072050095","440.833070993","4.29992794991","445.300364971","4.42060303688","449.721029043","1.57939696312","451.354220152","452.867899179","452.954678059","455.957677126","0","455.972232103","463.094896078",""
"sujeto_d60b64ec","1","1","22","22","463.223848104","inverse","1","1","3","La máquina de fax. se inventó en:","1843","1960","","0","0","1","competitive","right","0.776208877563","464.000130177","4.22379112244","468.383813143","4.74920916557","473.133062124","1.25079083443","474.435696125","475.677813053","475.753090143","478.756081104","0","478.769598007","482.005881071",""
"sujeto_d60b64ec","1","1","23","23","482.138772011","direct","2","1","4","En la verdadera historia de los
 300 espartanos. habían:","300 soldados","4300 soldados","","1","1","1","competitive","right","1.06129002571","483.200106144","3.93870997429","487.294568062","4.64248490334","491.937116146","1.35751509666","493.345049143","494.606255054","494.67889905","497.681856155","1","497.690775156","501.492537975",""
"sujeto_d60b64ec","1","1","24","24","501.624830008","inverse","1","1","4","¿Cuántos milímetros crece
 el pelo por día?","0.4","0.04","","0","0","0","competitive","left","0.853210926056","502.478108168","4.14678907394","506.786636114","4.42040681839","511.207103014","1.57959318161","512.838149071","514.598849058","514.672327042","517.675318003","0","517.690620184","524.425724983",""
"sujeto_d60b64ec","1","1","25","25","524.558413029","direct","4","1","1","¿Cuánto mide la baldosa gris 
clásica de Montevideo?","22x22 cm.","20x20 cm.","","1","1","1","competitive","right","1.57666993141","526.135126114","3.42333006859","529.731024027","4.78701496124","534.518079996","1.21298503876","535.781604052","537.776859999","537.848502159","540.851492167","1","540.865992069","546.408820152",""
"sujeto_d60b64ec","1","1","26","26","546.533775091","inverse","2","1","2","¿Cuántas películas de rápidos
 y furiosos hay?","10","11","","1","1","0","competitive","left","0.868239879608","547.402060986","4.13176012039","551.710825205","4.4772040844","556.188095093","1.5227959156","557.74307704","559.101099014","559.177268982","562.180257082","1","562.194815159","564.229516029",""
"sujeto_d60b64ec","1","1","27","27","564.362632036","direct","3","1","1","¿Cuántos masters 1000
 ganó Del Potro?","1","2","","1","1","1","competitive","right","0.917438030243","565.280122995","4.08256196976","569.536036015","4.51999688148","574.056073189","1.48000311852","575.587304115","577.341886044","577.42159915","580.424249172","1","580.439516068","587.8358531",""
"sujeto_d60b64ec","1","1","28","28","587.973796129","inverse","2","1","4","¿Cuántos meses dura el 
embarazo de una leona?","3 meses","4 meses","","0","0","1","competitive","right","0.984289169312","588.958130121","4.01571083069","593.131456137","4.58958816528","597.721085072","1.41041183472","599.182941198","600.293956041","600.366939068","603.36986208","0","603.38422513","610.106736183",""
"sujeto_d60b64ec","1","1","29","29","610.252813101","direct","1","1","1","¿En qué año fue creado
 el sandwich?","1762","1653","","1","1","0","competitive","left","1.00025391579","611.253113031","3.99974608421","615.422029972","4.54901504517","619.971086025","1.45098495483","621.474045038","623.072612047","623.141683102","626.144684076","1","626.158400059","629.62898612",""
"sujeto_d60b64ec","1","1","30","30","629.77663517","inverse","4","1","2","El nombre de la moneda de Vietnam es:","Dinar","Dong","","0","0","1","competitive","left","0.839463949203","630.616142035","4.1605360508","634.936065197","5.34009003639","640.276218176","0.659909963608","640.971340179","642.403336048","642.488234043","645.491211176","0","645.505870104","651.674308062",""
"sujeto_d60b64ec","1","1","31","31","651.807507038","direct","2","1","1","¿cuantos aleteos puede dar 
un colibrí por segundo?","120","50","","0","0","0","competitive","left","1.054666996","652.862282038","3.945333004","656.981202126","4.86391115189","661.845157146","1.13608884811","663.032589197","664.764932156","664.849425077","667.852408171","0","667.867923021","672.078916073",""
"sujeto_d60b64ec","1","1","32","32","672.218243122","inverse","4","1","3","¿Qué altura promedio tienen
 los hombres uruguayos?","1.73 m","1.72 m","","1","1","1","competitive","left","0.913882017136","673.132194996","4.08611798286","677.375513077","4.28359222412","681.659145117","1.71640777588","683.426573038","684.688930988","684.760259151","687.763241053","1","687.777549982","692.25347805",""
"sujeto_d60b64ec","1","2","1","33","806.038531065","direct","1","1","1","¿En qué año nació 
el actor Bradd Pitt?","1967","1963","","1","1","1","competitive","right","1.57061982155","807.609220982","3.42938017845","811.193691015","4.29143691063","815.485187054","1.70856308937","817.228404999","818.324259996","818.39537406","821.398360014","1","821.413005114","827.340601206","692.265303135"
"sujeto_d60b64ec","1","2","2","34","827.481212139","inverse","2","1","1","¿Cual es el segundo 
monte más alto?","Kanchenjunga","K2","","1","1","1","competitive","left","0.671996116638","828.153262138","4.32800388336","832.621738195","4.95847296715","837.580252171","1.04152703285","838.656581163","840.1089921","840.190356016","843.193341017","1","843.20800519","846.637902975",""
"sujeto_d60b64ec","1","2","3","35","846.776355982","direct","3","1","1","¿Cuándo finalizó la construcción
 del Palacio Legislativo?","1925","1917","","0","0","1","competitive","right","1.06794595718","847.844413996","3.93205404282","851.965507984","4.30568790436","856.271238089","1.69431209564","858.016290188","859.657984972","859.733772039","862.736762047","0","862.751240015","868.448806047",""
"sujeto_d60b64ec","1","2","4","36","868.585723162","inverse","3","1","3","¿Cuántos integrantes tenía
 en su inicio  el cuarteto de nos?","3","4","","1","1","1","competitive","right","1.44947099686","870.035261154","3.55052900314","873.741970062","5.5992629528","879.341295004","0.400737047195","879.794251204","880.927309036","881.011625051","884.014620066","1","884.028970003","889.67881608",""
"sujeto_d60b64ec","1","2","5","37","889.813287973","direct","2","1","3","¿Qué valor tiene el número pi?","3.14","4.18","left","0","0","1","competitive","left","0.716953992844","890.530311108","4.28304600716","894.987393141","2.73588109016","897.723314047","3.26411890984","901.0372262","902.491448164","902.571988106","905.57499218","1","905.58941102","912.510399103",""
"sujeto_d60b64ec","1","2","6","38","912.641487122","inverse","2","1","2","¿Cuál es la esperanza de vida
 en Uruguay?","75","77","","1","1","0","competitive","right","1.58674001694","914.228273153","3.41325998306","917.799306154","3.84895610809","921.648326159","2.15104389191","923.850136042","925.503985167","925.584177017","928.587099075","1","928.602658987","935.065683126",""
"sujeto_d60b64ec","1","2","7","39","935.203474045","direct","1","1","2","¿Cuantos pisos tiene la torre 
de las comunicaciones?","26","32","","1","1","0","competitive","right","1.08979797363","936.293340206","3.91020202637","940.360383034","4.91781592369","945.278242111","1.08218407631","946.412288189","948.241053104","948.312218189","951.315180063","1","951.330562115","953.47679019",""
"sujeto_d60b64ec","1","2","8","40","953.614686012","inverse","2","1","4","¿En qué país sudamericano 
no hay McDonalds?","Bolivia","Venezuela","","0","0","1","competitive","left","1.24553704262","954.860300064","3.75446295738","958.768908024","4.58833694458","963.357285023","1.41166305542","964.821008205","966.130340099","966.205641985","969.208613157","0","969.223031998","975.582764149",""
"sujeto_d60b64ec","1","2","9","41","975.724244118","direct","3","1","1","¿En qué año empieza
 la Edad Media?","476","512","","1","1","1","competitive","left","1.22402405739","976.948335171","3.77597594261","980.879669189","5.42157006264","986.301302195","0.578429937363","986.931858063","988.33562398","988.415116072","991.418099165","1","991.432672024","994.421214104",""
"sujeto_d60b64ec","1","2","10","42","994.568068981","inverse","3","1","4","¿Hace cuántos años surgió
 el ser humano?","200mil","300mil","","0","0","0","competitive","right","1.11725211143","995.685389042","3.88274788857","999.740797043","4.26546502113","1004.00630403","1.73453497887","1005.7918222","1007.67787719","1007.75948501","1010.76240206","0","1010.77706409","1014.08753705",""
"sujeto_d60b64ec","1","2","11","43","1014.22882104","direct","3","1","4","¿Cuántas cuadras tiene
 actualmente 18 de julio? ","36","33","","0","0","1","competitive","left","1.29148006439","1015.52037406","3.70851993561","1019.38422418","4.2580370903","1023.64230299","1.7419629097","1025.4355092","1027.13781309","1027.2204051","1030.22333312","0","1030.2380302","1034.96428418",""
"sujeto_d60b64ec","1","2","12","44","1035.10562205","inverse","1","1","4","¿Qué juego de equipo se 
considera mas rápido?","Lacrosse","Badminton","","0","0","0","competitive","right","1.15366387367","1036.25933218","3.84633612633","1040.2603991","4.9768807888","1045.23734117","1.0231192112","1046.2951951","1047.53830814","1047.61273909","1050.61573601","0","1050.6303761","1058.6255331",""
"sujeto_d60b64ec","1","2","13","45","1058.76498914","direct","1","1","3","¿Qué promedio de edad 
vive una jirafa? ","25","20","","0","0","1","competitive","right","1.14935016632","1059.91440701","3.85064983368","1063.94077516","4.41849398613","1068.35933614","1.58150601387","1069.99181914","1071.75332212","1071.82612419","1074.82909203","0","1074.84363413","1080.79935217",""
"sujeto_d60b64ec","1","2","14","46","1080.92881203","inverse","1","1","2","¿Cuántos grandes lagos hay?","7","5","","0","0","1","competitive","right","1.75849294662","1082.68735003","3.24150705338","1086.08574319","3.60156106949","1089.6873672","2.39843893051","1092.1370542","1093.42914605","1093.50392699","1096.50693107","0","1096.52180099","1104.34314799",""
"sujeto_d60b64ec","1","2","15","47","1104.4891901","direct","3","1","2","¿Cuántos discos de estudio
 grabó Johhny Cash? ","54","43","","1","1","0","competitive","left","0.929157972336","1105.41841316","4.07084202766","1109.64687109","5.36349987984","1115.01041198","0.636500120163","1115.68283105","1116.96148014","1117.0498271","1120.05282307","1","1120.06714511","1126.71807218",""
"sujeto_d60b64ec","1","2","16","48","1126.85210299","inverse","4","1","1","¿Cuántos barrios tiene
 Montevideo? ","71","62","","0","0","1","competitive","right","1.14621901512","1127.99839115","3.85378098488","1132.00929499","3.98298811913","1135.99232411","2.01701188087","1138.06043506","1139.06752205","1139.14418101","1142.14714313","0","1142.16150808","1147.62354302",""
"sujeto_d60b64ec","1","2","17","49","1147.7627182","direct","3","1","3","¿Qué edad tiene Homero Simpson?","36","42","","0","0","1","competitive","left","0.920640945435","1148.68341303","4.07935905457","1152.91872811","3.15159893036","1156.07036901","2.84840106964","1158.96983409","1160.34588313","1160.42072415","1163.423702","0","1163.43829703","1167.82708311",""
"sujeto_d60b64ec","1","2","18","50","1167.97287107","inverse","4","1","2","¿Cuántos países con monarquía 
hay en europa actualmente? ","6","10","","1","1","1","competitive","left","0.802506923676","1168.775424","4.19749307632","1173.14745617","4.97297096252","1178.12047005","1.02702903748","1179.18172407","1180.62006307","1180.69853401","1183.70146799","1","1183.71614218","1189.87296414",""
"sujeto_d60b64ec","1","2","19","51","1190.017524","direct","2","1","3","¿Cuántos capítulos de
 Friends existen? ","236","228","","1","1","1","competitive","left","1.11186504364","1191.12943506","3.88813495636","1195.175457","3.99592804909","1199.17144608","2.00407195091","1201.20939302","1202.51495814","1202.5936811","1205.59664702","1","1205.61093807","1207.98655605",""
"sujeto_d60b64ec","1","2","20","52","1208.12995505","inverse","1","1","3","¿Cuántas óperas compuso Mozart? ","27","22","","1","1","1","competitive","left","0.968480825424","1209.09850407","4.03151917458","1213.29678297","3.64355111122","1216.94037509","2.35644888878","1219.3318181","1220.62396908","1220.70050716","1223.70346904","1","1223.71809101","1231.02951097",""
"sujeto_d60b64ec","1","2","21","53","1231.18521619","direct","4","1","3","¿Cuántos mundiales de fútbol 
femenino ha realizado FIFA? ","9","7","","1","1","1","competitive","right","0.880207061768","1232.06549907","4.11979293823","1236.34516311","4.29525613785","1240.64046121","1.70474386215","1242.38101101","1243.62471318","1243.69746709","1246.70043302","1","1246.71511817","1252.81757998",""
"sujeto_d60b64ec","1","2","22","54","1252.96673012","inverse","3","1","2","¿Cuál es la temperatura 
media anual en Montevideo? ","17.5","16.3","","0","0","1","competitive","right","0.585681200027","1253.55245614","4.41431879997","1258.14133215","4.16007113457","1262.30144405","1.83992886543","1264.17462516","1266.11288905","1266.19304919","1269.19603109","0","1269.21065402","1275.7801981",""
"sujeto_d60b64ec","1","2","23","55","1275.91215611","direct","2","1","2","¿En qué año se estrenó el
 videojuego The Sims? ","2000","2002","","0","0","0","competitive","left","0.96425485611","1276.87646008","4.03574514389","1281.06882811","4.96659994125","1286.03549719","1.03340005875","1287.12053919","1288.98190808","1289.0540731","1292.05689502","0","1292.07236814","1299.4599061",""
"sujeto_d60b64ec","1","2","24","56","1299.60728812","inverse","2","1","1","¿Cuál es la canción con 
mas covers? ","Yesterday","Stand by me","","0","0","0","competitive","left","0.890161991119","1300.49752116","4.10983800888","1304.76470804","3.79973888397","1308.56450605","2.20026111603","1310.81574917","1312.21391106","1312.30044603","1315.30343413","0","1315.31765699","1319.48848915",""
"sujeto_d60b64ec","1","2","25","57","1319.61967015","direct","1","1","4","¿Cuánto duró la guerra
 de los 100 años?","116","123","","0","0","0","competitive","left","0.968816041946","1320.588552","4.03118395805","1324.76993108","4.15353393555","1328.92350507","1.84646606445","1330.82344699","1332.30427217","1332.39102006","1335.393996","0","1335.40859818","1337.728369",""
"sujeto_d60b64ec","1","2","26","58","1337.86005402","inverse","4","1","4","¿Qué color tiene la  bandera de Brasil?","Amarillo","Naranja","left","0","0","1","competitive","left","1.3364109993","1339.19653106","3.6635890007","1343.01879001","3.91764593124","1346.93647814","2.08235406876","1349.06842804","1350.63498306","1350.72004008","1353.72304797","1","1353.73772907","1356.770509",""
"sujeto_d60b64ec","1","2","27","59","1356.92182302","direct","4","1","3","¿Qué carabela de 
Colon no volvió del viaje?","Santa María","La pinta","","0","0","1","competitive","left","1.21763205528","1358.13952112","3.78236794472","1362.07522607","5.35425901413","1367.42952418","0.64574098587","1368.12854505","1369.61954808","1369.69489908","1372.697052","0","1372.71256399","1374.81202698",""
"sujeto_d60b64ec","1","2","28","60","1374.94774103","inverse","4","1","4","¿Cuántos huesos tiene
 un adulto humano?","217","206","","0","0","1","competitive","right","0.864717960358","1375.8125031","4.13528203964","1380.1192472","3.78224110603","1383.90153217","2.21775889397","1386.17015815","1387.44117999","1387.52056313","1390.52350616","0","1390.53821421","1398.37592602",""
"sujeto_d60b64ec","1","2","29","61","1398.52631116","direct","1","1","1","¿Qué país africano fue 
fundado por esclavos?","Liberia","Chad","","0","0","0","competitive","right","1.62718009949","1400.15353703","3.37281990051","1403.68168902","4.59482693672","1408.27658701","1.40517306328","1409.71688414","1411.70854306","1411.78524399","1414.78822303","0","1414.8022902","1422.79314613",""
"sujeto_d60b64ec","1","2","30","62","1422.93695807","inverse","4","1","2","¿A cuánto asciende la cima
 del monte Everest?","7.990 mts","8.848 mts","","0","0","1","competitive","right","0.881592035294","1423.81862998","4.11840796471","1428.09499717","4.62055206299","1432.71561003","1.37944793701","1434.14699101","1435.33090305","1435.41349506","1438.416435","0","1438.4311192","1445.61522317",""
"sujeto_d60b64ec","1","2","31","63","1445.74940014","direct","4","1","1","¿Cuál es el país mas chico?","Sealand","Luxemburgo","","1","1","1","competitive","right","0.799164056778","1446.54867005","4.20083594322","1450.90619111","4.58037400246","1455.48662806","1.41962599754","1456.95798016","1458.81987906","1458.89178014","1461.89476705","1","1461.90928102","1465.031569",""
"sujeto_d60b64ec","1","2","32","64","1465.17786217","inverse","2","1","4","¿Cuántas pirámides hay en Egipto?","10000","11000","","1","1","1","competitive","left","0.790683031082","1465.968611","4.20931696892","1470.33137107","3.97211194038","1474.30352807","2.02788805962","1476.38413119","1477.41767311","1477.50147104","1480.5044322","1","1480.51877308","1485.62785316",""
"sujeto_d60b64ec","1","3","1","65","1600.4475801","direct","2","1","2","¿Cuál es el quinto país con 
mas extensión?","Canadá","Brasil","","1","1","0","competitive","left","1.03503680229","1601.48268008","3.96496319771","1605.60130811","4.56822800636","1610.16960216","1.43177199364","1611.65248704","1612.98580408","1613.07067299","1616.07366014","1","1616.08731103","1623.81192112","1485.63944507"
"sujeto_d60b64ec","1","3","2","66","1623.93934608","inverse","1","1","2","¿Qué rasgo facial no tiene
 la Mona Lisa?","Cejas","Pómulos","","0","0","1","competitive","left","0.866307973862","1624.80572414","4.13369202614","1629.11511016","5.209430933","1634.32458401","0.790569067001","1635.14967799","1636.89985609","1636.98504901","1639.98801208","0","1640.00162721","1646.27295709",""
"sujeto_d60b64ec","1","3","3","67","1646.41996408","direct","4","1","3","¿Cuál es el país con 
mayor población?","Esados Unidos","China","right","0","0","1","competitive","right","2.04367780685","1648.46371198","2.95632219315","1651.57655907","3.75603795052","1655.33263803","2.24396204948","1657.62834215","1659.27435398","1659.36241913","1662.36541319","1","1662.38012099","1665.74742413",""
"sujeto_d60b64ec","1","3","4","68","1665.88161016","inverse","1","1","1","La palabra dinosaurio significa","Lagarto Terrible","Lagarto Dragón","","1","1","0","competitive","","0.809988975525","1666.69164515","4.19001102448","1671.03680801","6","1677.03695107","0","1677.05272412","1678.22301698","1678.30580902","1681.30878711","0","1681.32312703","1684.1848712",""
"sujeto_d60b64ec","1","3","5","69","1684.32483602","direct","2","1","3","¿Qué es el membrillero?","Arbol","Arbusto","","0","0","0","competitive","left","0.896776914597","1685.22168303","4.1032230854","1689.49513507","4.6764497757","1694.17162418","1.3235502243","1695.53004503","1697.4841671","1697.56382418","1700.5668211","0","1700.5813241","1707.04537106",""
"sujeto_d60b64ec","1","3","6","70","1707.18308616","inverse","3","1","3","¿Alrededor de qué planeta orbita 
el satélite Europa?","Jupiter","Saturno","","1","1","1","competitive","right","1.2075650692","1708.39069605","3.7924349308","1712.32456303","5.90902996063","1718.23365402","0.0909700393677","1718.35982704","1719.90460205","1719.97673702","1722.97973108","1","1722.99445605","1725.1996181",""
"sujeto_d60b64ec","1","3","7","71","1725.32905412","direct","3","1","1","¿Donde fue el mundial de 
fútbol de 1954?","Suiza","Suecia","","1","1","1","competitive","right","0.923609018326","1726.25273108","4.07639098167","1730.48348498","4.35214209557","1734.83566713","1.64785790443","1736.53524208","1737.78784204","1737.86955619","1740.87249613","1","1740.88677216","1744.79850411",""
"sujeto_d60b64ec","1","3","8","72","1744.93827915","inverse","1","1","4","¿Cuál de los 7 enanitos
no tenía barba?","Bashful","Mudito","","1","1","0","competitive","left","0.665407180786","1745.6037302","4.33459281921","1750.10556006","4.46909785271","1754.57469702","1.53090214729","1756.15914011","1757.73930216","1757.80940509","1760.81241918","1","1760.82705903","1765.7561481",""
"sujeto_d60b64ec","1","3","9","73","1765.9124012","direct","3","1","2","¿Cual red social es
mas utilizada mundialmente?","Instagram","Facebook","","1","1","0","competitive","right","0.830269098282","1766.74272108","4.16973090172","1771.07179809","4.40284490585","1775.47470617","1.59715509415","1777.12313008","1779.04050112","1779.12402606","1782.12699318","1","1782.14157605","1785.07610202",""
"sujeto_d60b64ec","1","3","10","74","1785.22610712","inverse","4","1","1","¿Cuándo se inició la copa
 América de fútbol?","1916","1923","","1","1","1","competitive","left","0.902578115463","1786.12878013","4.09742188454","1790.39796805","4.23368883133","1794.63171721","1.76631116867","1796.45002198","1798.34746814","1798.4339602","1801.4369452","1","1801.45138812","1804.10747504",""
"sujeto_d60b64ec","1","3","11","75","1804.25317597","direct","3","1","4","¿Cuántos presidentes de EEUU
han muerto asesinados?","3","4","","0","0","1","competitive","left","1.03857398033","1805.29184413","3.96142601967","1809.42286611","3.42479610443","1812.84770513","2.57520389557","1815.47483897","1816.95878816","1817.04409814","1820.04710603","0","1820.06043911","1823.70452619",""
"sujeto_d60b64ec","1","3","12","76","1823.84560204","inverse","2","1","4","¿Cuántas veces participó EEUU
 en la copa América?","4","5","","0","0","1","competitive","left","0.840077877045","1824.68572712","4.15992212296","1829.01816106","4.17450594902","1833.19270706","1.82549405098","1835.0694201","1836.51349521","1836.58648419","1839.58946705","0","1839.60401416","1845.72120905",""
"sujeto_d60b64ec","1","3","13","77","1845.85571408","direct","4","1","1","¿Cuál de estos países 
no formaba la URSS?","Azeribayán","Afganistán","","0","0","1","competitive","left","0.871984004974","1846.7277472","4.12801599503","1851.04661798","4.27409100533","1855.32078099","1.72590899467","1857.08089209","1858.3939712","1858.48188114","1861.48487306","0","1861.49934006","1869.48149109",""
"sujeto_d60b64ec","1","3","14","78","1869.6171782","inverse","1","1","1","¿En qué año se inauguró
 el teatro Solís?","1867","1856","","0","0","0","competitive","right","0.865549087524","1870.48282814","4.13445091248","1874.79204106","4.19667291641","1878.98875499","1.80332708359","1880.82587004","1881.8821981","1881.96023011","1884.96319818","0","1884.97755718","1891.62536407",""
"sujeto_d60b64ec","1","3","15","79","1891.76171017","direct","1","1","4","¿A qué velocidad vuela 
el avión más rápido?","3529","3874","","0","0","0","competitive","right","1.37906312943","1893.14081812","3.62093687057","1896.92010498","4.31561112404","1901.23576307","1.68438887596","1902.97118115","1904.72667503","1904.8054111","1907.80840421","0","1907.82263017","1909.93290806",""
"sujeto_d60b64ec","1","3","16","80","1910.07424712","inverse","3","1","4","¿De qué año es la primer 
película cinematográfica?","1897","1888","","0","0","0","competitive","right","0.960491895676","1911.03482819","4.03950810432","1915.2294662","5.33826398849","1920.56782603","0.661736011505","1921.28069615","1922.41363406","1922.49788308","1925.50082612","0","1925.51550007","1930.9252851",""
"sujeto_d60b64ec","1","3","17","81","1931.06669307","direct","2","1","3","¿Cuántos países 
tiene nuestro planeta?","191","194","","1","1","1","competitive","right","0.982107877731","1932.04885411","4.01789212227","1936.22371912","4.18106722832","1940.40482807","1.81893277168","1942.27427506","1943.63151598","1943.70838904","1946.71138","1","1946.72607708","1949.96438599",""
"sujeto_d60b64ec","1","3","18","82","1950.11118913","inverse","2","1","2","¿Cuántos habitantes
 tiene Buenos Aires?","2.9000.000","3650000","","0","0","0","competitive","right","0.850942134857","1950.96220398","4.14905786514","1955.28352618","4.50126194954","1959.78485012","1.49873805046","1961.33479404","1962.73203206","1962.81831098","1965.82128501","0","1965.83562613","1971.66498208",""
"sujeto_d60b64ec","1","3","19","83","1971.80381513","direct","2","1","1","¿Cuántos kilos forman una tonelada?","1000","1500","left","1","1","1","competitive","right","1.21999120712","1973.02385211","3.78000879288","1976.96104002","4.92673993111","1981.88783216","1.07326006889","1982.9957962","1984.88317013","1984.96286106","1987.9658072","0","1987.98136115","1993.93873906",""
"sujeto_d60b64ec","1","3","20","84","1994.09860206","inverse","4","1","4","¿Cuántos estados tiene la 
República del Perú? ","24","23","","0","0","1","competitive","right","0.961202859879","1995.05985904","4.03879714012","1999.25627613","4.85456895828","2004.1108861","1.14543104172","2005.30753899","2006.32965899","2006.40781498","2009.4107852","0","2009.42545009","2014.37070298",""
"sujeto_d60b64ec","1","3","21","85","2014.5091691","direct","3","1","3","¿En qué año nació Cristóbal Colón? ","1451","1447","","0","0","1","competitive","right","1.02206993103","2015.53130817","3.97793006897","2019.64886713","5.18697810173","2024.83591104","0.81302189827","2025.70097899","2027.54689503","2027.61839008","2030.62138319","0","2030.63615799","2034.86415505",""
"sujeto_d60b64ec","1","3","22","86","2035.00360608","inverse","4","1","4","¿Cuánto mide la 
Montaña Aconcagua? ","6234","6962","","0","0","1","competitive","right","0.954293966293","2035.95797205","4.04570603371","2040.17617106","4.65764498711","2044.833884","1.34235501289","2046.21141911","2047.50077701","2047.578444","2050.58142614","0","2050.59571719","2057.77935719",""
"sujeto_d60b64ec","1","3","23","87","2057.91743112","direct","2","1","4","¿Cuánto mide el punto
 más profundo del océano? ","12508","11003","","0","0","1","competitive","left","0.950434207916","2058.86791015","4.04956579208","2063.08588004","4.85998392105","2067.94592619","1.14001607895","2069.12234211","2070.37386513","2070.45612001","2073.45910716","0","2073.47341108","2077.67966413",""
"sujeto_d60b64ec","1","3","24","88","2077.80770111","inverse","1","1","3","¿Cuántos álbumes ha publicado 
el cantante Jaime Roos? ","41","34","","0","0","1","competitive","left","0.763226032257","2078.57098317","4.23677396774","2082.96513915","4.55265808105","2087.51783705","1.44734191895","2089.01701307","2090.50682902","2090.58439803","2093.5874002","0","2093.60210299","2099.79825997",""
"sujeto_d60b64ec","1","3","25","89","2099.93671107","direct","4","1","3","¿En qué año nació el 
ex-presidente Jorge Battle? ","1921","1927","","1","1","1","competitive","left","0.777182817459","2100.71393919","4.22281718254","2105.09372997","5.34509110451","2110.43886209","0.654908895493","2111.1286571","2112.85937214","2112.94514799","2115.9481132","1","2115.96284819","2119.44887018",""
"sujeto_d60b64ec","1","3","26","90","2119.58022714","inverse","1","1","3","¿Cuántas presidencias 
constitucionales  hubo en Uruguay? ","41","42","","0","0","1","competitive","left","0.897653102875","2120.477947","4.10234689713","2124.73718309","4.1727077961","2128.90993309","1.8272922039","2130.78811908","2131.99190998","2132.0730412","2135.0760262","0","2135.08946705","2140.8731091",""
"sujeto_d60b64ec","1","3","27","91","2141.00766206","direct","1","1","2","¿Quién escribió mas sinfonías?","Mozart","Haydn","","1","1","0","competitive","left","0.849259853363","2141.85696697","4.15074014664","2146.17958713","4.925314188","2151.10496116","1.074685812","2152.21424103","2153.4316802","2153.51502013","2156.51796603","1","2156.53258419","2160.28396416",""
"sujeto_d60b64ec","1","3","28","92","2160.43345499","inverse","4","1","2","¿En qué año nació Michael Jackson?","1958","1953","","1","1","1","competitive","right","1.02344799042","2161.45697212","3.97655200958","2165.59120417","4.23870396614","2169.82997012","1.76129603386","2171.64274597","2173.62101102","2173.69327116","2176.69625902","1","2176.71255016","2182.57487702",""
"sujeto_d60b64ec","1","3","29","93","2182.71065712","direct","3","1","2","¿En qué año entró en vigencia 
la ley antitabaco en Uruguay?","2005","2006","","1","1","1","competitive","right","1.07624721527","2183.78697109","3.92375278473","2187.88585305","5.40005302429","2193.28594708","0.599946975708","2193.93791318","2195.53264403","2195.60454798","2198.60753608","1","2198.62186408","2203.95584607",""
"sujeto_d60b64ec","1","3","30","94","2204.09045815","inverse","3","1","1","¿Cuándo se subió el 
primer video a youtube?","2004","2005","","0","0","1","competitive","left","0.832519054413","2204.92304802","4.16748094559","2209.2629981","4.70490598679","2213.96796513","1.29509401321","2215.31558108","2216.62123799","2216.69928098","2219.70224619","0","2219.71648312","2227.4720571",""
"sujeto_d60b64ec","1","3","31","95","2227.61784601","direct","2","1","1","¿Cuántos habitantes tiene India?","1200 millones","1300 millones","","0","0","0","competitive","left","0.889113903046","2228.5070951","4.11088609695","2232.78961205","4.63634085655","2237.4260242","1.36365914345","2238.8422811","2240.81192803","2240.89366508","2243.89590001","0","2243.91145015","2249.95897102",""
"sujeto_d60b64ec","1","3","32","96","2250.1118412","inverse","4","1","2","¿A qué edad murió Bob Marley?","36","37","","0","0","1","competitive","right","0.954102039337","2251.06600904","4.04589796066","2255.27055311","3.32838177681","2258.59897804","2.67161822319","2261.3042872","2263.20184612","2263.29004598","2266.29303312","0","2266.30761003","2269.40963697",""
"sujeto_d60b64ec","1","4","1","97","2386.47010517","direct","2","1","1","¿Cuantos años dirigió la selección 
uruguaya Tabarez?","15 años","13 años","","0","0","0","competitive","left","1.34086298943","2387.81103611","3.65913701057","2391.64108706","4.25586390495","2395.897017","1.74413609505","2397.6923492","2398.88351512","2398.96034813","2401.96332812","0","2401.977072","2409.04911399","2269.42130113"
"sujeto_d60b64ec","1","4","2","98","2409.19482803","inverse","4","1","1","¿Cuantas teclas tiene un teclado 
de computadora generalmente? ","Entre 99 y 108","Entre 109 y 113","","1","1","1","competitive","right","2.47715997696","2411.67205811","2.52284002304","2414.35318208","5.12479996681","2419.47803998","0.875200033188","2420.4051311","2421.40787816","2421.48841214","2424.49135303","1","2424.50584102","2426.87728119",""
"sujeto_d60b64ec","1","4","3","99","2427.00718403","direct","1","1","1","¿Cuál Departamento tiene
 mayor superficie?","Río Negro","Soriano","","0","0","0","competitive","left","1.12287306786","2428.13010502","3.87712693214","2432.17621398","4.84980106354","2437.02607417","1.15019893646","2438.22823215","2439.94171619","2440.02931309","2443.03231502","0","2443.04659009","2447.37268305",""
"sujeto_d60b64ec","1","4","4","100","2447.5151782","inverse","3","1","2","¿Cuál es el apellido de las 
hermanastras  de  cenicienta?","Tremaine","Truman","","0","0","1","competitive","left","0.859846115112","2448.37509704","4.14015388489","2452.67208099","5.0569229126","2457.72904301","0.943077087402","2458.70707202","2460.5766151","2460.65748811","2463.66047621","0","2463.67516112","2466.37112999",""
"sujeto_d60b64ec","1","4","5","101","2466.51002407","direct","4","1","4","¿Cuál película ganó un
 Oscar a mejor película?","Alto Impacto","Cache","","0","0","1","competitive","left","1.0670440197","2467.57711816","3.9329559803","2471.68231702","4.73772096634","2476.42007709","1.26227903366","2477.73333812","2478.85188198","2478.93405604","2481.93704319","0","2481.95080519","2484.214118",""
"sujeto_d60b64ec","1","4","6","102","2484.35241914","inverse","1","1","3","¿A cuántos centímetros
equivale la medida pié?","25","30","","0","0","1","competitive","left","0.781605005264","2485.13406706","4.21839499474","2489.506639","3.83639287949","2493.34309912","2.16360712051","2495.55911207","2496.59911919","2496.67702317","2499.67997718","0","2499.69438004","2505.09536505",""
"sujeto_d60b64ec","1","4","7","103","2505.22823811","direct","2","1","2","¿Qué departamento es mas grande?","Cerro Largo","Paysandú","","0","0","0","competitive","right","0.813838005066","2506.04214311","4.18616199493","2510.40213013","4.84089422226","2515.24306417","1.15910577774","2516.43752217","2518.03724504","2518.12137413","2521.124336","0","2521.13903809","2525.24896407",""
"sujeto_d60b64ec","1","4","8","104","2525.39020419","inverse","2","1","3","¿Quién pintó la Mona Lisa?","Picasso","Da Vinci","right","0","0","1","competitive","right","0.729867935181","2526.12014914","4.27013206482","2530.54636002","5.07666707039","2535.62308908","0.923332929611","2536.58038306","2538.18583298","2538.2633791","2541.26633215","1","2541.28003001","2543.44234419",""
"sujeto_d60b64ec","1","4","9","105","2543.59903812","direct","4","1","3","¿Cuántos litros hay en un galon?","3.54","3.78","","1","1","1","competitive","left","0.814044952393","2544.41315103","4.18595504761","2548.77259302","4.35945296288","2553.13208699","1.64054703712","2554.80618811","2556.32403803","2556.40800405","2559.41093516","1","2559.42527318","2565.21398997",""
"sujeto_d60b64ec","1","4","10","106","2565.35981798","inverse","4","1","1","¿Cuántas teclas tiene
 un piano moderno?","80","88","","0","0","1","competitive","","1.26028800011","2566.62017298","3.73971199989","2570.51157808","6","2576.51168799","0","2576.52850318","2577.53692198","2577.61516118","2580.61810303","0","2580.63280416","2587.42424417",""
"sujeto_d60b64ec","1","4","11","107","2587.58433104","direct","4","1","3","¿Cuántos países hay en África?","54","62","","0","0","1","competitive","left","1.61882090569","2589.20322108","3.38117909431","2592.743716","5.19233393669","2597.93608999","0.807666063309","2598.77596402","2600.46582603","2600.54345107","2603.54641199","0","2603.561234","2611.36391997",""
"sujeto_d60b64ec","1","4","12","108","2611.51180005","inverse","1","1","3","¿En qué siglo se crearon
 las primeras pistolas?","XV","XIII","","1","1","1","competitive","right","1.23830795288","2612.75018215","3.76169204712","2616.67384219","5.87430596352","2622.54818916","0.125694036484","2622.70828509","2624.65619397","2624.74226999","2627.74522901","1","2627.76004601","2630.99314117",""
"sujeto_d60b64ec","1","4","13","109","2631.14574099","direct","3","1","4","¿En qué año se estrenó 
la serie friends?","1994","1995","","0","0","1","competitive","left","0.994400024414","2632.1402061","4.00559997559","2636.30090308","4.0812728405","2640.38223815","1.9187271595","2642.35206604","2644.22684407","2644.30219507","2647.30517316","0","2647.32036901","2652.32642698",""
"sujeto_d60b64ec","1","4","14","110","2652.45482206","inverse","3","1","4","¿En qué año nació Hitler?","1889","1887","","0","0","1","competitive","right","2.02235794067","2654.47722507","2.97764205933","2657.61015415","4.4289700985","2662.03916717","1.5710299015","2663.64604306","2664.76043701","2664.84682012","2667.84980297","0","2667.86402917","2672.89099717",""
"sujeto_d60b64ec","1","4","15","111","2673.03266001","direct","1","1","4","¿Cuánto pesa un elefante Africano?","6000 kilos","5400 kilos","","0","0","0","competitive","left","0.715501070023","2673.74820399","4.28449892998","2678.18830419","3.37784314156","2681.56621504","2.62215685844","2684.22295499","2685.57889318","2685.65732598","2688.66031909","0","2688.67494917","2695.38197803",""
"sujeto_d60b64ec","1","4","16","112","2695.52701807","inverse","1","1","2","¿Qué porcentaje de 
la población es zurda?","10%","7%","","1","1","0","competitive","right","0.966178894043","2696.49324918","4.03382110596","2700.68287516","3.79029607773","2704.473212","2.20970392227","2706.73418617","2707.97731018","2708.06804705","2711.0710001","1","2711.08579397","2717.06554604",""
"sujeto_d60b64ec","1","4","17","113","2717.20440912","direct","1","1","2","¿En qué año se estrenó
Volver al futuro?","1984","1985","","0","0","1","competitive","right","1.08575320244","2718.29021215","3.91424679756","2722.37837601","4.23073792458","2726.60917401","1.76926207542","2728.42896509","2729.99079108","2730.08064008","2733.08362699","0","2733.09805799","2740.18949819",""
"sujeto_d60b64ec","1","4","18","114","2740.33237505","inverse","3","1","2","¿Cuántos jugadores hay en un 
equipo de baseball?","9","8","","1","1","0","competitive","left","1.55979585648","2741.89221621","3.44020414352","2745.50636005","4.790776968","2750.2971971","1.209223032","2751.54112005","2753.15537214","2753.24183512","2756.24484921","1","2756.25906706","2761.2362721",""
"sujeto_d60b64ec","1","4","19","115","2761.37765408","direct","2","1","1","¿Cuántos Oscar ganó
 la película titanic?","13","11","","1","1","1","competitive","right","1.67255783081","2763.05028009","3.32744216919","2766.533149","3.93706583977","2770.47025609","2.06293416023","2772.58353209","2773.88559914","2773.96767306","2776.97065806","1","2776.98730302","2781.58998299",""
"sujeto_d60b64ec","1","4","20","116","2781.73709512","inverse","4","1","4","¿En qué año comenzó
la segunda guerra mundial?","1939","1976","left","0","0","1","competitive","right","0.956078052521","2782.69324303","4.04392194748","2786.92817998","3.67102313042","2790.599262","2.32897686958","2792.9790411","2794.77891111","2794.86359715","2797.86658907","0","2797.88084602","2801.86791801",""
"sujeto_d60b64ec","1","4","21","117","2801.99868608","direct","2","1","4","¿Cuántos biomas hay en Uruguay?","5","4","","0","0","1","competitive","right","1.19453692436","2803.19329","3.80546307564","2807.15490913","3.06829309464","2810.22326112","2.93170690536","2813.20566702","2815.00299621","2815.09002519","2818.09299612","0","2818.1083672","2824.35780311",""
"sujeto_d60b64ec","1","4","22","118","2824.50907016","inverse","2","1","3","¿Cuándo murió Pablo Escobar?","1993","1997","","1","1","1","competitive","right","0.670180082321","2825.17931104","4.32981991768","2829.68205309","5.05217695236","2834.73429418","0.947823047638","2835.73504806","2837.51793218","2837.60249615","2840.60544705","1","2840.61878419","2846.32241011",""
"sujeto_d60b64ec","1","4","23","119","2846.45478702","direct","1","1","4","¿Qué serie ha ganado mas premios?","Friends","Murphy Brown","","1","1","0","competitive","left","1.19148588181","2847.64638209","3.80851411819","2851.61010718","3.51209306717","2855.12226009","2.48790693283","2857.66007805","2859.01249909","2859.09502697","2862.09802818","1","2862.11276412","2867.67439198",""
"sujeto_d60b64ec","1","4","24","120","2867.81446505","inverse","4","1","2","¿Cuántas fichas tiene el dominó?","26","28","","1","1","1","competitive","right","1.1737818718","2868.98837399","3.8262181282","2872.971946","4.05732488632","2877.02933502","1.94267511368","2879.02344108","2880.078789","2880.15776706","2883.16077709","1","2883.17544007","2888.41410899",""
"sujeto_d60b64ec","1","4","25","121","2888.54327416","direct","2","1","4","¿Cuántos son los dientes de leche?","20","25","","0","0","1","competitive","right","1.09399223328","2889.63733411","3.90600776672","2893.69964314","3.76560115814","2897.46528411","2.23439884186","2899.73301816","2901.44339013","2901.51750898","2904.5205121","0","2904.5359931","2906.6817112",""
"sujeto_d60b64ec","1","4","26","122","2906.82045412","inverse","3","1","3","¿Cuántos gramos son una onza?","22","28","","0","0","1","competitive","right","1.0818400383","2907.9023602","3.9181599617","2911.98910618","2.8112180233","2914.80036902","3.1887819767","2918.02451706","2920.01937413","2920.09304214","2923.09603214","0","2923.110677","2929.40093207",""
"sujeto_d60b64ec","1","4","27","123","2929.52878404","direct","3","1","1","¿Cuándo salió el primer album
 de los Beatles?","1963","1962","","1","1","1","competitive","left","0.669529914856","2930.19837999","4.33047008514","2934.68699718","4.17927598953","2938.86633801","1.82072401047","2940.73860717","2941.90222716","2941.98936009","2944.99234104","1","2945.00694919","2948.77899003",""
"sujeto_d60b64ec","1","4","28","124","2948.90816617","inverse","3","1","3","¿Quién fundó la empresa apple?","Carlos Slim","Steve Jobs","","1","1","1","competitive","left","0.769153118134","2949.67742419","4.23084688187","2954.09749198","3.78475189209","2957.882303","2.21524810791","2960.1482172","2961.26288915","2961.34931016","2964.35229301","1","2964.36704516","2970.66491604",""
"sujeto_d60b64ec","1","4","29","125","2970.81792021","direct","4","1","2","¿Cuántos municipios hay
 en Montevideo?","8","7","","1","1","1","competitive","left","0.861357927322","2971.6793232","4.13864207268","2975.97552109","3.8147649765","2979.79032803","2.1852350235","2982.02573419","2983.93991113","2984.02752519","2987.03045607","1","2987.044981","2989.1260941",""
"sujeto_d60b64ec","1","4","30","126","2989.26281118","inverse","1","1","1","¿Cuántos kilómetros hay
 de Montevideo a Artigas?","632","599","","0","0","0","competitive","right","0.971348047256","2990.234267","4.02865195274","2994.43402314","5.01932907104","2999.45339417","0.980670928955","3000.48537397","3001.96787405","3002.05258203","3005.05555201","0","3005.07028913","3011.1224072",""
"sujeto_d60b64ec","1","4","31","127","3011.25463319","direct","2","1","2","¿En qué año nació 
Leonardo Da Vinci?","1452","1511","","1","1","0","competitive","right","0.819725036621","3012.07443714","4.18027496338","3016.42986107","4.73140788078","3021.1613102","1.26859211922","3022.48039699","3024.33401418","3024.41540599","3027.41835999","1","3027.43205404","3030.57842207",""
"sujeto_d60b64ec","1","4","32","128","3030.73425007","inverse","3","1","1","¿A qué continente
 pertenece el país Gabón?","Africa","Oceanía","","0","0","1","competitive","right","0.929090976715","3031.66338706","4.07090902328","3035.88969016","4.29765200615","3040.18738198","1.70234799385","3041.94078517","3043.75183511","3043.82490015","3046.82789302","0","3046.84219408","3052.08012414",""
