"code","nro_aplicante","nro_bloque","nro_trial_bloque","nro_trial_global","show_game_type","choice_order","rival","pay_individual","pay_competitive","question","answer_left_text","answer_right_text","correct_answer","outcome_individual","outcome_competitive","outcome_rival","game_type","answer","social_time","rt_game_type","feedback_delay","show_question","answer_time","rt_answer_global","feedback_delay_2","show_jitter","jitter_time","show_outcome","outcome_time","outcome_participant_real","show_final_jitter","second_jitter_time","inicio_descanso"
"sujeto_0036567","1","1","1","1","56.5560359955","direct","3","1","4","¿Cuántos centímetros corresponden
al talle 36 del calzado?","23","24","","0","0","1","competitive","left","2.89223194122","59.4483299255","2.10776805878","61.7247099876","4.49059319496","66.2153759003","1.50940680504","67.7787690163","68.8070688248","68.8797869682","71.8827679157","0","71.8967449665","74.0592508316",""
"sujeto_0036567","1","1","2","2","74.1985399723","inverse","3","1","2","¿Cuántas metros mide la Intendencia
Municipal de Montevideo? ","84","78","","0","0","1","competitive","left","2.02680802345","76.2253918648","2.97319197655","79.3483970165","3.63293814659","82.9813809395","2.36706185341","85.3878979683","87.2659440041","87.3387329578","90.3417129517","0","90.3566939831","92.449452877",""
"sujeto_0036567","1","1","3","3","92.5919208527","direct","1","1","3","¿Cuántas La Pasiva
 hay en uruguay?","15","11","","1","1","1","competitive","right","3.13239693642","95.7243628502","1.86760306358","97.7460548878","2.60927200317","100.355374813","3.39072799683","103.796572924","105.40823698","105.481664896","108.484639883","1","108.498807907","112.777122974",""
"sujeto_0036567","1","1","4","4","112.93433094","inverse","3","1","3","¿De que color es la camiseta de uruguay?","blanca","celeste","right","1","1","1","competitive","right","2.514980793","115.449374914","2.485019207","118.088498831","3.51582288742","121.604364872","2.48417711258","124.124078035","125.328824997","125.408447981","128.411423922","1","128.426424026","131.880338907",""
"sujeto_0036567","1","1","5","5","132.011183977","direct","2","1","1","¿Cuánto metros mide
la torre Eiffel?","333","324","","1","1","1","competitive","right","1.62417316437","133.635433912","3.37582683563","137.15028882","2.75205898285","139.902387857","3.24794101715","143.199900866","144.721263885","144.801654816","147.804618835","1","147.818747997","154.855458021",""
"sujeto_0036567","1","1","6","6","154.987829924","inverse","3","1","4","¿Cuantas ciudades existen
 en todo el uruguay?","63","72","","0","0","1","competitive","right","1.96657919884","156.954457998","3.03342080116","160.144932985","3.56939697266","163.714370012","2.43060302734","166.196205854","167.250200987","167.330253839","170.333175898","0","170.347200871","177.970221043",""
"sujeto_0036567","1","1","7","7","178.132385969","direct","1","1","1","¿Cuantos estados tiene África?","52","54","","1","1","0","competitive","right","2.15997004509","180.292435884","2.84002995491","183.288839817","3.59849190712","186.887377024","2.40150809288","189.324702978","191.188725948","191.259554863","194.262658834","1","194.276860952","200.037880898",""
"sujeto_0036567","1","1","8","8","200.178376913","inverse","4","1","4","¿En qué año nació
 Stephen Hawking?","1952","1942","","0","0","1","competitive","left","2.65995502472","202.838376999","2.34004497528","205.331821918","3.98549580574","209.317379951","2.01450419426","211.369336843","212.813647985","212.886961937","215.889909983","0","215.904853821","222.004166842",""
"sujeto_0036567","1","1","9","9","222.13940382","direct","2","1","3","¿Cuánto años tenía Artigas
 cuando se fue a Paraguay?","56","57","","1","1","1","competitive","left","1.4702539444","223.609724998","3.5297460556","227.279358864","3.61498689651","230.894407988","2.38501310349","233.329933882","234.879384995","234.965106964","237.966195822","1","237.982043982","244.029304981",""
"sujeto_0036567","1","1","10","10","244.183439016","inverse","1","1","2","¿Cuantos milímetros 
mide una hoja A2?","420x592","420x594","","0","0","1","competitive","","1.97494411469","246.158448935","3.02505588531","249.324805975","6","255.324924946","0","255.339490891","256.907922029","256.99358201","259.996541023","0","260.009985924","267.083619833",""
"sujeto_0036567","1","1","11","11","267.212142944","direct","3","1","3","¿Cuál es la menor temperatura 
registrada en Uruguay?","-5.4","-7.4","","0","0","1","competitive","left","1.23622107506","268.448405981","3.76377892494","272.352370977","3.92901110649","276.28144598","2.07098889351","278.386992931","280.069010973","280.154201031","283.157166958","0","283.171798944","286.905097961",""
"sujeto_0036567","1","1","12","12","287.040292025","inverse","2","1","2","¿Cuantos años hace que 
se fundó facebook?","18","17","","0","0","0","competitive","left","2.19408202171","289.234449863","2.80591797829","292.213466883","3.05391097069","295.267446041","2.94608902931","298.263532877","299.636251926","299.715288877","302.718242884","0","302.732664824","305.507287025",""
"sujeto_0036567","1","1","13","13","305.667649984","direct","1","1","4","¿Cuál animal es más
 pesado en promedio?","Rinoceronte","Hipopotamo","","0","0","0","competitive","right","1.11073517799","306.778452873","3.88926482201","310.873030901","3.07134890556","313.944442987","2.92865109444","316.922879934","318.00206089","318.074020863","321.077026844","0","321.090847969","324.931859016",""
"sujeto_0036567","1","1","14","14","325.07682085","inverse","1","1","2","¿Qué personaje de dragon ball 
murió más veces?","Chaoz","Krillin","","1","1","0","competitive","right","2.22052001953","327.297389984","2.77947998047","330.248103857","3.42524695396","333.673393011","2.57475304604","336.300180912","337.758016825","337.834372997","340.837306976","1","340.85231781","348.622197866",""
"sujeto_0036567","1","1","15","15","348.753171921","direct","3","1","2","La universidad de oxford. 
existe desde:","1096","1249","","1","1","0","competitive","left","1.36314916611","350.11636591","3.63685083389","353.894616842","5.06979298592","358.964450836","0.930207014084","359.945977926","360.994758844","361.062453032","364.065382004","1","364.080528975","370.771381855",""
"sujeto_0036567","1","1","16","16","370.898681879","inverse","3","1","1","¿Qué escritor latino ganó antes
 el premio nobel?"," García Marquez","Neruda","","0","0","1","competitive","right","1.76269602776","372.661420822","3.23730397224","376.036500931","3.52991700172","379.566485882","2.47008299828","382.088646889","383.828636885","383.905669928","386.908644915","0","386.923766851","390.384279966",""
"sujeto_0036567","1","1","17","17","390.52568984","direct","4","1","3","¿Cuántos dientes tiene un
 tiburón blanco?","6000","3000","","0","0","1","competitive","right","2.46875309944","392.994547844","2.53124690056","395.713534832","2.39487791061","398.108459949","3.60512208939","401.766330004","402.805325031","402.885350943","405.888298988","0","405.90240097","410.712055922",""
"sujeto_0036567","1","1","18","18","410.837034941","inverse","4","1","1","¿Cuánto mide el paralelo Ecuador?","40.000km","70.000km","","0","0","1","competitive","right","1.67335700989","412.510466814","3.32664299011","415.993259907","4.10506701469","420.098387957","1.89493298531","422.045044899","424.001132011","424.078442812","427.081429005","0","427.096617937","430.699173927",""
"sujeto_0036567","1","1","19","19","430.830902815","direct","4","1","2","¿Cuál fue el primer libro 
de Stephen King?","Carrie","The Stand","","1","1","1","competitive","left","1.71149706841","432.542444944","3.28850293159","435.987587929","3.15477800369","439.142410994","2.84522199631","442.037411928","443.781503916","443.855911016","446.858880997","1","446.872630835","451.347069025",""
"sujeto_0036567","1","1","20","20","451.475200891","inverse","2","1","3","¿Qué civilización practicaba
 la momificación?","Grecia","Egipto","right","0","0","1","competitive","right","2.0931930542","453.568442822","2.9068069458","456.630543947","2.13380980492","458.764394045","3.86619019508","462.680932045","464.620203018","464.699208021","467.702169895","1","467.717175961","471.945003033",""
"sujeto_0036567","1","1","21","21","472.085290909","direct","4","1","4","¿Cuántos millones de visitas
 recibe google por minuto?","3.0","4.5","","0","0","1","competitive","right","2.07006788254","474.155426025","2.92993211746","477.257360935","3.73899698257","480.996403933","2.26100301743","483.308657885","484.823511839","484.91030097","487.91327095","0","487.927639961","495.050235033",""
"sujeto_0036567","1","1","22","22","495.179177999","inverse","1","1","3","La máquina de fax. se inventó en:","1843","1960","","0","0","1","competitive","right","1.80024218559","496.979463816","3.19975781441","500.33742404","3.53094410896","503.868428946","2.46905589104","506.386852026","507.62895298","507.705008984","510.707991838","0","510.722048998","513.958240986",""
"sujeto_0036567","1","1","23","23","514.091365814","direct","2","1","4","En la verdadera historia de los
 300 espartanos. habían:","300 soldados","4300 soldados","","1","1","1","competitive","right","1.14699196815","515.238433838","3.85300803185","519.246014833","3.12136602402","522.367445946","2.87863397598","525.296459913","526.557687044","526.63193202","529.634917974","1","529.647963047","533.449739933",""
"sujeto_0036567","1","1","24","24","533.583182812","inverse","1","1","4","¿Cuántos milímetros crece
 el pelo por día?","0.4","0.04","","0","0","0","competitive","right","1.75117611885","535.334408045","3.24882388115","538.735622883","3.45471906662","542.190382957","2.54528093338","544.787657976","546.548349857","546.622848034","549.625818968","0","549.640745878","556.37585783",""
"sujeto_0036567","1","1","25","25","556.524942875","direct","4","1","1","¿Cuánto mide la baldosa gris 
clásica de Montevideo?","22x22 cm.","20x20 cm.","","1","1","1","competitive","left","3.10345196724","559.628439903","1.89654803276","561.697995901","4.72937488556","566.42741704","1.27062511444","567.735469818","569.730736017","569.802724838","572.805713892","1","572.820067883","578.362881899",""
"sujeto_0036567","1","1","26","26","578.488936901","inverse","2","1","2","¿Cuántas películas de rápidos
 y furiosos hay?","10","11","","1","1","0","competitive","right","1.36946296692","579.858449936","3.63053703308","583.646108866","2.42626285553","586.072434902","3.57373714447","589.696460009","591.054198027","591.130995035","594.13398385","1","594.148196936","596.182222843",""
"sujeto_0036567","1","1","27","27","596.317044973","direct","3","1","1","¿Cuántos masters 1000
 ganó Del Potro?","1","2","","1","1","1","competitive","right","0.99936914444","597.316483021","4.00063085556","601.504482985","3.82185602188","605.326406002","2.17814397812","607.555841923","609.310459852","609.390702963","612.393680811","1","612.407660961","619.802237034",""
"sujeto_0036567","1","1","28","28","619.926407814","inverse","2","1","4","¿Cuántos meses dura el 
embarazo de una leona?","3 meses","4 meses","","0","0","1","competitive","right","1.65695595741","621.583412886","3.34304404259","625.083290815","3.22409892082","628.30745697","2.77590107918","631.133427858","632.244503975","632.317550898","635.320510864","0","635.334626913","642.057116032",""
"sujeto_0036567","1","1","29","29","642.186271906","direct","1","1","1","¿En qué año fue creado
 el sandwich?","1762","1653","","1","1","0","competitive","left","1.1061398983","643.29248786","3.8938601017","647.346238852","2.91213607788","650.258416891","3.08786392212","653.378998995","654.977553844","655.06476903","658.067750931","1","658.081806898","661.550220013",""
"sujeto_0036567","1","1","30","30","661.700460911","inverse","4","1","2","El nombre de la moneda de Vietnam es:","Dinar","Dong","","0","0","1","competitive","right","1.30491495132","663.005424023","3.69508504868","666.855499029","3.39689016342","670.252449989","2.60310983658","672.889704943","674.321696997","674.408093929","677.41108489","0","677.425189018","683.593613863",""
"sujeto_0036567","1","1","31","31","683.72653389","direct","2","1","1","¿cuantos aleteos puede dar 
un colibrí por segundo?","120","50","","0","0","0","competitive","left","1.14387083054","684.870448828","3.85612916946","688.883637905","3.22778201103","692.111486912","2.77221798897","694.917290926","696.649693012","696.719094038","699.72209096","0","699.736055851","703.946228027",""
"sujeto_0036567","1","1","32","32","704.088021994","inverse","4","1","3","¿Qué altura promedio tienen
 los hombres uruguayos?","1.73 m","1.72 m","","1","1","1","competitive","left","2.51339101791","706.601478815","2.48660898209","709.259646893","2.9747710228","712.23445797","3.0252289772","715.31187892","716.574201822","716.64662385","719.649600029","1","719.66373086","724.139673948",""
"sujeto_0036567","1","2","1","33","852.116751909","direct","1","1","1","¿En qué año nació 
el actor Bradd Pitt?","1967","1963","","1","1","1","competitive","right","1.11263418198","853.229449034","3.88736581802","857.269534826","2.90490007401","860.174479961","3.09509992599","863.320444822","864.416285038","864.48872304","867.491713047","1","867.505657911","873.433226824","724.154508829"
"sujeto_0036567","1","2","2","34","873.573314905","inverse","2","1","1","¿Cual es el segundo 
monte más alto?","Kanchenjunga","K2","","1","1","1","competitive","right","1.27110099792","874.844460011","3.72889900208","878.731230021","3.50414896011","882.235417843","2.49585103989","884.781735897","886.234155893","886.316601038","889.318233013","1","889.334110022","892.764019966",""
"sujeto_0036567","1","2","3","35","892.902601957","direct","3","1","1","¿Cuándo finalizó la construcción
 del Palacio Legislativo?","1925","1917","","0","0","1","competitive","left","0.695824146271","893.59849","4.30417585373","898.074388027","3.85200214386","901.926450968","2.14799785614","904.125677824","905.767380953","905.843063831","908.846056938","0","908.860136032","914.557696819",""
"sujeto_0036567","1","2","4","36","914.695125818","inverse","3","1","3","¿Cuántos integrantes tenía
 en su inicio  el cuarteto de nos?","3","4","","1","1","1","competitive","right","1.58626794815","916.281443834","3.41373205185","919.852787971","3.81758904457","923.670439959","2.18241095543","925.903172016","927.036226988","927.121896029","930.12224102","1","930.13842988","935.788224936",""
"sujeto_0036567","1","2","5","37","935.922770023","direct","2","1","3","¿Qué valor tiene el número pi?","3.14","4.18","left","0","0","1","competitive","left","1.95066213608","937.873483896","3.04933786392","941.096649885","2.84179091454","943.938508034","3.15820908546","947.147143841","948.601344824","948.682446957","951.685436964","1","951.699352026","958.620312929",""
"sujeto_0036567","1","2","6","38","958.767714024","inverse","2","1","2","¿Cuál es la esperanza de vida
 en Uruguay?","75","77","","1","1","0","competitive","right","1.72271800041","960.490510941","3.27728199959","963.925884962","4.0345351696","967.960460901","1.9654648304","969.975607872","971.629397869","971.71011281","974.713122845","1","974.728031874","981.191064835",""
"sujeto_0036567","1","2","7","39","981.329869986","direct","1","1","2","¿Cuantos pisos tiene la torre 
de las comunicaciones?","26","32","","1","1","0","competitive","right","1.51654601097","982.846460819","3.48345398903","986.500571966","2.97486615181","989.475479841","3.02513384819","992.535311937","994.36412096","994.436674833","997.439612865","1","997.453699827","999.599906921",""
"sujeto_0036567","1","2","8","40","999.739428997","inverse","2","1","4","¿En qué país sudamericano 
no hay McDonalds?","Bolivia","Venezuela","","0","0","1","competitive","right","1.13498210907","1000.87448001","3.86501789093","1004.89620781","3.63718008995","1008.533427","2.36281991005","1010.94672298","1012.25611281","1012.33161187","1015.33455181","0","1015.34873104","1021.70841289",""
"sujeto_0036567","1","2","9","41","1021.86696982","direct","3","1","1","¿En qué año empieza
 la Edad Media?","476","512","","1","1","1","competitive","right","1.33142495155","1023.19844294","3.66857504845","1027.02444887","4.28292798996","1031.307446","1.71707201004","1033.07564998","1034.47938991","1034.55939388","1037.56229782","1","1037.57598901","1040.56453395",""
"sujeto_0036567","1","2","10","42","1040.69530201","inverse","3","1","4","¿Hace cuántos años surgió
 el ser humano?","200mil","300mil","","0","0","0","competitive","right","2.37410497665","1043.06948185","2.62589502335","1045.8488009","4.81660890579","1050.66547203","1.18339109421","1051.90128183","1053.78625083","1053.86862898","1056.87161994","0","1056.88651586","1060.19698286",""
"sujeto_0036567","1","2","11","43","1060.33809686","direct","3","1","4","¿Cuántas cuadras tiene
 actualmente 18 de julio? ","36","33","","0","0","1","competitive","right","2.57230401039","1062.91047096","2.42769598961","1065.527215","3.42015218735","1068.94742799","2.57984781265","1071.57790995","1073.2801919","1073.36284184","1076.36580086","0","1076.37996697","1081.10621691",""
"sujeto_0036567","1","2","12","44","1081.23218799","inverse","1","1","4","¿Qué juego de equipo se 
considera mas rápido?","Lacrosse","Badminton","","0","0","0","competitive","right","0.755233049393","1081.98746896","4.24476695061","1086.37119198","3.86524415016","1090.23650098","2.13475584984","1092.42181897","1093.66493392","1093.73962593","1096.74255896","0","1096.75647593","1104.75163388",""
"sujeto_0036567","1","2","13","45","1104.87541389","direct","1","1","3","¿Qué promedio de edad 
vive una jirafa? ","25","20","","0","0","1","competitive","right","1.60700798035","1106.48248982","3.39299201965","1110.01744103","2.57904791832","1112.59652996","3.42095208168","1116.05054092","1117.81201196","1117.88530397","1120.88623786","0","1120.903301","1126.85901403",""
"sujeto_0036567","1","2","14","46","1126.98767185","inverse","1","1","2","¿Cuántos grandes lagos hay?","7","5","","0","0","1","competitive","left","1.17176795006","1128.15950584","3.82823204994","1132.12697697","2.5524251461","1134.67944503","3.4475748539","1138.17787504","1139.47000504","1139.54695988","1142.54994392","0","1142.56391883","1150.38527203",""
"sujeto_0036567","1","2","15","47","1150.53204298","direct","3","1","2","¿Cuántos discos de estudio
 grabó Johhny Cash? ","54","43","","1","1","0","competitive","right","1.09250712395","1151.62460399","3.90749287605","1155.67363691","3.03077793121","1158.70448303","2.96922206879","1161.70755887","1162.98621583","1163.05901885","1166.06198502","1","1166.0761919","1172.72712088",""
"sujeto_0036567","1","2","16","48","1172.87799501","inverse","4","1","1","¿Cuántos barrios tiene
 Montevideo? ","71","62","","0","0","1","competitive","right","1.19646310806","1174.074512","3.80353689194","1178.05233598","3.31109309196","1181.36347198","2.68890690804","1184.08580995","1185.0928669","1185.17112303","1188.17414999","0","1188.18723893","1193.64923787",""
"sujeto_0036567","1","2","17","49","1193.78897285","direct","3","1","3","¿Qué edad tiene Homero Simpson?","36","42","","0","0","1","competitive","right","4.86552000046","1198.65455794","0.134479999542","1198.94551587","2.68545293808","1201.63101101","3.31454706192","1204.99699497","1206.37305403","1206.44809103","1209.45111704","0","1209.46515083","1213.85024095",""
"sujeto_0036567","1","2","18","50","1213.98332596","inverse","4","1","2","¿Cuántos países con monarquía 
hay en europa actualmente? ","6","10","","1","1","1","competitive","right","1.03666400909","1215.02004194","3.96333599091","1219.15527296","1.27614021301","1220.431458","4.72385978699","1225.20570397","1226.64400697","1226.72479582","1229.72778082","1","1229.74171901","1235.89854288",""
"sujeto_0036567","1","2","19","51","1236.02659082","direct","2","1","3","¿Cuántos capítulos de
 Friends existen? ","236","228","","1","1","1","competitive","left","1.13188695908","1237.15852404","3.86811304092","1241.19902301","3.49043107033","1244.68949389","2.50956892967","1247.25112104","1248.55669594","1248.63592792","1251.63890481","1","1251.65193987","1254.02622485",""
"sujeto_0036567","1","2","20","52","1254.15495086","inverse","1","1","3","¿Cuántas óperas compuso Mozart? ","27","22","","1","1","1","competitive","right","1.92255687714","1256.07760787","3.07744312286","1259.32801199","2.12942004204","1261.45747304","3.87057995796","1265.35984588","1266.65200591","1266.72891092","1269.73189688","1","1269.74602103","1277.05422688",""
"sujeto_0036567","1","2","21","53","1277.19765401","direct","4","1","3","¿Cuántos mundiales de fútbol 
femenino ha realizado FIFA? ","9","7","","1","1","1","competitive","right","0.630799055099","1277.82852101","4.3692009449","1282.37175298","5.12765717506","1287.49947095","0.872342824936","1288.40715885","1289.65022182","1289.72414398","1292.72621489","1","1292.74119782","1298.84363294",""
"sujeto_0036567","1","2","22","54","1298.97547102","inverse","3","1","2","¿Cuál es la temperatura 
media anual en Montevideo? ","17.5","16.3","","0","0","1","competitive","","1.09693694115","1300.07247901","3.90306305885","1304.132061","6","1310.13222289","0","1310.14886689","1312.08624387","1312.16833091","1315.17125201","0","1315.18615103","1321.75564384",""
"sujeto_0036567","1","2","23","55","1321.90414","direct","2","1","2","¿En qué año se estrenó el
 videojuego The Sims? ","2000","2002","","0","0","0","competitive","right","1.25931811333","1323.16352797","3.74068188667","1327.04504204","3.62945103645","1330.67453885","2.37054896355","1333.07944703","1334.94147682","1335.01358199","1338.01422691","0","1338.03125596","1345.42490697",""
"sujeto_0036567","1","2","24","56","1345.56546903","inverse","2","1","1","¿Cuál es la canción con 
mas covers? ","Yesterday","Stand by me","","0","0","0","competitive","right","3.40599107742","1348.97152781","1.59400892258","1350.72360682","3.84980797768","1354.57347393","2.15019202232","1356.77490902","1358.17346597","1358.24262595","1361.24560905","0","1361.25989389","1365.43023682",""
"sujeto_0036567","1","2","25","57","1365.57875204","direct","1","1","4","¿Cuánto duró la guerra
 de los 100 años?","116","123","","0","0","0","competitive","left","4.23871707916","1369.81751394","0.761282920837","1370.73515201","2.76423811913","1373.49945903","3.23576188087","1376.76811981","1378.24894094","1378.32077599","1381.32223582","0","1381.33747292","1383.65723896",""
"sujeto_0036567","1","2","26","58","1383.80561304","inverse","4","1","4","¿Qué color tiene la  bandera de Brasil?","Amarillo","Naranja","left","0","0","1","competitive","left","4.33187603951","1388.13755703","0.668123960495","1388.97584701","2.75551795959","1391.73143482","3.24448204041","1395.02730989","1396.59383488","1396.67965198","1399.6826489","1","1399.69663787","1402.72943687",""
"sujeto_0036567","1","2","27","59","1402.86510396","direct","4","1","3","¿Qué carabela de 
Colon no volvió del viaje?","Santa María","La pinta","","0","0","1","competitive","right","0.805350065231","1403.67049885","4.19464993477","1408.02017188","3.86024188995","1411.88047504","2.13975811005","1414.05363488","1415.54468298","1415.62164283","1418.62226391","0","1418.63955784","1420.73826098",""
"sujeto_0036567","1","2","28","60","1420.87417483","inverse","4","1","4","¿Cuántos huesos tiene
 un adulto humano?","217","206","","0","0","1","competitive","right","4.90329694748","1425.77751684","0.0967030525208","1426.02869296","2.2967441082","1428.32549787","3.7032558918","1432.08161497","1433.35260296","1433.43111491","1436.43414903","0","1436.44821382","1444.28591204",""
"sujeto_0036567","1","2","29","61","1444.45037389","direct","1","1","1","¿Qué país africano fue 
fundado por esclavos?","Liberia","Chad","","0","0","0","competitive","right","2.97508883476","1447.42550898","2.02491116524","1449.62524891","5.8751950264","1455.50050783","0.124804973602","1455.66043591","1457.65205884","1457.72727394","1460.73025489","0","1460.74468589","1468.73426485",""
"sujeto_0036567","1","2","30","62","1468.86303687","inverse","4","1","2","¿A cuánto asciende la cima
 del monte Everest?","7.990 mts","8.848 mts","","0","0","1","competitive","right","1.36642193794","1470.22952294","3.63357806206","1474.02123785","3.92721390724","1477.94851804","2.07278609276","1480.07138681","1481.25622487","1481.33890486","1484.34189391","0","1484.35585499","1491.53990388",""
"sujeto_0036567","1","2","31","63","1491.70767188","direct","4","1","1","¿Cuál es el país mas chico?","Sealand","Luxemburgo","","1","1","1","competitive","","2.33815288544","1494.04587793","2.66184711456","1496.86543298","6","1502.86558604","0","1502.87960196","1504.74312282","1504.81646705","1507.81826591","0","1507.833287","1510.95423603",""
"sujeto_0036567","1","2","32","64","1511.10235","inverse","2","1","4","¿Cuántas pirámides hay en Egipto?","10000","11000","","1","1","1","competitive","right","0.84718298912","1511.94964194","4.15281701088","1516.27571893","3.3967359066","1519.67251587","2.6032640934","1522.30917096","1523.34273887","1523.41100693","1526.41398287","1","1526.42821288","1531.53727794",""
"sujeto_0036567","1","3","1","65","1652.22739196","direct","2","1","2","¿Cuál es el quinto país con 
mas extensión?","Canadá","Brasil","","1","1","0","competitive","right","1.48803400993","1653.71548891","3.51196599007","1657.36517382","3.2243180275","1660.58955383","2.7756819725","1663.39848995","1664.73172998","1664.80007482","1667.80224586","1","1667.81753588","1675.54226995","1531.54885697"
"sujeto_0036567","1","3","2","66","1675.66954589","inverse","1","1","2","¿Qué rasgo facial no tiene
 la Mona Lisa?","Cejas","Pómulos","","0","0","1","competitive","left","2.31293010712","1677.98252797","2.68706989288","1680.82673883","4.06572890282","1684.89253092","1.93427109718","1686.87818098","1688.62857389","1688.69626188","1691.69925904","0","1691.71324587","1697.98227882",""
"sujeto_0036567","1","3","3","67","1698.13237286","direct","4","1","3","¿Cuál es el país con 
mayor población?","Esados Unidos","China","right","0","0","1","competitive","right","1.49812698364","1699.63054395","3.50187301636","1703.28865695","2.53981280327","1705.82851005","3.46018719673","1709.33927894","1710.98525882","1711.05691385","1714.05988693","1","1714.07493782","1717.44227695",""
"sujeto_0036567","1","3","4","68","1717.57674384","inverse","1","1","1","La palabra dinosaurio significa","Lagarto Terrible","Lagarto Dragón","","1","1","0","individual","right","1.54978704453","1719.12659693","3.45021295547","1722.74577904","5.27466607094","1728.02051187","0.725333929062","1728.78168392","1729.952003","1729.99937582","1733.00232601","1","1733.01641583","1735.87825704",""
"sujeto_0036567","1","3","5","69","1736.01849389","direct","2","1","3","¿Qué es el membrillero?","Arbol","Arbusto","","0","0","0","competitive","left","3.57208299637","1739.59069681","1.42791700363","1741.19159985","2.20686292648","1743.39850593","3.79313707352","1747.24140286","1749.19551682","1749.27680492","1752.27822399","0","1752.29441595","1758.758425",""
"sujeto_0036567","1","3","6","70","1758.89658499","inverse","3","1","3","¿Alrededor de qué planeta orbita 
el satélite Europa?","Jupiter","Saturno","","1","1","1","competitive","left","1.95198011398","1760.84864187","3.04801988602","1764.06877995","5.12267398834","1769.19151497","0.877326011658","1770.10499287","1771.64979982","1771.72151494","1774.72449589","1","1774.73951697","1776.94468689",""
"sujeto_0036567","1","3","7","71","1777.09160185","direct","3","1","1","¿Donde fue el mundial de 
fútbol de 1954?","Suiza","Suecia","","1","1","1","individual","left","2.93585205078","1780.02750587","2.06414794922","1782.25987601","4.68061494827","1786.9405539","1.31938505173","1788.29785299","1789.55025601","1789.59866691","1792.60163403","1","1792.61567283","1796.52744102",""
"sujeto_0036567","1","3","8","72","1796.66694188","inverse","1","1","4","¿Cuál de los 7 enanitos
no tenía barba?","Bashful","Mudito","","1","1","0","competitive","right","1.92857098579","1798.59558892","3.07142901421","1801.83728886","3.54409694672","1805.38142681","2.45590305328","1807.87234688","1809.45246696","1809.52323389","1812.52622795","1","1812.54129291","1817.47025394",""
"sujeto_0036567","1","3","9","73","1817.60917091","direct","3","1","2","¿Cual red social es
mas utilizada mundialmente?","Instagram","Facebook","","1","1","0","competitive","left","1.20572781563","1818.81494594","3.79427218437","1822.76749802","4.14998602867","1826.91754389","1.85001397133","1828.8178339","1830.73524094","1830.81870198","1833.82165885","1","1833.83670902","1836.77027988",""
"sujeto_0036567","1","3","10","74","1836.90468502","inverse","4","1","1","¿Cuándo se inició la copa
 América de fútbol?","1916","1923","","1","1","1","individual","left","1.3147289753","1838.21947885","3.6852710247","1842.06008482","4.15541386604","1846.21555781","1.84458613396","1848.11121583","1850.00864291","1850.04528403","1853.04824305","1","1853.06314683","1855.71926403",""
"sujeto_0036567","1","3","11","75","1855.88103294","direct","3","1","4","¿Cuántos presidentes de EEUU
han muerto asesinados?","3","4","","0","0","1","individual","left","1.61444282532","1857.4955399","3.38555717468","1861.03594494","3.71745204926","1864.75345302","2.28254795074","1867.08743691","1868.57134795","1868.622087","1871.62507391","0","1871.63904285","1875.28315592",""
"sujeto_0036567","1","3","12","76","1875.42469192","inverse","2","1","4","¿Cuántas veces participó EEUU
 en la copa América?","4","5","","0","0","1","competitive","left","1.31779098511","1876.74253082","3.68220901489","1880.57986498","4.17353105545","1884.753438","1.82646894455","1886.61477685","1888.05886483","1888.13232803","1891.13530183","0","1891.14947295","1897.26618886",""
"sujeto_0036567","1","3","13","77","1897.41718602","direct","4","1","1","¿Cuál de estos países 
no formaba la URSS?","Azeribayán","Afganistán","","0","0","1","individual","right","1.73133015633","1899.14856195","3.26866984367","1902.5914259","4.69199204445","1907.28345704","1.30800795555","1908.62658381","1909.9396379","1909.97681093","1912.97977901","0","1912.99382591","1920.97028589",""
"sujeto_0036567","1","3","14","78","1921.1287179","inverse","1","1","1","¿En qué año se inauguró
 el teatro Solís?","1867","1856","","0","0","0","individual","left","2.02671980858","1923.15547895","2.97328019142","1926.2679019","5.47658491135","1931.74452496","0.523415088654","1932.30438185","1933.36064482","1933.40427899","1936.40628886","0","1936.42146397","1943.06628394",""
"sujeto_0036567","1","3","15","79","1943.20601988","direct","1","1","4","¿A qué velocidad vuela 
el avión más rápido?","3529","3874","","0","0","0","competitive","left","1.32447004318","1944.53053498","3.67552995682","1948.36469793","4.44775891304","1952.81250095","1.55224108696","1954.41634202","1956.17025685","1956.24955297","1959.25252891","0","1959.2677319","1961.37801194",""
"sujeto_0036567","1","3","16","80","1961.50210881","inverse","3","1","4","¿De qué año es la primer 
película cinematográfica?","1897","1888","","0","0","0","competitive","left","1.69635510445","1963.19851184","3.30364489555","1966.65538383","4.03608798981","1970.69151402","1.96391201019","1972.70786595","1973.84085798","1973.92637682","1976.92933583","0","1976.94254494","1982.35229897",""
"sujeto_0036567","1","3","17","81","1982.51131701","direct","2","1","3","¿Cuántos países 
tiene nuestro planeta?","191","194","","1","1","1","competitive","right","1.66119813919","1984.17259002","3.33880186081","1987.66735888","4.37212085724","1992.03954697","1.62787914276","1993.71967387","1995.07686996","1995.15440488","1998.15736198","1","1998.17128181","2001.40958285",""
"sujeto_0036567","1","3","18","82","2001.55668902","inverse","2","1","2","¿Cuántos habitantes
 tiene Buenos Aires?","2.9000.000","3650000","","0","0","0","competitive","left","1.25376915932","2002.81050181","3.74623084068","2006.72574592","3.63571381569","2010.36152291","2.36428618431","2012.77762103","2014.17427993","2014.24554801","2017.24853492","0","2017.26272392","2023.09030294",""
"sujeto_0036567","1","3","19","83","2023.21433091","direct","2","1","1","¿Cuántos kilos forman una tonelada?","1000","1500","left","1","1","1","individual","left","1.62410998344","2024.83848095","3.37589001656","2028.37233686","2.96114492416","2031.33354282","3.03885507584","2034.40646386","2036.29381084","2036.34116101","2039.34226298","1","2039.35842991","2045.31584287",""
"sujeto_0036567","1","3","20","84","2045.45990586","inverse","4","1","4","¿Cuántos estados tiene la 
República del Perú? ","24","23","","0","0","1","competitive","right","1.64750289917","2047.10746694","3.35249710083","2050.63279581","5.37465596199","2056.0075109","0.62534403801","2056.66837502","2057.69026589","2057.76902485","2060.77200484","0","2060.78602695","2065.73131704",""
"sujeto_0036567","1","3","21","85","2065.88736987","direct","3","1","3","¿En qué año nació Cristóbal Colón? ","1451","1447","","0","0","1","competitive","right","1.39305186272","2067.28049183","3.60694813728","2071.02790403","3.3445520401","2074.37251496","2.6554479599","2077.06193399","2078.90785098","2078.97982001","2081.98225784","0","2081.99726701","2086.22527385",""
"sujeto_0036567","1","3","22","86","2086.36600494","inverse","4","1","4","¿Cuánto mide la 
Montaña Aconcagua? ","6234","6962","","0","0","1","competitive","right","3.42342996597","2089.78949785","1.57657003403","2091.52129793","2.7281639576","2094.24950385","3.2718360424","2097.55394697","2098.84228492","2098.92191195","2101.92228889","0","2101.93956304","2109.12322998",""
"sujeto_0036567","1","3","23","87","2109.25785899","direct","2","1","4","¿Cuánto mide el punto
 más profundo del océano? ","12508","11003","","0","0","1","competitive","left","4.72664690018","2113.98455191","0.273353099823","2114.41562891","3.43685293198","2117.85254502","2.56314706802","2120.46763897","2121.71820283","2121.80202389","2124.80500197","0","2124.81922102","2129.02544284",""
"sujeto_0036567","1","3","24","88","2129.15521502","inverse","1","1","3","¿Cuántos álbumes ha publicado 
el cantante Jaime Roos? ","41","34","","0","0","1","competitive","right","4.22831201553","2133.38357091","0.771687984467","2134.31029987","3.28213095665","2137.59249401","2.71786904335","2140.34510994","2141.83496284","2141.91330695","2144.91426802","0","2144.93035293","2151.12651396",""
"sujeto_0036567","1","3","25","89","2151.26490593","direct","4","1","3","¿En qué año nació el 
ex-presidente Jorge Battle? ","1921","1927","","1","1","1","competitive","right","2.54357194901","2153.80854082","2.45642805099","2156.42253494","4.86792898178","2161.29053187","1.13207101822","2162.47340393","2164.20407796","2164.27391291","2167.274266","1","2167.29157305","2170.77761602",""
"sujeto_0036567","1","3","26","90","2170.90974402","inverse","1","1","3","¿Cuántas presidencias 
constitucionales  hubo en Uruguay? ","41","42","","0","0","1","","","","","","","","","","","","","","","2175.93178487","2181.71539688",""
"sujeto_0036567","1","3","27","91","2181.83158684","direct","1","1","2","¿Quién escribió mas sinfonías?","Mozart","Haydn","","1","1","0","competitive","left","1.99492406845","2183.82655883","3.00507593155","2186.98812389","2.1483399868","2189.13650298","3.8516600132","2193.03715801","2194.25464296","2194.33934283","2197.34230399","1","2197.35730195","2201.10626292",""
"sujeto_0036567","1","3","28","92","2201.24151397","inverse","4","1","2","¿En qué año nació Michael Jackson?","1958","1953","","1","1","1","competitive","left","1.91905403137","2203.16067195","3.08094596863","2206.43137884","2.80216503143","2209.23358583","3.19783496857","2212.481251","2214.45947099","2214.53298688","2217.53373194","1","2217.55090499","2223.41325903",""
"sujeto_0036567","1","3","29","93","2223.55288196","direct","3","1","2","¿En qué año entró en vigencia 
la ley antitabaco en Uruguay?","2005","2006","","1","1","1","competitive","right","1.03964400291","2224.59257483","3.96035599709","2228.72587085","3.76461601257","2232.49054885","2.23538398743","2234.77600288","2236.37076092","2236.44439888","2239.44736886","1","2239.46148181","2244.79546285",""
"sujeto_0036567","1","3","30","94","2244.96311498","inverse","3","1","1","¿Cuándo se subió el 
primer video a youtube?","2004","2005","","0","0","1","individual","left","3.41237306595","2248.37553","1.58762693405","2250.11979294","3.69368290901","2253.81351686","2.30631709099","2256.17167687","2257.4773109","2257.52278185","2260.52576089","0","2260.53996682","2268.29558301",""
"sujeto_0036567","1","3","31","95","2268.44087005","direct","2","1","1","¿Cuántos habitantes tiene India?","1200 millones","1300 millones","","0","0","0","","","","","","","","","","","","","","","2273.44844484","2279.49593782",""
"sujeto_0036567","1","3","32","96","2279.63121104","inverse","4","1","2","¿A qué edad murió Bob Marley?","36","37","","0","0","1","competitive","right","2.50830101967","2282.13957787","2.49169898033","2284.78606296","2.71950602531","2287.50561094","3.28049397469","2290.82193685","2292.71824193","2292.79044485","2295.79337692","0","2295.80796099","2298.91025281",""
"sujeto_0036567","1","4","1","97","2443.81264091","direct","2","1","1","¿Cuantos años dirigió la selección 
uruguaya Tabarez?","15 años","13 años","","0","0","0","individual","left","1.78886795044","2445.60157299","3.21113204956","2448.97286081","2.2906639576","2451.26356888","3.7093360424","2455.00533295","2456.19647384","2456.24049687","2459.24345183","0","2459.25834703","2466.33027196","2298.92148805"
"sujeto_0036567","1","4","2","98","2466.50922799","inverse","4","1","1","¿Cuantas teclas tiene un teclado 
de computadora generalmente? ","Entre 99 y 108","Entre 109 y 113","","1","1","1","individual","right","1.95932602882","2468.46862102","3.04067397118","2471.68273687","4.65584993362","2476.33865404","1.34415006638","2477.73490095","2478.7376709","2478.78556085","2481.78852081","1","2481.8026669","2484.17409492",""
"sujeto_0036567","1","4","3","99","2484.30429792","direct","1","1","1","¿Cuál Departamento tiene
 mayor superficie?","Río Negro","Soriano","","0","0","0","individual","left","1.1522758007","2485.45664597","3.8477241993","2489.45872998","3.4998061657","2492.95862293","2.5001938343","2495.51055288","2497.22401285","2497.26160789","2500.26225901","0","2500.27932882","2504.60539293",""
"sujeto_0036567","1","4","4","100","2504.74743199","inverse","3","1","2","¿Cuál es el apellido de las 
hermanastras  de  cenicienta?","Tremaine","Truman","","0","0","1","competitive","left","1.0420820713","2505.78956103","3.9579179287","2509.90293193","4.0105919838","2513.91356301","1.9894080162","2515.93796492","2517.80749488","2517.88949203","2520.8924489","0","2520.90674782","2523.60270596",""
"sujeto_0036567","1","4","5","101","2523.75844097","direct","4","1","4","¿Cuál película ganó un
 Oscar a mejor película?","Alto Impacto","Cache","","0","0","1","competitive","left","1.70010900497","2525.45860195","3.29989099503","2528.91365385","3.69588589668","2532.60960388","2.30411410332","2534.94822097","2536.06756997","2536.14911294","2539.15026402","0","2539.16563988","2541.43026185",""
"sujeto_0036567","1","4","6","102","2541.56747389","inverse","1","1","3","¿A cuántos centímetros
equivale la medida pié?","25","30","","0","0","1","competitive","left","1.71808385849","2543.28560781","3.28191614151","2546.72274899","5.28780412674","2552.01061988","0.71219587326","2552.77493501","2553.81494188","2553.89159203","2556.89425588","0","2556.90838289","2562.30629587",""
"sujeto_0036567","1","4","7","103","2562.44391203","direct","2","1","2","¿Qué departamento es mas grande?","Cerro Largo","Paysandú","","0","0","0","competitive","right","2.95064401627","2565.39462399","2.04935598373","2567.61654687","2.89400291443","2570.51059103","3.10599708557","2573.667557","2575.26730704","2575.35202503","2578.35429382","0","2578.36949396","2582.47940898",""
"sujeto_0036567","1","4","8","104","2582.60468102","inverse","2","1","3","¿Quién pintó la Mona Lisa?","Picasso","Da Vinci","right","0","0","1","competitive","right","2.78188800812","2585.38664293","2.21811199188","2587.76034093","2.98515701294","2590.74555993","3.01484298706","2593.8112359","2595.41707683","2595.49607301","2598.49904895","1","2598.51298594","2600.67532802",""
"sujeto_0036567","1","4","9","105","2600.81533098","direct","4","1","3","¿Cuántos litros hay en un galon?","3.54","3.78","","1","1","1","competitive","left","2.66920399666","2603.48461485","2.33079600334","2605.98327303","3.64925599098","2609.63259101","2.35074400902","2612.02095699","2613.53825903","2613.62252402","2616.62546682","1","2616.63944292","2622.43174982",""
"sujeto_0036567","1","4","10","106","2622.57381701","inverse","4","1","1","¿Cuántas teclas tiene
 un piano moderno?","80","88","","0","0","1","individual","right","1.82473611832","2624.39861989","3.17526388168","2627.74841595","3.15710377693","2630.90556502","2.84289622307","2633.79881883","2634.807302","2634.85043097","2637.85338092","0","2637.86703396","2644.66479993",""
"sujeto_0036567","1","4","11","107","2644.81786585","direct","4","1","3","¿Cuántos países hay en África?","54","62","","0","0","1","competitive","left","1.51067996025","2646.32859588","3.48932003975","2649.97638798","2.60921120644","2652.58566189","3.39078879356","2656.02652884","2657.71707201","2657.79427695","2660.79721403","0","2660.81151795","2668.6162889",""
"sujeto_0036567","1","4","12","108","2668.74605298","inverse","1","1","3","¿En qué siglo se crearon
 las primeras pistolas?","XV","XIII","","1","1","1","competitive","right","1.82647919655","2670.57257795","3.17352080345","2673.92147398","4.68205499649","2678.60356903","1.31794500351","2679.97282386","2681.92072701","2681.99039292","2684.99334288","1","2685.007303","2688.23827386",""
"sujeto_0036567","1","4","13","109","2688.37666583","direct","3","1","4","¿En qué año se estrenó 
la serie friends?","1994","1995","","0","0","1","competitive","","2.60193395615","2690.97866988","2.39806604385","2693.54660702","6","2699.54675484","0","2699.56672502","2701.44205904","2701.51722598","2704.52020884","0","2704.53512597","2709.54121184",""
"sujeto_0036567","1","4","14","110","2709.68571997","inverse","3","1","4","¿En qué año nació Hitler?","1889","1887","","0","0","1","competitive","left","2.14881205559","2711.83457494","2.85118794441","2714.84182286","3.15669798851","2717.99856091","2.84330201149","2720.89296198","2722.00731897","2722.07816887","2725.08115292","0","2725.09519982","2730.12221384",""
"sujeto_0036567","1","4","15","111","2730.26303887","direct","1","1","4","¿Cuánto pesa un elefante Africano?","6000 kilos","5400 kilos","","0","0","0","competitive","right","3.82555699348","2734.08864188","1.17444300652","2735.40348196","2.48002910614","2737.88357282","3.51997089386","2741.43714499","2742.7930789","2742.87164783","2745.874614","0","2745.88979888","2752.59428787",""
"sujeto_0036567","1","4","16","112","2752.7409339","inverse","1","1","2","¿Qué porcentaje de 
la población es zurda?","10%","7%","","1","1","0","competitive","left","1.49563479424","2754.23663592","3.50436520576","2757.89633393","3.35622382164","2761.25262189","2.64377617836","2763.94794202","2765.19103289","2765.2661829","2768.26918101","1","2768.28327799","2774.26301885",""
"sujeto_0036567","1","4","17","113","2774.40124702","direct","1","1","2","¿En qué año se estrenó
Volver al futuro?","1984","1985","","0","0","1","competitive","right","1.95735406876","2776.35867596","3.04264593124","2779.55950689","4.01707386971","2783.57664299","1.98292613029","2785.60842705","2787.17024493","2787.24253798","2790.245502","0","2790.25964403","2797.35028601",""
"sujeto_0036567","1","4","18","114","2797.47863293","inverse","3","1","2","¿Cuántos jugadores hay en un 
equipo de baseball?","9","8","","1","1","0","competitive","left","2.67593383789","2800.15467095","2.32406616211","2802.63765597","3.50492215157","2806.14263797","2.49507784843","2808.6889019","2810.30317903","2810.37312388","2813.37428784","1","2813.39042282","2818.36761999",""
"sujeto_0036567","1","4","19","115","2818.509413","direct","2","1","1","¿Cuántos Oscar ganó
 la película titanic?","13","11","","1","1","1","individual","right","1.87420606613","2820.38366294","3.12579393387","2823.66586995","5.0616607666","2828.72757101","0.938339233398","2829.70047283","2831.00217986","2831.05100083","2834.05397296","1","2834.06754589","2838.67021298",""
"sujeto_0036567","1","4","20","116","2838.81939483","inverse","4","1","4","¿En qué año comenzó
la segunda guerra mundial?","1939","1976","left","0","0","1","competitive","left","2.66017889977","2841.47964096","2.33982110023","2843.97359896","3.98502516747","2847.95866489","2.01497483253","2850.02648783","2851.82626486","2851.91184282","2854.91482592","1","2854.92909503","2858.91626287",""
"sujeto_0036567","1","4","21","117","2859.04657102","direct","2","1","4","¿Cuántos biomas hay en Uruguay?","5","4","","0","0","1","competitive","right","1.57203316689","2860.61864901","3.42796683311","2864.18693399","4.15159201622","2868.33859396","1.84840798378","2870.23691392","2872.03424191","2872.10485291","2875.10783386","0","2875.12184","2881.37126994",""
"sujeto_0036567","1","4","22","118","2881.50688982","inverse","2","1","3","¿Cuándo murió Pablo Escobar?","1993","1997","","1","1","1","competitive","right","1.31368899345","2882.82062292","3.68631100655","2886.66036391","2.77621102333","2889.43664193","3.22378897667","2892.71243787","2894.49529004","2894.56453896","2897.56749892","1","2897.58176589","2903.28541303",""
"sujeto_0036567","1","4","23","119","2903.43345499","direct","1","1","4","¿Qué serie ha ganado mas premios?","Friends","Murphy Brown","","1","1","0","competitive","right","0.992158174515","2904.42566085","4.00784182549","2908.59162998","5.67993712425","2914.27163482","0.320062875748","2914.64354587","2915.99590492","2916.07682204","2919.07980704","1","2919.09414291","2924.65425181",""
"sujeto_0036567","1","4","24","120","2924.79639983","inverse","4","1","2","¿Cuántas fichas tiene el dominó?","26","28","","1","1","1","competitive","right","4.17317605019","2928.96965098","0.826823949814","2929.95341802","3.04211711884","2932.99558282","2.95788288116","2936.00336695","2937.05823684","2937.13885999","2940.14184284","1","2940.15613604","2945.39924884",""
"sujeto_0036567","1","4","25","121","2945.54115987","direct","2","1","4","¿Cuántos son los dientes de leche?","20","25","","0","0","1","competitive","right","0.959403991699","2946.50061083","4.0405960083","2950.69654799","4.76203918457","2955.45866489","1.23796081543","2956.73193693","2958.44227386","2958.5161109","2961.51826882","0","2961.53322291","2963.67825603",""
"sujeto_0036567","1","4","26","122","2963.81888604","inverse","3","1","3","¿Cuántos gramos son una onza?","22","28","","0","0","1","competitive","right","1.26073598862","2965.07974696","3.73926401138","2968.96998382","2.13755202293","2971.10757995","3.86244797707","2975.02078795","2977.01564789","2977.08936882","2980.09236288","0","2980.10794401","2986.39819789",""
"sujeto_0036567","1","4","27","123","2986.55938387","direct","3","1","1","¿Cuándo salió el primer album
 de los Beatles?","1963","1962","","1","1","1","individual","left","2.55820894241","2989.11767292","2.44179105759","2991.75231981","2.96724200249","2994.71963096","3.03275799751","2997.80181789","2998.96540999","2999.00414681","3002.00442195","1","3002.020643","3005.79268384",""
"sujeto_0036567","1","4","28","124","3005.93884182","inverse","3","1","3","¿Quién fundó la empresa apple?","Carlos Slim","Steve Jobs","","1","1","1","competitive","right","1.14574599266","3007.08463383","3.85425400734","3011.09445095","5.58612084389","3016.68063903","0.413879156113","3017.14688897","3018.26148582","3018.34715104","3021.350173","1","3021.36414289","3027.66199493",""
"sujeto_0036567","1","4","29","125","3027.79905891","direct","4","1","2","¿Cuántos municipios hay
 en Montevideo?","8","7","","1","1","1","competitive","left","1.4465239048","3029.24563289","3.5534760952","3032.95707583","3.83947491646","3036.79659486","2.16052508354","3039.00742602","3040.92221999","3041.00874996","3044.01027989","1","3044.02626204","3046.10625482",""
"sujeto_0036567","1","4","30","126","3046.24419093","inverse","1","1","1","¿Cuántos kilómetros hay
 de Montevideo a Artigas?","632","599","","0","0","0","","","","","","","","","","","","","","","3051.26602292","3057.31813598",""
"sujeto_0036567","1","4","31","127","3057.44780993","direct","2","1","2","¿En qué año nació 
Leonardo Da Vinci?","1452","1511","","1","1","0","competitive","left","1.31882381439","3058.76667881","3.68117618561","3062.60496283","2.04768800735","3064.65269494","3.95231199265","3068.654881","3070.50848603","3070.5905149","3073.59345794","1","3073.6074729","3076.75388098",""
"sujeto_0036567","1","4","32","128","3076.8930409","inverse","3","1","1","¿A qué continente
 pertenece el país Gabón?","Africa","Oceanía","","0","0","1","individual","left","2.9955329895","3079.88864684","2.0044670105","3082.08106399","4.71449804306","3086.79563189","1.28550195694","3088.13060904","3089.94221997","3089.98176003","3092.98473096","0","3092.99883294","3098.23425484",""
