"code","nro_aplicante","nro_bloque","nro_trial_bloque","nro_trial_global","show_game_type","choice_order","rival","pay_individual","pay_competitive","question","answer_left_text","answer_right_text","correct_answer","outcome_individual","outcome_competitive","outcome_rival","game_type","answer","social_time","rt_game_type","feedback_delay","show_question","answer_time","rt_answer_global","feedback_delay_2","show_jitter","jitter_time","show_outcome","outcome_time","outcome_participant_real","show_final_jitter","second_jitter_time","inicio_descanso"
"sujeto_cfeb32c5","1","1","1","1","52.7906901836","direct","3","1","4","¿Cuántos centímetros corresponden
al talle 36 del calzado?","23","24","","0","0","1","competitive","right","1.67284798622","54.4636011124","3.32715201378","57.9616780281","3.32493400574","61.2866771221","2.67506599426","64.0121290684","65.0404131413","65.113795042","68.1167449951","0","68.1307380199","70.293279171",""
"sujeto_cfeb32c5","1","1","2","2","70.4325830936","inverse","3","1","2","¿Cuántas metros mide la Intendencia
Municipal de Montevideo? ","84","78","","0","0","1","competitive","right","1.73913598061","72.1717681885","3.26086401939","75.5875999928","3.84014391899","79.4277851582","2.15985608101","81.6381921768","83.5162491798","83.5895030499","86.5924890041","0","86.6068210602","88.6995921135",""
"sujeto_cfeb32c5","1","1","3","3","88.8423321247","direct","1","1","3","¿Cuántas La Pasiva
 hay en uruguay?","15","11","","1","1","1","competitive","left","2.2394721508","91.0818781853","2.7605278492","93.9965519905","2.98029208183","96.9769370556","3.01970791817","100.031037092","101.642693043","101.715229034","104.718178034","1","104.732795","109.011112213",""
"sujeto_cfeb32c5","1","1","4","4","109.150942087","inverse","3","1","3","¿De que color es la camiseta de uruguay?","blanca","celeste","right","1","1","1","competitive","right","1.34904885292","110.500056028","3.65095114708","114.323856115","2.39915895462","116.723057032","3.60084104538","120.374147177","121.578899145","121.659466028","124.662432194","1","124.677109003","128.131011009",""
"sujeto_cfeb32c5","1","1","5","5","128.277949095","direct","2","1","1","¿Cuánto metros mide
la torre Eiffel?","333","324","","1","1","1","competitive","left","2.09812283516","130.376116037","2.90187716484","133.4325912","2.80255198479","136.235185146","3.19744801521","139.484590054","141.005988121","141.086201191","144.089131117","1","144.104490995","151.141129017",""
"sujeto_cfeb32c5","1","1","6","6","151.288798094","inverse","3","1","4","¿Cuantas ciudades existen
 en todo el uruguay?","63","72","","0","0","1","competitive","right","1.12949895859","152.418379068","3.87050104141","156.445856094","2.69847297668","159.144380093","3.30152702332","162.496709108","163.551524162","163.631541014","166.6345191","0","166.64865613","174.275183201",""
"sujeto_cfeb32c5","1","1","7","7","174.418971062","direct","1","1","1","¿Cuantos estados tiene África?","52","54","","1","1","0","competitive","right","1.44647288322","175.865509033","3.55352711678","179.574827194","3.88666009903","183.461529016","2.11333990097","185.62631917","187.49032712","187.577208042","190.580202103","1","190.594729185","196.35575819",""
"sujeto_cfeb32c5","1","1","8","8","196.496936083","inverse","4","1","4","¿En qué año nació
 Stephen Hawking?","1952","1942","","0","0","1","competitive","right","0.933681964874","197.430664062","4.06631803513","201.686938047","3.51364088058","205.200623035","2.48635911942","207.737495184","209.181799173","209.25523901","212.258213997","0","212.27287817","218.37224102",""
"sujeto_cfeb32c5","1","1","9","9","218.524294138","direct","2","1","3","¿Cuánto años tenía Artigas
 cuando se fue a Paraguay?","56","57","","1","1","1","competitive","left","1.39749312401","219.921840191","3.60250687599","223.698111057","3.20268988609","226.90084219","2.79731011391","229.748915195","231.298406124","231.382295132","234.385287046","1","234.398740053","240.446004152",""
"sujeto_cfeb32c5","1","1","10","10","240.583433151","inverse","1","1","2","¿Cuantos milímetros 
mide una hoja A2?","420x592","420x594","","0","0","1","competitive","right","1.18853712082","241.77205205","3.81146287918","245.742483139","3.96450400352","249.707048178","2.03549599648","251.793681145","253.362094164","253.444881201","256.447837114","0","256.462158203","263.535821199",""
"sujeto_cfeb32c5","1","1","11","11","263.6796031","direct","3","1","3","¿Cuál es la menor temperatura 
registrada en Uruguay?","-5.4","-7.4","","0","0","1","competitive","left","1.14248299599","264.822136164","3.85751700401","268.83822608","3.58486890793","272.423159122","2.41513109207","274.889230013","276.57123518","276.656519175","279.659506083","0","279.674861193","283.408089161",""
"sujeto_cfeb32c5","1","1","12","12","283.558745146","inverse","2","1","2","¿Cuantos años hace que 
se fundó facebook?","18","17","","0","0","0","competitive","left","1.19847297668","284.757287979","3.80152702332","288.730698109","2.97555279732","291.706291199","3.02444720268","294.782603025","296.155350208","296.233550072","299.236006021","0","299.251584053","302.026193142",""
"sujeto_cfeb32c5","1","1","13","13","302.169795036","direct","1","1","4","¿Cuál animal es más
 pesado en promedio?","Rinoceronte","Hipopotamo","","0","0","0","competitive","right","1.00457191467","303.174411058","3.99542808533","307.341684103","5.02576088905","312.367488146","0.974239110947","313.426845074","314.506143093","314.593546152","317.596603155","0","317.610242128","321.451282024",""
"sujeto_cfeb32c5","1","1","14","14","321.595197201","inverse","1","1","2","¿Qué personaje de dragon ball 
murió más veces?","Chaoz","Krillin","","1","1","0","competitive","left","0.989307880402","322.584551096","4.0106921196","326.751971006","3.72049593925","330.472507","2.27950406075","332.80262208","334.26040411","334.336654186","337.339604139","1","337.354895115","345.12778616",""
"sujeto_cfeb32c5","1","1","15","15","345.255711079","direct","3","1","2","La universidad de oxford. 
existe desde:","1096","1249","","1","1","0","competitive","left","1.04397201538","346.299734116","3.95602798462","350.409322977","3.78541398048","354.194778204","2.21458601952","356.460834026","357.509613037","357.59516716","360.597959995","1","360.6125741","367.30343914",""
"sujeto_cfeb32c5","1","1","16","16","367.447657108","inverse","3","1","1","¿Qué escritor latino ganó antes
 el premio nobel?"," García Marquez","Neruda","","0","0","1","competitive","left","1.15316915512","368.600931168","3.84683084488","372.609388113","3.5715367794","376.180985212","2.4284632206","378.660284042","380.400294065","380.478260994","383.481235027","0","383.494727135","386.955211163",""
"sujeto_cfeb32c5","1","1","17","17","387.113502979","direct","4","1","3","¿Cuántos dientes tiene un
 tiburón blanco?","6000","3000","","0","0","1","competitive","right","1.20745706558","388.321004152","3.79254293442","392.286020041","3.04992103577","395.335998058","2.95007896423","398.336497068","399.375500202","399.454158068","402.457140207","0","402.471572161","407.28125",""
"sujeto_cfeb32c5","1","1","18","18","407.423158169","inverse","4","1","1","¿Cuánto mide el paralelo Ecuador?","40.000km","70.000km","","0","0","1","competitive","right","3.84019398689","411.263396978","1.15980601311","412.580102205","3.40904712677","415.989190102","2.59095287323","418.631520033","420.587611198","420.665113211","423.668071985","0","423.683370113","427.285938025",""
"sujeto_cfeb32c5","1","1","19","19","427.434984207","direct","4","1","2","¿Cuál fue el primer libro 
de Stephen King?","Carrie","The Stand","","1","1","1","competitive","right","1.28731107712","428.722360134","3.71268892288","432.605885029","3.5954580307","436.201388121","2.4045419693","438.656355143","440.400462151","440.473659992","443.476637125","1","443.492271185","447.966715097",""
"sujeto_cfeb32c5","1","1","20","20","448.110153198","inverse","2","1","3","¿Qué civilización practicaba
 la momificación?","Grecia","Egipto","right","0","0","1","competitive","right","1.09431910515","449.20454216","3.90568089485","453.268347979","2.86913895607","456.137545109","3.13086104393","459.317589998","461.256901026","461.33616209","464.339154005","1","464.353794098","468.582593203",""
"sujeto_cfeb32c5","1","1","21","21","468.721992016","direct","4","1","4","¿Cuántos millones de visitas
 recibe google por minuto?","3.0","4.5","","0","0","1","competitive","right","1.07563495636","469.797672033","3.92436504364","473.878627062","3.35900187492","477.237673998","2.64099812508","479.928615093","481.443017006","481.530124187","484.53311801","0","484.547363043","491.670060158",""
"sujeto_cfeb32c5","1","1","22","22","491.816265106","inverse","1","1","3","La máquina de fax. se inventó en:","1843","1960","","0","0","1","competitive","left","1.0714828968","492.887799978","3.9285171032","496.990842104","3.36694693565","500.357860088","2.63305306435","503.041393042","504.283490181","504.359542131","507.362529993","0","507.376761198","510.61306119",""
"sujeto_cfeb32c5","1","1","23","23","510.761241198","direct","2","1","4","En la verdadera historia de los
 300 espartanos. habían:","300 soldados","4300 soldados","","1","1","1","competitive","right","1.09772205353","511.859070063","3.90227794647","515.949248075","4.27069711685","520.220005989","1.72930288315","522.000373125","523.261593103","523.334204197","526.337151051","1","526.35208106","530.153820038",""
"sujeto_cfeb32c5","1","1","24","24","530.30314517","inverse","1","1","4","¿Cuántos milímetros crece
 el pelo por día?","0.4","0.04","","0","0","0","competitive","left","0.949968099594","531.253197193","4.05003190041","535.476987123","4.00012207031","539.477153063","1.99987792969","541.528477192","543.289178133","543.362133026","546.365102053","0","546.380151033","553.115208149",""
"sujeto_cfeb32c5","1","1","25","25","553.264301062","direct","4","1","1","¿Cuánto mide la baldosa gris 
clásica de Montevideo?","22x22 cm.","20x20 cm.","","1","1","1","individual","left","1.43474292755","554.699097157","3.56525707245","558.422517061","4.29617786407","562.718754053","1.70382213593","564.473551035","566.4687922","566.507719994","569.510704994","1","569.526069164","575.068919182",""
"sujeto_cfeb32c5","1","1","26","26","575.211372137","inverse","2","1","2","¿Cuántas películas de rápidos
 y furiosos hay?","10","11","","1","1","0","competitive","right","1.72882914543","576.940244198","3.27117085457","580.3682971","4.11112880707","584.479475021","1.88887119293","586.402386189","587.759958982","587.837388992","590.840419054","1","590.85452199","592.889226198",""
"sujeto_cfeb32c5","1","1","27","27","593.040155172","direct","3","1","1","¿Cuántos masters 1000
 ganó Del Potro?","1","2","","1","1","1","competitive","left","1.70265102386","594.742851019","3.29734897614","598.194990158","3.35003519058","601.545087099","2.64996480942","604.245419979","606.000013113","606.080049038","609.083074093","1","609.097580194","616.493938208",""
"sujeto_cfeb32c5","1","1","28","28","616.649749994","inverse","2","1","4","¿Cuántos meses dura el 
embarazo de una leona?","3 meses","4 meses","","0","0","1","competitive","right","0.892868041992","617.542690039","4.10713195801","621.806646109","3.96014499664","625.766855001","2.03985500336","627.841023207","628.952061176","629.026448011","632.029438019","0","632.043125153","638.765047073",""
"sujeto_cfeb32c5","1","1","29","29","638.911322117","direct","1","1","1","¿En qué año fue creado
 el sandwich?","1762","1653","","1","1","0","competitive","left","1.7849919796","640.696377993","3.2150080204","644.086380005","3.59714579582","647.683585167","2.40285420418","650.137898207","651.736461163","651.822096109","654.823652029","1","654.839162111","658.309746981",""
"sujeto_cfeb32c5","1","1","30","30","658.440519094","inverse","4","1","2","El nombre de la moneda de Vietnam es:","Dinar","Dong","","0","0","1","competitive","right","0.997466802597","659.438057184","4.0025331974","663.610580206","3.24358797073","666.854229212","2.75641202927","669.646496058","671.078498125","671.164512157","674.167499065","0","674.182176113","680.350609064",""
"sujeto_cfeb32c5","1","1","31","31","680.483879089","direct","2","1","1","¿cuantos aleteos puede dar 
un colibrí por segundo?","120","50","","0","0","0","competitive","left","1.43980097771","681.923737049","3.56019902229","685.658632994","3.39517593384","689.05388999","2.60482406616","691.693231106","693.42564106","693.511399031","696.514379025","0","696.529658079","700.741945982",""
"sujeto_cfeb32c5","1","1","32","32","700.880397081","inverse","4","1","3","¿Qué altura promedio tienen
 los hombres uruguayos?","1.73 m","1.72 m","","1","1","1","competitive","left","1.30987787247","702.190320015","3.69012212753","706.036650181","2.58475613594","708.621474028","3.41524386406","712.088209152","713.350635052","713.422203064","716.425196171","1","716.439954996","720.915849209",""
"sujeto_cfeb32c5","1","2","1","33","857.683226109","direct","1","1","1","¿En qué año nació 
el actor Bradd Pitt?","1967","1963","","1","1","1","competitive","right","1.35919094086","859.042481184","3.64080905914","862.856151104","2.45949697495","865.315711975","3.54050302505","868.892019033","869.987044096","870.07645607","873.078962088","1","873.094134092","879.021028996","720.931228161"
"sujeto_cfeb32c5","1","2","2","34","879.162550211","inverse","2","1","1","¿Cual es el segundo 
monte más alto?","Kanchenjunga","K2","","1","1","1","competitive","left","1.65946793556","880.822060108","3.34053206444","884.331771135","4.35255599022","888.684391975","1.64744400978","890.386437178","891.838016033","891.921240091","894.923958063","1","894.939841032","898.368955135",""
"sujeto_cfeb32c5","1","2","3","35","898.524049044","direct","3","1","1","¿Cuándo finalizó la construcción
 del Palacio Legislativo?","1925","1917","","0","0","1","competitive","left","1.12742590904","899.651545048","3.87257409096","903.694468021","3.9671459198","907.661659002","2.0328540802","909.747406006","911.389104128","911.462762117","914.464332104","0","914.481434107","920.179002047",""
"sujeto_cfeb32c5","1","2","4","36","920.319751978","inverse","3","1","3","¿Cuántos integrantes tenía
 en su inicio  el cuarteto de nos?","3","4","","1","1","1","competitive","left","0.969264984131","921.289064169","4.03073501587","925.489803076","3.87036705017","929.36021018","2.12963294983","931.539944172","932.673029184","932.760571003","935.762932062","1","935.778628111","941.428381205",""
"sujeto_cfeb32c5","1","2","5","37","941.58069706","direct","2","1","3","¿Qué valor tiene el número pi?","3.14","4.18","left","0","0","1","competitive","left","0.953729867935","942.534473181","4.04627013206","946.746927977","2.64868712425","949.395656109","3.35131287575","952.787053108","954.241010189","954.320375204","957.32330513","1","957.33961916","964.258743048",""
"sujeto_cfeb32c5","1","2","6","38","964.408902168","inverse","2","1","2","¿Cuál es la esperanza de vida
 en Uruguay?","75","77","","1","1","0","competitive","right","0.913035154343","965.32200408","4.08696484566","969.577663183","3.0984621048","972.676172018","2.9015378952","975.615800142","977.268982172","977.350365162","980.352976084","1","980.36860013","986.830947161",""
"sujeto_cfeb32c5","1","2","7","39","986.987151146","direct","1","1","2","¿Cuantos pisos tiene la torre 
de las comunicaciones?","26","32","","1","1","0","competitive","right","0.950335025787","987.937534094","4.04966497421","992.156517982","3.80510497093","995.961691141","2.19489502907","998.210494995","1000.039294","1000.12774515","1003.12994218","1","1003.14493012","1005.29114413",""
"sujeto_cfeb32c5","1","2","8","40","1005.43220019","inverse","2","1","4","¿En qué país sudamericano 
no hay McDonalds?","Bolivia","Venezuela","","0","0","1","competitive","left","0.907709121704","1006.33997917","4.0922908783","1010.59989309","3.26213788986","1013.86209702","2.73786211014","1016.63758421","1017.94692802","1018.02332616","1021.02623105","0","1021.03995109","1027.39899111",""
"sujeto_cfeb32c5","1","2","9","41","1027.56133604","direct","3","1","1","¿En qué año empieza
 la Edad Media?","476","512","","1","1","1","competitive","left","1.17598986626","1028.73739004","3.82401013374","1032.72871804","3.50396895409","1036.23274708","2.49603104591","1038.78042006","1040.18396521","1040.26763606","1043.26998615","1","1043.28573418","1046.2743001",""
"sujeto_cfeb32c5","1","2","10","42","1046.42183208","inverse","3","1","4","¿Hace cuántos años surgió
 el ser humano?","200mil","300mil","","0","0","0","competitive","right","1.02889299393","1047.45079207","3.97110700607","1051.60484815","3.10101509094","1054.70594311","2.89898490906","1057.65963721","1059.54495502","1059.62634516","1062.62895298","0","1062.64605904","1065.95654702",""
"sujeto_cfeb32c5","1","2","11","43","1066.13011718","direct","3","1","4","¿Cuántas cuadras tiene
 actualmente 18 de julio? ","36","33","","0","0","1","competitive","left","0.945023059845","1067.07520914","4.05497694016","1071.30068612","3.77358198166","1075.07433105","2.22641801834","1077.33750319","1079.03977013","1079.11978412","1082.12272501","0","1082.13956213","1086.86301804",""
"sujeto_cfeb32c5","1","2","12","44","1087.0082221","inverse","1","1","4","¿Qué juego de equipo se 
considera mas rápido?","Lacrosse","Badminton","","0","0","0","competitive","right","0.837292909622","1087.84555912","4.16270709038","1092.17646718","4.23324203491","1096.40977311","1.76675796509","1098.21582508","1099.45794821","1099.53223801","1102.53314209","0","1102.5510242","1110.54470921",""
"sujeto_cfeb32c5","1","2","13","45","1110.68801808","direct","1","1","3","¿Qué promedio de edad 
vive una jirafa? ","25","20","","0","0","1","competitive","left","0.875026941299","1111.56309414","4.1249730587","1115.84035611","2.87075400352","1118.71117115","3.12924599648","1121.89262605","1123.65411615","1123.74265504","1126.7441051","0","1126.76402617","1132.71895409",""
"sujeto_cfeb32c5","1","2","14","46","1132.88249302","inverse","1","1","2","¿Cuántos grandes lagos hay?","7","5","","0","0","1","competitive","left","0.951006889343","1133.83355308","4.04899311066","1138.03626919","3.38730812073","1141.42364216","2.61269187927","1144.08878613","1145.38091421","1145.47345805","1148.47647214","0","1148.49217105","1156.31295204",""
"sujeto_cfeb32c5","1","2","15","47","1156.45969105","direct","3","1","2","¿Cuántos discos de estudio
 grabó Johhny Cash? ","54","43","","1","1","0","competitive","right","0.790195941925","1157.24997115","4.20980405807","1161.61557817","3.2374560833","1164.85311413","2.7625439167","1167.66817307","1168.94683218","1169.01942205","1172.02195001","1","1172.03678203","1178.68697715",""
"sujeto_cfeb32c5","1","2","16","48","1178.84154201","inverse","4","1","1","¿Cuántos barrios tiene
 Montevideo? ","71","62","","0","0","1","competitive","right","1.39077401161","1180.23235798","3.60922598839","1183.99398708","3.37742590904","1187.37147903","2.62257409096","1190.03038502","1191.03694201","1191.11314416","1194.11607909","0","1194.13293815","1199.59492898",""
"sujeto_cfeb32c5","1","2","17","49","1199.75040817","direct","3","1","3","¿Qué edad tiene Homero Simpson?","36","42","","0","0","1","competitive","right","1.12927603722","1200.87972713","3.87072396278","1204.92016912","2.30064177513","1207.22085118","3.69935822487","1210.95866418","1212.33465314","1212.42308116","1215.42602301","0","1215.4437902","1219.83192015",""
"sujeto_cfeb32c5","1","2","18","50","1219.99521708","inverse","4","1","2","¿Cuántos países con monarquía 
hay en europa actualmente? ","6","10","","1","1","1","competitive","right","0.611846923828","1220.60711503","4.38815307617","1225.16652513","4.63168001175","1229.79824519","1.36831998825","1231.20148301","1232.63976121","1232.71860218","1235.72157001","1","1235.73854303","1241.89021516",""
"sujeto_cfeb32c5","1","2","19","51","1242.03997421","direct","2","1","3","¿Cuántos capítulos de
 Friends existen? ","236","228","","1","1","1","competitive","left","0.741508960724","1242.78155613","4.25849103928","1247.21161819","3.36090707779","1250.57258821","2.63909292221","1253.24787712","1254.55300903","1254.63190317","1257.63396001","1","1257.64949703","1260.02514601",""
"sujeto_cfeb32c5","1","2","20","52","1260.18287921","inverse","1","1","3","¿Cuántas óperas compuso Mozart? ","27","22","","1","1","1","competitive","right","0.758943080902","1260.94194317","4.2410569191","1265.38456011","3.31629085541","1268.70095515","2.68370914459","1271.42432404","1272.71599913","1272.804883","1275.80730915","1","1275.82601619","1283.13696313",""
"sujeto_cfeb32c5","1","2","21","53","1283.27857518","direct","4","1","3","¿Cuántos mundiales de fútbol 
femenino ha realizado FIFA? ","9","7","","1","1","1","competitive","right","0.807604074478","1284.08622503","4.19239592552","1288.43223619","3.58619713783","1292.01849508","2.41380286217","1294.48496819","1295.72800708","1295.805444","1298.80798721","1","1298.82122207","1304.92364907",""
"sujeto_cfeb32c5","1","2","22","54","1305.07408404","inverse","3","1","2","¿Cuál es la temperatura 
media anual en Montevideo? ","17.5","16.3","","0","0","1","competitive","left","0.71342086792","1305.78758311","4.28657913208","1310.22604799","3.21556711197","1313.44166112","2.78443288803","1316.26411414","1318.20229602","1318.28184414","1321.28396106","0","1321.30031013","1327.86897016",""
"sujeto_cfeb32c5","1","2","23","55","1328.0192132","direct","2","1","2","¿En qué año se estrenó el
 videojuego The Sims? ","2000","2002","","0","0","0","competitive","left","0.892753124237","1328.91201305","4.10724687576","1333.17391205","3.79015302658","1336.96412921","2.20984697342","1339.22611618","1341.08814502","1341.17218399","1344.17514801","0","1344.19559121","1351.58921003",""
"sujeto_cfeb32c5","1","2","24","56","1351.74651718","inverse","2","1","1","¿Cuál es la canción con 
mas covers? ","Yesterday","Stand by me","","0","0","0","competitive","right","1.10274600983","1352.84932709","3.89725399017","1356.91778517","1.69062709808","1358.60847402","4.30937290192","1362.97164106","1364.37017512","1364.455616","1367.45854616","0","1367.47576118","1371.6459291",""
"sujeto_cfeb32c5","1","2","25","57","1371.79422212","direct","1","1","4","¿Cuánto duró la guerra
 de los 100 años?","116","123","","0","0","0","competitive","left","0.878412008286","1372.67267609","4.12158799171","1376.94700599","3.02471804619","1379.97176719","2.97528195381","1382.98264098","1384.46296716","1384.55086017","1387.55163598","0","1387.56184006","1389.88095999",""
"sujeto_cfeb32c5","1","2","26","58","1390.03567815","inverse","4","1","4","¿Qué color tiene la  bandera de Brasil?","Amarillo","Naranja","left","0","0","1","competitive","left","0.76126909256","1390.7970252","4.23873090744","1395.2067132","2.6762881279","1397.88306618","3.3237118721","1401.25643301","1402.82286119","1402.91036916","1405.91294599","1","1405.92888999","1408.96097016",""
"sujeto_cfeb32c5","1","2","27","59","1409.11072302","direct","4","1","3","¿Qué carabela de 
Colon no volvió del viaje?","Santa María","La pinta","","0","0","1","competitive","right","1.05848908424","1410.16925502","3.94151091576","1414.26658416","3.99774813652","1418.26439404","2.00225186348","1420.31997013","1421.81094003","1421.88771105","1424.88993502","0","1424.90430498","1427.00378609",""
"sujeto_cfeb32c5","1","2","28","60","1427.15519309","inverse","4","1","4","¿Cuántos huesos tiene
 un adulto humano?","217","206","","0","0","1","competitive","right","0.809293031693","1427.96455216","4.19070696831","1432.30972314","3.12389016151","1435.43365812","2.87610983849","1438.361058","1439.63194299","1439.71216917","1442.71428204","0","1442.7318182","1450.56895399",""
"sujeto_cfeb32c5","1","2","29","61","1450.71759915","direct","1","1","1","¿Qué país africano fue 
fundado por esclavos?","Liberia","Chad","","0","0","0","competitive","right","1.29232215881","1452.00997019","3.70767784119","1455.87147903","4.64251208305","1460.51404214","1.35748791695","1461.90848708","1463.89994812","1463.97716117","1466.98007917","0","1466.99400306","1474.98481202",""
"sujeto_cfeb32c5","1","2","30","62","1475.14742398","inverse","4","1","2","¿A cuánto asciende la cima
 del monte Everest?","7.990 mts","8.848 mts","","0","0","1","competitive","right","0.627821922302","1475.77532005","4.3721780777","1480.31694412","3.63747000694","1483.95447707","2.36252999306","1486.36936212","1487.55395699","1487.63965917","1490.64201403","0","1490.65736198","1497.84100509",""
"sujeto_cfeb32c5","1","2","31","63","1497.99341321","direct","4","1","1","¿Cuál es el país mas chico?","Sealand","Luxemburgo","","1","1","1","competitive","left","0.986187934875","1498.97967601","4.01381206512","1503.16158104","2.18712496758","1505.34876919","3.81287503242","1509.21598601","1511.07955408","1511.16770005","1514.16994309","1","1514.18472409","1517.306952",""
"sujeto_cfeb32c5","1","2","32","64","1517.45445418","inverse","2","1","4","¿Cuántas pirámides hay en Egipto?","10000","11000","","1","1","1","competitive","right","0.924478054047","1518.3790071","4.07552194595","1522.623914","3.16404604912","1525.78800321","2.83595395088","1528.65999413","1529.69356108","1529.7766211","1532.77956009","1","1532.79628611","1537.90498805",""
"sujeto_cfeb32c5","1","3","1","65","1656.89371419","direct","2","1","2","¿Cuál es el quinto país con 
mas extensión?","Canadá","Brasil","","1","1","0","competitive","left","1.01625609398","1657.91002703","3.98374390602","1662.06456614","4.23443698883","1666.29906416","1.76556301117","1668.11578107","1669.44908714","1669.533077","1672.53600502","1","1672.55048108","1680.27686906","1537.9204452"
"sujeto_cfeb32c5","1","3","2","66","1680.41836905","inverse","1","1","2","¿Qué rasgo facial no tiene
 la Mona Lisa?","Cejas","Pómulos","","0","0","1","competitive","left","0.945916891098","1681.36433101","4.0540831089","1685.57536006","3.83295893669","1689.4083631","2.16704106331","1691.62771201","1693.37812304","1693.46224213","1696.46525812","0","1696.47954917","1702.75090504",""
"sujeto_cfeb32c5","1","3","3","67","1702.8982141","direct","4","1","3","¿Cuál es el país con 
mayor población?","Esados Unidos","China","right","0","0","1","competitive","right","0.939416885376","1703.83773899","4.06058311462","1708.08723021","3.02342891693","1711.11069798","2.97657108307","1714.13752198","1715.7829802","1715.87265611","1718.87561703","1","1718.89029908","1722.25761819",""
"sujeto_cfeb32c5","1","3","4","68","1722.39118314","inverse","1","1","1","La palabra dinosaurio significa","Lagarto Terrible","Lagarto Dragón","","1","1","0","competitive","left","0.794679164886","1723.185956","4.20532083511","1727.54903007","2.89094185829","1730.44003201","3.10905814171","1733.59371614","1734.76402807","1734.8446002","1737.84759402","1","1737.86206603","1740.72389507",""
"sujeto_cfeb32c5","1","3","5","69","1740.86343217","direct","2","1","3","¿Qué es el membrillero?","Arbol","Arbusto","","0","0","0","competitive","right","0.836089134216","1741.69959617","4.16391086578","1746.00773621","3.49946713448","1749.50726604","2.50053286552","1752.05954504","1754.01366806","1754.0938611","1757.09685707","0","1757.11117411","1763.57517815",""
"sujeto_cfeb32c5","1","3","6","70","1763.71346498","inverse","3","1","3","¿Alrededor de qué planeta orbita 
el satélite Europa?","Jupiter","Saturno","","1","1","1","competitive","left","0.794908046722","1764.50842309","4.20509195328","1768.86778808","4.70674514771","1773.57457519","1.29325485229","1774.90307117","1776.4479022","1776.52067208","1779.52365303","1","1779.5390172","1781.74419618",""
"sujeto_cfeb32c5","1","3","7","71","1781.89036512","direct","3","1","1","¿Donde fue el mundial de 
fútbol de 1954?","Suiza","Suecia","","1","1","1","competitive","right","0.848313093185","1782.73872399","4.15168690681","1787.07932115","4.48842716217","1791.56779408","1.51157283783","1793.12753201","1794.38016319","1794.462183","1797.46516919","1","1797.47890306","1801.39067602",""
"sujeto_cfeb32c5","1","3","8","72","1801.53120613","inverse","1","1","4","¿Cuál de los 7 enanitos
no tenía barba?","Bashful","Mudito","","1","1","0","competitive","right","0.967724084854","1802.49902916","4.03227591515","1806.70678806","4.51928091049","1811.2261312","1.48071908951","1812.75830221","1814.33845019","1814.40850019","1817.41148615","1","1817.42691708","1822.35599804",""
"sujeto_cfeb32c5","1","3","9","73","1822.49524307","direct","3","1","2","¿Cual red social es
mas utilizada mundialmente?","Instagram","Facebook","","1","1","0","competitive","right","0.93999004364","1823.43530321","4.06000995636","1827.64992404","3.80832791328","1831.45829701","2.19167208672","1833.68323302","1835.60062099","1835.68449211","1838.68747306","1","1838.70314002","1841.6376462",""
"sujeto_cfeb32c5","1","3","10","74","1841.78789401","inverse","4","1","1","¿Cuándo se inició la copa
 América de fútbol?","1916","1923","","1","1","1","competitive","left","0.990657091141","1842.77860403","4.00934290886","1846.96106505","3.6174788475","1850.57860804","2.3825211525","1853.01114011","1854.9086082","1854.99558616","1857.99854398","1","1858.01316309","1860.66929507",""
"sujeto_cfeb32c5","1","3","11","75","1860.81452203","direct","3","1","4","¿Cuántos presidentes de EEUU
han muerto asesinados?","3","4","","0","0","1","competitive","right","1.06616282463","1861.88073516","3.93383717537","1865.97116899","3.80161499977","1869.77284503","2.19838500023","1872.02226019","1873.506217","1873.59021521","1876.59300208","0","1876.60789204","1880.25195718",""
"sujeto_cfeb32c5","1","3","12","76","1880.39229107","inverse","2","1","4","¿Cuántas veces participó EEUU
 en la copa América?","4","5","","0","0","1","competitive","left","0.76971077919","1881.16206813","4.23028922081","1885.56434417","4.00365710258","1889.56806803","1.99634289742","1891.61666918","1893.06080198","1893.13414598","1896.13713908","0","1896.15149403","1902.2686832",""
"sujeto_cfeb32c5","1","3","13","77","1902.40253901","direct","4","1","1","¿Cuál de estos países 
no formaba la URSS?","Azeribayán","Afganistán","","0","0","1","competitive","right","1.31670689583","1903.71929502","3.68329310417","1907.57174802","4.78057193756","1912.35236311","1.21942806244","1913.60753798","1914.92000699","1914.99204707","1917.99504399","0","1918.00964117","1925.99174213",""
"sujeto_cfeb32c5","1","3","14","78","1926.12671518","inverse","1","1","1","¿En qué año se inauguró
 el teatro Solís?","1867","1856","","0","0","0","competitive","right","0.988811016083","1927.11559105","4.01118898392","1931.28950214","4.55917215347","1935.84871817","1.44082784653","1937.32366109","1938.3799572","1938.45829415","1941.46127605","0","1941.4759562","1948.12375402",""
"sujeto_cfeb32c5","1","3","15","79","1948.26068401","direct","1","1","4","¿A qué velocidad vuela 
el avión más rápido?","3529","3874","","0","0","0","competitive","left","0.818202018738","1949.07895803","4.18179798126","1953.43439507","3.76156401634","1957.19602299","2.23843598366","1959.46890903","1961.224437","1961.30305719","1964.30606008","0","1964.320575","1966.43084908",""
"sujeto_cfeb32c5","1","3","16","80","1966.58923817","inverse","3","1","4","¿De qué año es la primer 
película cinematográfica?","1897","1888","","0","0","0","competitive","right","1.05182695389","1967.64119315","3.94817304611","1971.76098919","4.08122014999","1975.84225106","1.91877985001","1977.81192517","1978.94494915","1979.02993202","1982.03295207","0","1982.04715514","1987.45694208",""
"sujeto_cfeb32c5","1","3","17","81","1987.59841609","direct","2","1","3","¿Cuántos países 
tiene nuestro planeta?","191","194","","1","1","1","competitive","left","0.905928850174","1988.50441599","4.09407114983","1992.78347111","4.06088399887","1996.84439707","1.93911600113","1998.81999612","2000.17724705","2000.25408006","2003.25708699","1","2003.27171111","2006.51001406",""
"sujeto_cfeb32c5","1","3","18","82","2006.65668511","inverse","2","1","2","¿Cuántos habitantes
 tiene Buenos Aires?","2.9000.000","3650000","","0","0","0","competitive","left","0.84387588501","2007.50063705","4.15612411499","2011.81463814","4.02404999733","2015.8387332","1.97595000267","2017.86578107","2019.263026","2019.33373404","2022.33664918","0","2022.35176301","2028.18115902",""
"sujeto_cfeb32c5","1","3","19","83","2028.31917906","direct","2","1","1","¿Cuántos kilos forman una tonelada?","1000","1500","left","1","1","1","competitive","left","0.982656002045","2029.30189705","4.01734399796","2033.49310017","2.28082919121","2035.77399707","3.71917080879","2039.54256916","2041.42989421","2041.51220798","2044.515203","1","2044.52950907","2050.48691702",""
"sujeto_cfeb32c5","1","3","20","84","2050.64731598","inverse","4","1","4","¿Cuántos estados tiene la 
República del Perú? ","24","23","","0","0","1","competitive","right","1.06778788567","2051.71517301","3.93221211433","2055.82221007","3.20299983025","2059.02525115","2.79700016975","2061.87298012","2062.89511204","2062.97347808","2065.97641706","0","2065.99083114","2070.93591809",""
"sujeto_cfeb32c5","1","3","21","85","2071.07659006","direct","3","1","3","¿En qué año nació Cristóbal Colón? ","1451","1447","","0","0","1","competitive","right","1.08278799057","2072.15944505","3.91721200943","2076.23065615","3.07477617264","2079.305475","2.92522382736","2082.28206301","2084.12703109","2084.19928408","2087.20227909","0","2087.21803617","2091.44606209",""
"sujeto_cfeb32c5","1","3","22","86","2091.58792615","inverse","4","1","4","¿Cuánto mide la 
Montaña Aconcagua? ","6234","6962","","0","0","1","competitive","left","0.832661151886","2092.42065215","4.16733884811","2096.76012015","2.87758111954","2099.6377461","3.12241888046","2102.79290605","2104.08201599","2104.16181803","2107.16481304","0","2107.17962003","2114.36327004",""
"sujeto_cfeb32c5","1","3","23","87","2114.51426816","direct","2","1","4","¿Cuánto mide el punto
 más profundo del océano? ","12508","11003","","0","0","1","competitive","left","0.923726081848","2115.43804216","4.07627391815","2119.65468717","3.70532917976","2123.36008501","2.29467082024","2125.70654798","2126.95807004","2127.04107213","2130.04406214","0","2130.05755115","2134.26382899",""
"sujeto_cfeb32c5","1","3","24","88","2134.40933108","inverse","1","1","3","¿Cuántos álbumes ha publicado 
el cantante Jaime Roos? ","41","34","","0","0","1","competitive","left","0.819881916046","2135.22928405","4.18011808395","2139.58049798","3.94173598289","2143.5223012","2.05826401711","2145.63362217","2147.12347817","2147.20122313","2150.20418119","0","2150.21836114","2156.41451502",""
"sujeto_cfeb32c5","1","3","25","89","2156.55300999","direct","4","1","3","¿En qué año nació el 
ex-presidente Jorge Battle? ","1921","1927","","1","1","1","competitive","left","0.678456068039","2157.23153901","4.32154393196","2161.7258122","4.24871492386","2165.97456908","1.75128507614","2167.77728009","2169.50798011","2169.59449911","2172.59743404","1","2172.61217213","2176.09823108",""
"sujeto_cfeb32c5","1","3","26","90","2176.24733615","inverse","1","1","3","¿Cuántas presidencias 
constitucionales  hubo en Uruguay? ","41","42","","0","0","1","competitive","right","0.667309999466","2176.91471314","4.33269000053","2181.42084312","4.02288722992","2185.44377303","1.97711277008","2187.47265816","2188.67644215","2188.75698113","2191.75992703","0","2191.7736671","2197.55732107",""
"sujeto_cfeb32c5","1","3","27","91","2197.70915699","direct","1","1","2","¿Quién escribió mas sinfonías?","Mozart","Haydn","","1","1","0","competitive","left","0.778832912445","2198.48807216","4.22116708755","2202.88177514","3.73523521423","2206.61705112","2.26476478577","2208.93350816","2210.15097117","2210.2343812","2213.23738718","1","2213.24648404","2216.9979012",""
"sujeto_cfeb32c5","1","3","28","92","2217.1483202","inverse","4","1","2","¿En qué año nació Michael Jackson?","1958","1953","","1","1","1","competitive","right","0.798896074295","2217.94726205","4.2011039257","2222.32329512","2.8489818573","2225.17231798","3.1510181427","2228.35531116","2230.33354807","2230.40551615","2233.40848398","1","2233.42407107","2239.28638101",""
"sujeto_cfeb32c5","1","3","29","93","2239.42556906","direct","3","1","2","¿En qué año entró en vigencia 
la ley antitabaco en Uruguay?","2005","2006","","1","1","1","competitive","left","0.852933883667","2240.2785852","4.14706611633","2244.60493207","4.29963779449","2248.90463209","1.70036220551","2250.65533805","2252.25010419","2252.32286119","2255.32585001","1","2255.34045005","2260.67399406",""
"sujeto_cfeb32c5","1","3","30","94","2260.80884314","inverse","3","1","1","¿Cuándo se subió el 
primer video a youtube?","2004","2005","","0","0","1","competitive","left","0.764903068542","2261.57381821","4.23509693146","2265.98301411","3.11677217484","2269.0998261","2.88322782516","2272.02726507","2273.3329432","2273.41128898","2276.41427708","0","2276.42864513","2284.1842711",""
"sujeto_cfeb32c5","1","3","31","95","2284.32952619","direct","2","1","1","¿Cuántos habitantes tiene India?","1200 millones","1300 millones","","0","0","0","competitive","left","0.933442115784","2285.26304221","4.06655788422","2289.49431014","4.0017490387","2293.49612117","1.9982509613","2295.54598713","2297.51565003","2297.59702301","2300.59997916","0","2300.6145401","2306.66202116",""
"sujeto_cfeb32c5","1","3","32","96","2306.79995608","inverse","4","1","2","¿A qué edad murió Bob Marley?","36","37","","0","0","1","competitive","right","0.73730802536","2307.53731108","4.26269197464","2311.95619106","2.54310083389","2314.4993341","3.45689916611","2318.006603","2319.90303111","2319.97489405","2322.97694516","0","2322.99327111","2326.09569812",""
"sujeto_cfeb32c5","1","4","1","97","2489.83274817","direct","2","1","1","¿Cuantos años dirigió la selección 
uruguaya Tabarez?","15 años","13 años","","0","0","0","competitive","right","0.950670957565","2490.78346205","4.04932904243","2495.002455","4.53401494026","2499.53651404","1.46598505974","2501.05595207","2502.24711108","2502.32308817","2505.32595515","0","2505.34161115","2512.4136281","2326.1107142"
"sujeto_cfeb32c5","1","4","2","98","2512.57731819","inverse","4","1","1","¿Cuantas teclas tiene un teclado 
de computadora generalmente? ","Entre 99 y 108","Entre 109 y 113","","1","1","1","competitive","right","0.97700715065","2513.55446601","4.02299284935","2517.74838519","3.23550200462","2520.98395109","2.76449799538","2523.80195904","2524.8039372","2524.88468409","2527.88696718","1","2527.90461612","2530.27593613",""
"sujeto_cfeb32c5","1","4","3","99","2530.42165899","direct","1","1","1","¿Cuál Departamento tiene
 mayor superficie?","Río Negro","Soriano","","0","0","0","competitive","left","2.79124593735","2533.21296906","2.20875406265","2535.58700013","3.30395412445","2538.89099717","2.69604587555","2541.6432271","2543.35593009","2543.44237709","2546.4453671","0","2546.4635191","2550.78893614",""
"sujeto_cfeb32c5","1","4","4","100","2550.93175912","inverse","3","1","2","¿Cuál es el apellido de las 
hermanastras  de  cenicienta?","Tremaine","Truman","","0","0","1","competitive","right","0.748467922211","2551.68028021","4.25153207779","2556.10212708","4.25509905815","2560.35729098","1.74490094185","2562.15499115","2564.02453804","2564.10664701","2567.10900712","0","2567.12465906","2569.81995606",""
"sujeto_cfeb32c5","1","4","5","101","2569.97601509","direct","4","1","4","¿Cuál película ganó un
 Oscar a mejor película?","Alto Impacto","Cache","","0","0","1","competitive","left","1.1493499279","2571.12543607","3.8506500721","2575.14244318","4.09797501564","2579.24046016","1.90202498436","2581.18226314","2582.30094504","2582.38199615","2585.38397217","0","2585.40146399","2587.66610718",""
"sujeto_cfeb32c5","1","4","6","102","2587.81738901","inverse","1","1","3","¿A cuántos centímetros
equivale la medida pié?","25","30","","0","0","1","competitive","left","1.02219986916","2588.83965516","3.97780013084","2592.98535514","4.26822900772","2597.25366211","1.73177099228","2599.02402902","2600.06404901","2600.14076614","2603.14368701","0","2603.16000319","2608.56097412",""
"sujeto_cfeb32c5","1","4","7","103","2608.71261811","direct","2","1","2","¿Qué departamento es mas grande?","Cerro Largo","Paysandú","","0","0","0","competitive","right","0.908801794052","2609.62149119","4.09119820595","2613.8647871","3.67052483559","2617.53535604","2.32947516441","2619.91578507","2621.51501107","2621.6022222","2624.60495305","0","2624.62073612","2628.73070717",""
"sujeto_cfeb32c5","1","4","8","104","2628.91974211","inverse","2","1","3","¿Quién pintó la Mona Lisa?","Picasso","Da Vinci","right","0","0","1","competitive","right","0.994386196136","2629.91417217","4.00561380386","2634.07477617","2.06521105766","2636.14003611","3.93478894234","2640.11160016","2641.71700811","2641.79579115","2644.79874802","1","2644.81371212","2646.97600007",""
"sujeto_cfeb32c5","1","4","9","105","2647.12843919","direct","4","1","3","¿Cuántos litros hay en un galon?","3.54","3.78","","1","1","1","competitive","left","0.971394062042","2648.09991217","4.02860593796","2652.28411698","3.16557908058","2655.4497602","2.83442091942","2658.32100511","2659.83885717","2659.92090917","2662.92295599","1","2662.939955","2668.73200917",""
"sujeto_cfeb32c5","1","4","10","106","2668.90680504","inverse","4","1","1","¿Cuántas teclas tiene
 un piano moderno?","80","88","","0","0","1","competitive","right","0.755805015564","2669.6627512","4.24419498444","2674.06132317","3.11100506783","2677.172364","2.88899493217","2680.09918809","2681.10762119","2681.19913101","2684.2021482","0","2684.21713209","2691.01485419",""
"sujeto_cfeb32c5","1","4","11","107","2691.17150712","direct","4","1","3","¿Cuántos países hay en África?","54","62","","0","0","1","competitive","left","0.803821802139","2691.97541213","4.19617819786","2696.33979416","3.0563390255","2699.39619613","2.9436609745","2702.39148402","2704.08201718","2704.17430019","2707.17693114","0","2707.19474411","2714.99898911",""
"sujeto_cfeb32c5","1","4","12","108","2715.19617009","inverse","1","1","3","¿En qué siglo se crearon
 las primeras pistolas?","XV","XIII","","1","1","1","competitive","right","0.772874832153","2715.96909809","4.22712516785","2720.35213709","3.81179785728","2724.16398001","2.18820214272","2726.38854504","2728.33644009","2728.42188716","2731.42397809","1","2731.44090009","2734.67400098",""
"sujeto_cfeb32c5","1","4","13","109","2734.82455111","direct","3","1","4","¿En qué año se estrenó 
la serie friends?","1994","1995","","0","0","1","competitive","right","0.845300197601","2735.66991806","4.1546998024","2739.99510908","3.77958297729","2743.774755","2.22041702271","2746.03185105","2747.90694213","2747.98573518","2750.9879961","0","2751.0012331","2756.007339",""
"sujeto_cfeb32c5","1","4","14","110","2756.15128112","inverse","3","1","4","¿En qué año nació Hitler?","1889","1887","","0","0","1","competitive","right","0.788340806961","2756.939677","4.21165919304","2761.32339215","3.13111209869","2764.4546001","2.86888790131","2767.35858917","2768.47298002","2768.56012917","2771.56297112","0","2771.57780004","2776.60392308",""
"sujeto_cfeb32c5","1","4","15","111","2776.74607301","direct","1","1","4","¿Cuánto pesa un elefante Africano?","6000 kilos","5400 kilos","","0","0","0","competitive","right","0.930286884308","2777.67642498","4.06971311569","2781.8984251","3.05217885971","2784.950701","2.94782114029","2787.95081115","2789.306041","2789.38669801","2792.38897014","0","2792.40524101","2799.10716915",""
"sujeto_cfeb32c5","1","4","16","112","2799.25884509","inverse","1","1","2","¿Qué porcentaje de 
la población es zurda?","10%","7%","","1","1","0","competitive","right","0.801343202591","2800.06023717","4.19865679741","2804.426929","3.35418796539","2807.781183","2.64581203461","2810.47983217","2811.72295308","2811.7972331","2814.79997516","1","2814.81581402","2820.79556513",""
"sujeto_cfeb32c5","1","4","17","113","2820.93626308","direct","1","1","2","¿En qué año se estrenó
Volver al futuro?","1984","1985","","0","0","1","competitive","left","0.502799987793","2821.43911719","4.49720001221","2826.12016416","3.37879610062","2829.49900317","2.62120389938","2832.15794802","2833.71898913","2833.80573511","2836.80866599","0","2836.82734108","2843.91206217",""
"sujeto_cfeb32c5","1","4","18","114","2844.06323814","inverse","3","1","2","¿Cuántos jugadores hay en un 
equipo de baseball?","9","8","","1","1","0","competitive","right","1.30458807945","2845.36788702","3.69541192055","2849.21817899","3.99759411812","2853.21581721","2.00240588188","2855.25279498","2856.86700702","2856.95346308","2859.95448208","1","2859.97290301","2864.94997811",""
"sujeto_cfeb32c5","1","4","19","115","2865.09173012","direct","2","1","1","¿Cuántos Oscar ganó
 la película titanic?","13","11","","1","1","1","competitive","right","0.844572067261","2865.93643403","4.15542793274","2870.26142311","3.80323815346","2874.06472301","2.19676184654","2876.31240416","2877.61394215","2877.69644809","2880.69899321","1","2880.71623111","2885.31794119",""
"sujeto_cfeb32c5","1","4","20","116","2885.46693206","inverse","4","1","4","¿En qué año comenzó
la segunda guerra mundial?","1939","1976","left","0","0","1","competitive","left","0.817715883255","2886.28470016","4.18228411674","2890.63712811","3.65042591095","2894.28760099","2.34957408905","2896.67466021","2898.47395802","2898.55949998","2901.56195402","1","2901.57584119","2905.56297112",""
"sujeto_cfeb32c5","1","4","21","117","2905.71059299","direct","2","1","4","¿Cuántos biomas hay en Uruguay?","5","4","","0","0","1","competitive","right","0.767918109894","2906.47856402","4.23208189011","2910.88031602","2.6660990715","2913.54647803","3.3339009285","2916.91817212","2918.71553206","2918.80150318","2921.80398321","0","2921.82042718","2928.0698452",""
"sujeto_cfeb32c5","1","4","22","118","2928.24063802","inverse","2","1","3","¿Cuándo murió Pablo Escobar?","1993","1997","","1","1","1","competitive","right","0.696792840958","2928.93751121","4.30320715904","2933.40760899","3.57069396973","2936.9783771","2.42930603027","2939.44359207","2941.22593713","2941.31442213","2944.31479812","1","2944.33233213","2950.03597617",""
"sujeto_cfeb32c5","1","4","23","119","2950.18260717","direct","1","1","4","¿Qué serie ha ganado mas premios?","Friends","Murphy Brown","","1","1","0","competitive","left","0.712747097015","2950.89541101","4.28725290298","2955.35164714","2.69562506676","2958.04733419","3.30437493324","2961.39120603","2962.74303699","2962.82513309","2965.82795715","1","2965.84292006","2971.40152502",""
"sujeto_cfeb32c5","1","4","24","120","2971.5461061","inverse","4","1","2","¿Cuántas fichas tiene el dominó?","26","28","","1","1","1","competitive","right","0.894070863724","2972.44022703","4.10592913628","2976.71293306","3.95223593712","2980.6652112","2.04776406288","2982.75019217","2983.80489898","2983.88551211","2986.88792515","1","2986.90288806","2992.14599514",""
"sujeto_cfeb32c5","1","4","25","121","2992.29059315","direct","2","1","4","¿Cuántos son los dientes de leche?","20","25","","0","0","1","competitive","left","0.737542152405","2993.02821112","4.2624578476","2997.45923114","3.39087200165","3000.850173","2.60912799835","3003.51024199","3005.21998811","3005.29728103","3008.29993606","0","3008.31432509","3010.45998216",""
"sujeto_cfeb32c5","1","4","26","122","3010.59678411","inverse","3","1","3","¿Cuántos gramos son una onza?","22","28","","0","0","1","competitive","right","1.00270795822","3011.59961915","3.99729204178","3015.75384402","2.81817102432","3018.57209802","3.18182897568","3021.80514717","3023.79995108","3023.8753581","3026.87832308","0","3026.89106703","3033.18129611",""
"sujeto_cfeb32c5","1","4","27","123","3033.32710719","direct","3","1","1","¿Cuándo salió el primer album
 de los Beatles?","1963","1962","","1","1","1","competitive","right","1.09194517136","3034.41909909","3.90805482864","3038.49676299","3.60427212715","3042.10112309","2.39572787285","3044.54815102","3045.71094298","3045.78675604","3048.78897214","1","3048.80255198","3052.57393813",""
"sujeto_cfeb32c5","1","4","28","124","3052.71926808","inverse","3","1","3","¿Quién fundó la empresa apple?","Carlos Slim","Steve Jobs","","1","1","1","competitive","right","0.725775003433","3053.44509506","4.27422499657","3057.88751411","3.1417889595","3061.02937412","2.8582110405","3063.94229603","3065.0569272","3065.14225316","3068.14519811","1","3068.16163421","3074.45949817",""
"sujeto_cfeb32c5","1","4","29","125","3074.61433721","direct","4","1","2","¿Cuántos municipios hay
 en Montevideo?","8","7","","1","1","1","competitive","left","0.807640075684","3075.42202902","4.19235992432","3079.78408718","2.87784600258","3082.66197705","3.12215399742","3085.81971717","3087.7339642","3087.82272315","3090.82494712","1","3090.84066916","3092.92161703",""
"sujeto_cfeb32c5","1","4","30","126","3093.07562017","inverse","1","1","1","¿Cuántos kilómetros hay
 de Montevideo a Artigas?","632","599","","0","0","0","competitive","left","0.941456079483","3094.01713204","4.05854392052","3098.24064112","2.83528399467","3101.07597899","3.16471600533","3104.28103614","3105.7640152","3105.84859109","3108.85100913","0","3108.86624503","3114.91743803",""
"sujeto_cfeb32c5","1","4","31","127","3115.05164814","direct","2","1","2","¿En qué año nació 
Leonardo Da Vinci?","1452","1511","","1","1","0","competitive","left","0.758313179016","3115.81004214","4.24168682098","3120.22199202","2.78686594963","3123.00898004","3.21313405037","3126.27290106","3128.12646699","3128.20913219","3131.21195507","1","3131.22833014","3134.37469816",""
"sujeto_cfeb32c5","1","4","32","128","3134.52883601","inverse","3","1","1","¿A qué continente
 pertenece el país Gabón?","Africa","Oceanía","","0","0","1","competitive","left","0.75217795372","3135.28108811","4.24782204628","3139.69673419","4.73119211197","3144.42799115","1.26880788803","3145.73583508","3147.54753304","3147.63594818","3150.63889408","0","3150.65419221","3155.88755298",""
