"code","nro_aplicante","nro_bloque","nro_trial_bloque","nro_trial_global","show_game_type","choice_order","rival","pay_individual","pay_competitive","question","answer_left_text","answer_right_text","correct_answer","outcome_individual","outcome_competitive","outcome_rival","game_type","answer","social_time","rt_game_type","feedback_delay","show_question","answer_time","rt_answer_global","feedback_delay_2","show_jitter","jitter_time","show_outcome","outcome_time","outcome_participant_real","show_final_jitter","second_jitter_time","inicio_descanso"
"sujeto_0029146","1","1","1","1","607.926061869","direct","3","1","4","¿Cuántos centímetros corresponden
al talle 36 del calzado?","23","24","","0","0","1","individual","right","2.02091002464","609.947071075","2.97908997536","613.114282846","3.81663107872","616.93095994","2.18336892128","619.164490938","620.192756891","620.232249022","623.235199928","0","623.249265909","625.411756039",""
"sujeto_0029146","1","1","2","2","625.551313877","inverse","3","1","2","¿Cuántas metros mide la Intendencia
Municipal de Montevideo? ","84","78","","0","0","1","individual","left","1.71663093567","627.268024921","3.28336906433","630.689152002","3.75876116753","634.447985888","2.24123883247","636.723454952","638.600035906","638.640927076","641.643871069","0","641.65887785","643.751652956",""
"sujeto_0029146","1","1","3","3","643.893352985","direct","1","1","3","¿Cuántas La Pasiva
 hay en uruguay?","15","11","","1","1","1","individual","right","2.20359277725","646.097014904","2.79640722275","649.031832933","3.50910782814","652.541008949","2.49089217186","655.064020872","656.675674915","656.715437889","659.718404055","1","659.732409954","664.010733843",""
"sujeto_0029146","1","1","4","4","664.133823872","inverse","3","1","3","¿De que color es la camiseta de uruguay?","blanca","celeste","right","1","1","1","individual","left","2.10916090012","666.243047953","2.89083909988","669.308207035","3.59361314774","672.901855946","2.40638685226","675.343663931","676.54805398","676.595093012","679.598031044","0","679.611976862","683.065877914",""
"sujeto_0029146","1","1","5","5","683.229622841","direct","2","1","1","¿Cuánto metros mide
la torre Eiffel?","333","324","","1","1","1","individual","left","1.1963160038","684.426002979","3.8036839962","688.402375937","3.04252004623","691.444939852","2.95747995377","694.452986956","695.974367857","696.020685911","699.023668051","1","699.038589001","706.075281858",""
"sujeto_0029146","1","1","6","6","706.223370075","inverse","3","1","4","¿Cuantas ciudades existen
 en todo el uruguay?","63","72","","0","0","1","individual","left","2.15555095673","708.378993034","2.84444904327","711.381187916","3.74975085258","715.131000042","2.25024914742","717.431699991","718.486515999","718.533040047","721.536012888","0","721.550436974","729.177020073",""
"sujeto_0029146","1","1","7","7","729.300955057","direct","1","1","1","¿Cuantos estados tiene África?","52","54","","1","1","0","individual","right","1.49200201035","730.793035984","3.50799798965","734.460054874","4.08888292313","738.549000025","1.91111707687","740.508491993","742.372071981","742.409656048","745.412631989","1","745.426756859","751.187754869",""
"sujeto_0029146","1","1","8","8","751.378465891","inverse","4","1","4","¿En qué año nació
 Stephen Hawking?","1952","1942","","0","0","1","individual","right","1.75045394897","753.128980875","3.24954605103","756.554229021","4.80466604233","761.358938932","1.19533395767","762.605655909","764.049962997","764.089722872","767.092679977","0","767.106812954","773.206179857",""
"sujeto_0029146","1","1","9","9","773.345180988","direct","2","1","3","¿Cuánto años tenía Artigas
 cuando se fue a Paraguay?","56","57","","1","1","1","individual","left","1.65174508095","774.996974945","3.34825491905","778.514993906","3.62892103195","782.14398694","2.37107896805","784.549393892","786.098883867","786.150425911","789.153411865","1","789.167564869","795.214846849",""
"sujeto_0029146","1","1","10","10","795.385967016","inverse","1","1","2","¿Cuantos milímetros 
mide una hoja A2?","420x592","420x594","","0","0","1","individual","left","2.5440120697","797.93005085","2.4559879303","800.540346861","4.40159296989","804.941983938","1.59840703011","806.595071077","808.163471937","808.212697983","811.21566987","0","811.229505062","818.300088882",""
"sujeto_0029146","1","1","11","11","818.430865049","direct","3","1","3","¿Cuál es la menor temperatura 
registrada en Uruguay?","-5.4","-7.4","","0","0","1","individual","left","0.792063951492","819.222997904","4.20793604851","823.588288069","4.03965592384","827.628015041","1.96034407616","829.639405012","831.321447849","831.373255968","834.376081944","0","834.391428947","838.124747992",""
"sujeto_0029146","1","1","12","12","838.25941205","inverse","2","1","2","¿Cuantos años hace que 
se fundó facebook?","18","17","","0","0","0","individual","right","1.45362710953","839.713150024","3.54637289047","843.432910919","4.3020658493","847.735025883","1.6979341507","849.483304977","850.856027842","850.900614977","853.90358305","0","853.917886019","856.692090988",""
"sujeto_0029146","1","1","13","13","856.836374044","direct","1","1","4","¿Cuál animal es más
 pesado en promedio?","Rinoceronte","Hipopotamo","","0","0","0","individual","left","2.15857291222","858.995017052","2.84142708778","861.991306067","3.62757301331","865.618938923","2.37242698669","868.026288033","869.105531931","869.143779993","872.146750927","0","872.161248922","876.002254963",""
"sujeto_0029146","1","1","14","14","876.178619862","inverse","1","1","2","¿Qué personaje de dragon ball 
murió más veces?","Chaoz","Krillin","","1","1","0","individual","right","1.06872606277","877.24742198","3.93127393723","881.334455013","3.82652711868","885.161021948","2.17347288132","887.368671894","888.826490879","888.870565891","891.872092962","1","891.886970997","899.659878969",""
"sujeto_0029146","1","1","15","15","899.805726051","direct","3","1","2","La universidad de oxford. 
existe desde:","1096","1249","","1","1","0","individual","right","0.567747116089","900.373549938","4.43225288391","904.960363865","4.38356208801","909.343987942","1.61643791199","911.013674021","912.062492847","912.114086866","915.116076946","1","915.131109953","921.820086002",""
"sujeto_0029146","1","1","16","16","921.966287851","inverse","3","1","1","¿Qué escritor latino ganó antes
 el premio nobel?"," García Marquez","Neruda","","0","0","1","individual","left","1.26371192932","923.230069876","3.73628807068","927.124635935","4.40828204155","931.532963037","1.59171795845","933.159664869","934.899677992","934.943300009","937.946263075","0","937.961452007","941.421975851",""
"sujeto_0029146","1","1","17","17","941.562881947","direct","4","1","3","¿Cuántos dientes tiene un
 tiburón blanco?","6000","3000","","0","0","1","individual","right","1.01709508896","942.580024958","3.98290491104","946.735630035","4.1122469902","950.847939968","1.8877530098","952.769579887","953.808069944","953.853049994","956.856024981","0","956.87025404","961.679909945",""
"sujeto_0029146","1","1","18","18","961.822278976","inverse","4","1","1","¿Cuánto mide el paralelo Ecuador?","40.000km","70.000km","","0","0","1","individual","right","1.07362794876","962.895998001","3.92637205124","966.97895503","5.21299004555","972.192026854","0.787009954453","973.013851881","974.969923019","975.013598919","978.016586065","0","978.031440973","981.633967876",""
"sujeto_0029146","1","1","19","19","981.766155958","direct","4","1","2","¿Cuál fue el primer libro 
de Stephen King?","Carrie","The Stand","","1","1","1","individual","left","0.902846813202","982.669085979","4.0971531868","986.935508013","3.6294131279","990.56496191","2.3705868721","992.97159791","994.715718985","994.756532907","997.759508848","1","997.773587942","1002.24800396",""
"sujeto_0029146","1","1","20","20","1002.39215994","inverse","2","1","3","¿Qué civilización practicaba
 la momificación?","Grecia","Egipto","right","0","0","1","individual","right","1.19015097618","1003.58235502","3.80984902382","1007.55001903","4.29096698761","1011.84104705","1.70903301239","1013.58413696","1015.52343893","1015.56885004","1018.57176495","1","1018.58596587","1022.81477594",""
"sujeto_0029146","1","1","21","21","1022.98769808","direct","4","1","4","¿Cuántos millones de visitas
 recibe google por minuto?","3.0","4.5","","0","0","1","individual","right","0.881864070892","1023.86961198","4.11813592911","1028.14319301","3.77274608612","1031.91603208","2.22725391388","1034.19439602","1035.70923591","1035.74583697","1038.74808908","0","1038.76305604","1045.88408804",""
"sujeto_0029146","1","1","22","22","1046.031322","inverse","1","1","3","La máquina de fax. se inventó en:","1843","1960","","0","0","1","individual","left","1.13065314293","1047.16204405","3.86934685707","1051.22133684","3.09461903572","1054.31599498","2.90538096428","1057.255234","1058.49730897","1058.54064798","1061.54361486","0","1061.55756807","1064.79380798",""
"sujeto_0029146","1","1","23","23","1064.92569184","direct","2","1","4","En la verdadera historia de los
 300 espartanos. habían:","300 soldados","4300 soldados","","1","1","1","individual","right","0.858267068863","1065.78404403","4.14173293114","1070.07855701","4.99237012863","1075.07096696","1.00762987137","1076.11478496","1077.37598085","1077.41548204","1080.41845202","1","1080.43267989","1084.23306704",""
"sujeto_0029146","1","1","24","24","1084.36761093","inverse","1","1","4","¿Cuántos milímetros crece
 el pelo por día?","0.4","0.04","","0","0","0","individual","right","1.00631690025","1085.37397194","3.99368309975","1089.52530003","4.28459715843","1093.80993485","1.71540284157","1095.57605195","1097.33678794","1097.3771019","1100.38007808","0","1100.39459801","1107.12806487",""
"sujeto_0029146","1","1","25","25","1107.26233196","direct","4","1","1","¿Cuánto mide la baldosa gris 
clásica de Montevideo?","22x22 cm.","20x20 cm.","","1","1","1","individual","left","0.845601797104","1108.10799694","4.1543982029","1112.45349193","4.66544985771","1117.11900902","1.33455014229","1118.50520396","1120.50011802","1120.53928995","1123.54009295","1","1123.5566709","1129.096102",""
"sujeto_0029146","1","1","26","26","1129.24139285","inverse","2","1","2","¿Cuántas películas de rápidos
 y furiosos hay?","10","11","","1","1","0","individual","left","0.994629859924","1130.236094","4.00537014008","1134.39780903","3.71508717537","1138.11294007","2.28491282463","1140.44943404","1141.80746293","1141.84986806","1144.85281897","1","1144.86775208","1146.90165901",""
"sujeto_0029146","1","1","27","27","1147.05244684","direct","3","1","1","¿Cuántos masters 1000
 ganó Del Potro?","1","2","","1","1","1","individual","left","1.24853110313","1148.30103993","3.75146889687","1152.207165","4.34776806831","1156.55499196","1.65223193169","1158.24170399","1159.99608397","1160.04249787","1163.04547191","1","1163.06062102","1170.45608401",""
"sujeto_0029146","1","1","28","28","1170.59537506","inverse","2","1","4","¿Cuántos meses dura el 
embarazo de una leona?","3 meses","4 meses","","0","0","1","individual","right","1.77958512306","1172.37502694","3.22041487694","1175.75370908","3.80924797058","1179.56302404","2.19075202942","1181.7876389","1182.89871597","1182.9382689","1185.94123888","0","1185.95536995","1192.67782688",""
"sujeto_0029146","1","1","29","29","1192.82354593","direct","1","1","1","¿En qué año fue creado
 el sandwich?","1762","1653","","1","1","0","individual","left","0.909440994263","1193.73303103","4.09055900574","1197.9809649","3.23403692245","1201.21507096","2.76596307755","1204.03205585","1205.63058686","1205.66699696","1208.66995287","1","1208.68406391","1212.15470791",""
"sujeto_0029146","1","1","30","30","1212.30265999","inverse","4","1","2","El nombre de la moneda de Vietnam es:","Dinar","Dong","","0","0","1","individual","left","0.706319093704","1213.00902295","4.2936809063","1217.45603085","3.59793901443","1221.05402899","2.40206098557","1223.49128485","1224.92327905","1224.97607207","1227.97900796","0","1227.99315906","1234.16158485",""
"sujeto_0029146","1","1","31","31","1234.29418802","direct","2","1","1","¿cuantos aleteos puede dar 
un colibrí por segundo?","120","50","","0","0","0","individual","left","0.855854034424","1235.15011692","4.14414596558","1239.43497896","3.82494091988","1243.25996995","2.17505908012","1245.46956491","1247.20193887","1247.23761606","1250.24058795","0","1250.25503802","1254.46731997",""
"sujeto_0029146","1","1","32","32","1254.60646296","inverse","4","1","3","¿Qué altura promedio tienen
 los hombres uruguayos?","1.73 m","1.72 m","","1","1","1","individual","right","0.753549814224","1255.36005807","4.24645018578","1259.79617786","4.54881691933","1264.34505796","1.45118308067","1265.84718895","1267.10961604","1267.14759803","1270.1505549","1","1270.16482186","1274.64077306",""
"sujeto_0029146","1","2","1","33","1414.60487604","direct","1","1","1","¿En qué año nació 
el actor Bradd Pitt?","1967","1963","","1","1","1","individual","left","2.38702011108","1416.99193597","2.61297988892","1419.76057792","3.63942503929","1423.40006399","2.36057496071","1425.81306291","1426.90890408","1426.94779396","1429.94808602","1","1429.96414089","1435.89173698","1274.65841007"
"sujeto_0029146","1","2","2","34","1436.01545787","inverse","2","1","1","¿Cual es el segundo 
monte más alto?","Kanchenjunga","K2","","1","1","1","individual","left","0.804578065872","1436.82011199","4.19542193413","1441.16949797","3.88746094704","1445.05700207","2.11253905296","1447.22211885","1448.67451","1448.72309899","1451.72607398","1","1451.74126387","1455.17114496",""
"sujeto_0029146","1","2","3","35","1455.30910587","direct","3","1","1","¿Cuándo finalizó la construcción
 del Palacio Legislativo?","1925","1917","","0","0","1","individual","right","0.902956962585","1456.21217394","4.09704303741","1460.46602798","4.76187586784","1465.22797489","1.23812413216","1466.50109792","1468.14280295","1468.18503785","1471.18802404","0","1471.20215797","1476.89973187",""
"sujeto_0029146","1","2","4","36","1477.03722692","inverse","3","1","3","¿Cuántos integrantes tenía
 en su inicio  el cuarteto de nos?","3","4","","1","1","1","individual","right","0.934819936752","1477.97212005","4.06518006325","1482.19410706","4.70990610123","1486.90407395","1.29009389877","1488.22852492","1489.36162901","1489.41244006","1492.41540504","1","1492.42940903","1498.07922292",""
"sujeto_0029146","1","2","5","37","1498.21426487","direct","2","1","3","¿Qué valor tiene el número pi?","3.14","4.18","left","0","0","1","individual","left","0.771814107895","1498.98614788","4.22818589211","1503.3539319","3.15002894402","1506.50402689","2.84997105598","1509.40454102","1510.85875607","1510.90591288","1513.90886998","1","1513.92373204","1520.84473491",""
"sujeto_0029146","1","2","6","38","1521.00834894","inverse","2","1","2","¿Cuál es la esperanza de vida
 en Uruguay?","75","77","","1","1","0","individual","left","2.4736468792","1523.48205996","2.5263531208","1526.149544","3.12445020676","1529.274055","2.87554979324","1532.19946289","1533.85207796","1533.90065098","1536.90362096","1","1536.91883087","1543.38185692",""
"sujeto_0029146","1","2","7","39","1543.52021194","direct","1","1","2","¿Cuantos pisos tiene la torre 
de las comunicaciones?","26","32","","1","1","0","individual","left","0.842847824097","1544.36312604","4.1571521759","1548.71136689","3.56756901741","1552.27897191","2.43243098259","1554.76253486","1556.59126306","1556.63043785","1559.63340592","1","1559.64766002","1561.79385304",""
"sujeto_0029146","1","2","8","40","1561.93259501","inverse","2","1","4","¿En qué país sudamericano 
no hay McDonalds?","Bolivia","Venezuela","","0","0","1","individual","right","1.06544613838","1562.99809599","3.93455386162","1567.08715391","4.44382786751","1571.53102493","1.55617213249","1573.12212801","1574.43151498","1574.47229385","1577.47526503","0","1577.49026108","1583.84996605",""
"sujeto_0029146","1","2","9","41","1583.99152899","direct","3","1","1","¿En qué año empieza
 la Edad Media?","476","512","","1","1","1","individual","left","1.16448712349","1585.15608001","3.83551287651","1589.14971495","3.51021385193","1592.660007","2.48978614807","1595.18293691","1596.58669186","1596.63431907","1599.63607287","1","1599.65235806","1602.64089894",""
"sujeto_0029146","1","2","10","42","1602.78724289","inverse","3","1","4","¿Hace cuántos años surgió
 el ser humano?","200mil","300mil","","0","0","0","individual","right","2.54775094986","1605.33504105","2.45224905014","1607.93926692","4.47066378593","1612.40998888","1.52933621407","1613.99186802","1615.87789893","1615.92559695","1618.9285779","0","1618.94361305","1622.25207686",""
"sujeto_0029146","1","2","11","43","1622.39536095","direct","3","1","4","¿Cuántas cuadras tiene
 actualmente 18 de julio? ","36","33","","0","0","1","individual","left","0.911671876907","1623.30708098","4.08832812309","1627.55166197","3.97432994843","1631.52603698","2.02567005157","1633.58663201","1635.2888639","1635.33741188","1638.34039688","0","1638.35500598","1643.08129096",""
"sujeto_0029146","1","2","12","44","1643.22349191","inverse","1","1","4","¿Qué juego de equipo se 
considera mas rápido?","Lacrosse","Badminton","","0","0","0","individual","right","1.31956195831","1644.54316187","3.68043804169","1648.39580202","5.59622693062","1653.99209285","0.403773069382","1654.44833803","1655.69143987","1655.73120904","1658.734164","0","1658.74819684","1666.74007201",""
"sujeto_0029146","1","2","13","45","1666.86719704","direct","1","1","3","¿Qué promedio de edad 
vive una jirafa? ","25","20","","0","0","1","individual","right","0.79896903038","1667.66623998","4.20103096962","1672.02392793","3.22105789185","1675.24502897","2.77894210815","1678.07478094","1679.83608985","1679.87673402","1682.879704","0","1682.89468408","1688.85041094",""
"sujeto_0029146","1","2","14","46","1688.97955203","inverse","1","1","2","¿Cuántos grandes lagos hay?","7","5","","0","0","1","individual","left","1.53245782852","1690.51211286","3.46754217148","1694.16929984","3.60764813423","1697.77698994","2.39235186577","1700.22083902","1701.51211286","1701.55516791","1704.55813694","0","1704.57215691","1712.39354706",""
"sujeto_0029146","1","2","15","47","1712.52330303","direct","3","1","2","¿Cuántos discos de estudio
 grabó Johhny Cash? ","54","43","","1","1","0","individual","right","1.52773690224","1714.05109286","3.47226309776","1717.68146586","3.05954289436","1720.74105406","2.94045710564","1723.71565604","1724.99343991","1725.0338459","1728.03677893","1","1728.05088186","1734.70180202",""
"sujeto_0029146","1","2","16","48","1734.83564997","inverse","4","1","1","¿Cuántos barrios tiene
 Montevideo? ","71","62","","0","0","1","individual","left","0.784477949142","1735.62019587","4.21552205086","1740.00965595","3.40135383606","1743.41104794","2.59864616394","1746.060534","1747.06761098","1747.11113","1750.11207485","0","1750.12825799","1755.59027696",""
"sujeto_0029146","1","2","17","49","1755.76346493","direct","3","1","3","¿Qué edad tiene Homero Simpson?","36","42","","0","0","1","individual","right","0.88262295723","1756.64616489","4.11737704277","1760.92065191","3.21839499474","1764.13910604","2.78160500526","1766.97142696","1768.34745097","1768.38937998","1771.39205885","0","1771.40702391","1775.79579902",""
"sujeto_0029146","1","2","18","50","1775.94186997","inverse","4","1","2","¿Cuántos países con monarquía 
hay en europa actualmente? ","6","10","","1","1","1","individual","left","1.05536699295","1776.99733996","3.94463300705","1781.12856984","3.44634509087","1784.57494998","2.55365490913","1787.1635139","1788.6017859","1788.64861608","1791.6515789","1","1791.66576695","1797.82008505",""
"sujeto_0029146","1","2","19","51","1797.96709204","direct","2","1","3","¿Cuántos capítulos de
 Friends existen? ","236","228","","1","1","1","individual","left","0.711946964264","1798.67908692","4.28805303574","1803.12503791","3.44099903107","1806.56609702","2.55900096893","1809.17666101","1810.48222804","1810.52788806","1813.53085303","1","1813.54485989","1815.92050099",""
"sujeto_0029146","1","2","20","52","1816.08035588","inverse","1","1","3","¿Cuántas óperas compuso Mozart? ","27","22","","1","1","1","individual","left","0.751749992371","1816.83221197","4.24825000763","1821.26826286","3.25463604927","1824.52295399","2.74536395073","1827.31924891","1828.61135602","1828.65383291","1831.65684986","1","1831.67127299","1838.98276591",""
"sujeto_0029146","1","2","21","53","1839.13909006","direct","4","1","3","¿Cuántos mundiales de fútbol 
femenino ha realizado FIFA? ","9","7","","1","1","1","individual","right","0.781918048859","1839.92108107","4.21808195114","1844.31386399","3.2241191864","1847.53802085","2.7758808136","1850.36457491","1851.60803986","1851.64867806","1854.65164995","1","1854.66548395","1860.76788807",""
"sujeto_0029146","1","2","22","54","1860.91803503","inverse","3","1","2","¿Cuál es la temperatura 
media anual en Montevideo? ","17.5","16.3","","0","0","1","individual","right","0.564043998718","1861.48212886","4.43595600128","1866.0714159","4.16459488869","1870.23607087","1.83540511131","1872.10729194","1874.04585791","1874.09188294","1877.094841","0","1877.10992289","1883.67944694",""
"sujeto_0029146","1","2","23","55","1883.82815194","direct","2","1","2","¿En qué año se estrenó el
 videojuego The Sims? ","2000","2002","","0","0","0","individual","left","0.465063810349","1884.29327297","4.53493618965","1888.98686099","3.55715513229","1892.54407501","2.44284486771","1895.02016306","1896.88214397","1896.92202687","1899.92493987","0","1899.93966389","1907.33331203",""
"sujeto_0029146","1","2","24","56","1907.45790386","inverse","2","1","1","¿Cuál es la canción con 
mas covers? ","Yesterday","Stand by me","","0","0","0","individual","left","0.833170890808","1908.29114294","4.16682910919","1912.61476994","3.55023384094","1916.165066","2.44976615906","1918.66574502","1920.06426907","1920.10077596","1923.10377097","0","1923.11790395","1927.28805089",""
"sujeto_0029146","1","2","25","57","1927.41947603","direct","1","1","4","¿Cuánto duró la guerra
 de los 100 años?","116","123","","0","0","0","individual","left","0.70165514946","1928.12124205","4.29834485054","1932.57486296","4.69313979149","1937.26803994","1.30686020851","1938.61031485","1940.09111691","1940.12725687","1943.13022494","0","1943.1451149","1945.46487999",""
"sujeto_0029146","1","2","26","58","1945.59650707","inverse","4","1","4","¿Qué color tiene la  bandera de Brasil?","Amarillo","Naranja","left","0","0","1","individual","left","0.950560092926","1946.54712105","4.04943990707","1950.75193501","2.9991300106","1953.75112486","3.0008699894","1956.80189896","1958.368047","1958.41999102","1961.42291188","1","1961.43760586","1964.47038198",""
"sujeto_0029146","1","2","27","59","1964.60542989","direct","4","1","3","¿Qué carabela de 
Colon no volvió del viaje?","Santa María","La pinta","","0","0","1","individual","right","0.799648046494","1965.405123","4.20035195351","1969.77800298","4.50906300545","1974.28710794","1.49093699455","1975.81296086","1977.30400586","1977.34613204","1980.34909606","0","1980.36341286","1982.46283197",""
"sujeto_0029146","1","2","28","60","1982.59839892","inverse","4","1","4","¿Cuántos huesos tiene
 un adulto humano?","217","206","","0","0","1","individual","right","0.957701921463","1983.55614805","4.04229807854","1987.754004","3.02202296257","1990.77606988","2.97797703743","1993.804322","1995.07535791","1995.12302303","1998.12406993","0","1998.14001703","2005.97772193",""
"sujeto_0029146","1","2","29","61","2006.10824895","direct","1","1","1","¿Qué país africano fue 
fundado por esclavos?","Liberia","Chad","","0","0","0","individual","left","0.741832971573","2006.85014987","4.25816702843","2011.26592588","3.77306199074","2015.03902602","2.22693800926","2017.31647396","2019.30809402","2019.35180092","2022.35206985","0","2022.36948204","2030.36010003",""
"sujeto_0029146","1","2","30","62","2030.50426197","inverse","4","1","2","¿A cuánto asciende la cima
 del monte Everest?","7.990 mts","8.848 mts","","0","0","1","individual","right","0.715828895569","2031.22013593","4.28417110443","2035.67846298","5.01256895065","2040.69110394","0.987431049347","2041.73081803","2042.91561794","2042.96338987","2045.96636105","0","2045.98136997","2053.164047",""
"sujeto_0029146","1","2","31","63","2053.29912686","direct","4","1","1","¿Cuál es el país mas chico?","Sealand","Luxemburgo","","1","1","1","individual","left","0.682934045792","2053.98210502","4.31706595421","2058.47353506","3.66440606117","2062.13799691","2.33559393883","2064.52397394","2066.38747787","2066.42546391","2069.42842197","1","2069.44261003","2072.56487298",""
"sujeto_0029146","1","2","32","64","2072.69446707","inverse","2","1","4","¿Cuántas pirámides hay en Egipto?","10000","11000","","1","1","1","individual","left","0.700632095337","2073.39514804","4.29936790466","2077.84968901","2.90238499641","2080.75213504","3.09761500359","2083.90024996","2084.93386793","2084.98488307","2087.98788404","1","2088.00245404","2093.10806298",""
"sujeto_0029146","1","3","1","65","2230.42037702","direct","2","1","2","¿Cuál es el quinto país con 
mas extensión?","Canadá","Brasil","","1","1","0","individual","left","0.901684045792","2231.32212186","4.09831595421","2235.578022","3.31404709816","2238.89210892","2.68595290184","2241.63074398","2242.96402788","2243.01532698","2246.01831293","1","2246.03251696","2253.75888801","2093.12288904"
"sujeto_0029146","1","3","2","66","2253.90060306","inverse","1","1","2","¿Qué rasgo facial no tiene
 la Mona Lisa?","Cejas","Pómulos","","0","0","1","individual","left","0.646536111832","2254.5471909","4.35346388817","2259.05960798","3.69836592674","2262.75802803","2.30163407326","2265.1108079","2266.86010098","2266.91227102","2269.91524291","0","2269.92936707","2276.20070291",""
"sujeto_0029146","1","3","3","67","2276.34831786","direct","4","1","3","¿Cuál es el país con 
mayor población?","Esados Unidos","China","right","0","0","1","individual","right","0.70782494545","2277.05619907","4.29217505455","2281.50477195","4.49026799202","2285.99507904","1.50973200798","2287.55680895","2289.2028389","2289.23970199","2292.24267888","1","2292.25783992","2295.62410402",""
"sujeto_0029146","1","3","4","68","2295.77563787","inverse","1","1","1","La palabra dinosaurio significa","Lagarto Terrible","Lagarto Dragón","","1","1","0","individual","right","0.847481966019","2296.62319398","4.15251803398","2300.93136096","4.45266294479","2305.3840909","1.54733705521","2306.98281002","2308.15314603","2308.19988108","2311.20285106","1","2311.21785903","2314.07968998",""
"sujeto_0029146","1","3","5","69","2314.23648095","direct","2","1","3","¿Qué es el membrillero?","Arbol","Arbusto","","0","0","0","individual","left","0.918659925461","2315.15522003","4.08134007454","2319.4049859","3.35000085831","2322.75502205","2.64999914169","2325.45661902","2327.41074991","2327.45898294","2330.46006894","0","2330.47625184","2336.94008088",""
"sujeto_0029146","1","3","6","70","2337.07796788","inverse","3","1","3","¿Alrededor de qué planeta orbita 
el satélite Europa?","Jupiter","Saturno","","1","1","1","individual","left","1.68306899071","2338.76108694","3.31693100929","2342.26853299","4.40553307533","2346.67410803","1.59446692467","2348.32136202","2349.86612892","2349.90515494","2352.90805507","1","2352.92268085","2355.12787294",""
"sujeto_0029146","1","3","7","71","2355.27437186","direct","3","1","1","¿Donde fue el mundial de 
fútbol de 1954?","Suiza","Suecia","","1","1","1","individual","left","0.638751983643","2355.91319299","4.36124801636","2360.42817593","3.54492497444","2363.97314692","2.45507502556","2366.46352887","2367.71609306","2367.76473403","2370.76771188","1","2370.78172588","2374.69350004",""
"sujeto_0029146","1","3","8","72","2374.83294988","inverse","1","1","4","¿Cuál de los 7 enanitos
no tenía barba?","Bashful","Mudito","","1","1","0","individual","right","0.815257072449","2375.648283","4.18474292755","2379.98857689","4.49351596832","2384.48213506","1.50648403168","2386.02333593","2387.60342693","2387.64112091","2390.64406395","1","2390.65802503","2395.58712101",""
"sujeto_0029146","1","3","9","73","2395.72730589","direct","3","1","2","¿Cual red social es
mas utilizada mundialmente?","Instagram","Facebook","","1","1","0","individual","left","0.607882976532","2396.33524203","4.39211702347","2400.88282084","3.36329603195","2404.24615908","2.63670396805","2406.93344498","2408.85083008","2408.90200901","2411.90496206","1","2411.91908288","2414.85358191",""
"sujeto_0029146","1","3","10","74","2415.03739095","inverse","4","1","1","¿Cuándo se inició la copa
 América de fútbol?","1916","1923","","1","1","1","individual","left","1.04270887375","2416.08014393","3.95729112625","2420.19275999","3.40229415894","2423.59511304","2.59770584106","2426.24375796","2428.14119387","2428.195719","2431.19602585","1","2431.21229601","2433.86842394",""
"sujeto_0029146","1","3","11","75","2434.01398802","direct","3","1","4","¿Cuántos presidentes de EEUU
han muerto asesinados?","3","4","","0","0","1","individual","left","0.670180797577","2434.68421888","4.32981920242","2439.18612695","3.01093792915","2442.19710493","2.98906207085","2445.21970487","2446.70362091","2446.75496888","2449.75793004","0","2449.77190804","2453.41600585",""
"sujeto_0029146","1","3","12","76","2453.55750704","inverse","2","1","4","¿Cuántas veces participó EEUU
 en la copa América?","4","5","","0","0","1","individual","left","0.855661153793","2454.413275","4.14433884621","2458.72949004","4.36851406097","2463.09804296","1.63148593903","2464.7807169","2466.22476602","2466.2653029","2469.26827502","0","2469.28243399","2475.39962196",""
"sujeto_0029146","1","3","13","77","2475.54989886","direct","4","1","1","¿Cuál de estos países 
no formaba la URSS?","Azeribayán","Afganistán","","0","0","1","individual","left","0.665208101273","2476.21515489","4.33479189873","2480.74084401","3.57819700241","2484.31910491","2.42180299759","2486.79148793","2488.10410595","2488.14318585","2491.14407587","0","2491.16031384","2499.14245296",""
"sujeto_0029146","1","3","14","78","2499.29470491","inverse","1","1","1","¿En qué año se inauguró
 el teatro Solís?","1867","1856","","0","0","0","individual","left","0.588510036469","2499.88329291","4.41148996353","2504.45324302","3.91180610657","2508.36509204","2.08819389343","2510.48759007","2511.54386687","2511.58839297","2514.59136391","0","2514.60548902","2521.25329685",""
"sujeto_0029146","1","3","15","79","2521.39036393","direct","1","1","4","¿A qué velocidad vuela 
el avión más rápido?","3529","3874","","0","0","0","individual","left","0.699817895889","2522.0902369","4.30018210411","2526.54750204","4.68458604813","2531.2321279","1.31541395187","2532.59948301","2534.35497499","2534.39990497","2537.40007496","0","2537.41690803","2539.52718401",""
"sujeto_0029146","1","3","16","80","2539.70211005","inverse","3","1","4","¿De qué año es la primer 
película cinematográfica?","1897","1888","","0","0","0","individual","left","1.07799816132","2540.78020597","3.92200183868","2544.89091706","4.27013993263","2549.161098","1.72986006737","2550.94135499","2552.07434893","2552.12570906","2555.12869","0","2555.14269686","2560.55247498",""
"sujeto_0029146","1","3","17","81","2560.69509888","direct","2","1","3","¿Cuántos países 
tiene nuestro planeta?","191","194","","1","1","1","individual","left","0.809046030045","2561.5042119","4.19095396996","2565.86764598","4.5353679657","2570.40305185","1.4646320343","2571.91892505","2573.27610898","2573.31972098","2576.32004189","1","2576.33791494","2579.57601595",""
"sujeto_0029146","1","3","18","82","2579.75715184","inverse","2","1","2","¿Cuántos habitantes
 tiene Buenos Aires?","2.9000.000","3650000","","0","0","0","individual","left","0.767924070358","2580.52513885","4.23207592964","2584.92819095","4.39986586571","2589.32809806","1.60013413429","2590.97953391","2592.37680697","2592.41341805","2595.41638207","0","2595.43046188","2601.2598629",""
"sujeto_0029146","1","3","19","83","2601.39870596","direct","2","1","1","¿Cuántos kilos forman una tonelada?","1000","1500","left","1","1","1","individual","left","0.645529985428","2602.04432106","4.35447001457","2606.55357289","3.52256298065","2610.07617593","2.47743701935","2612.60599804","2614.49203205","2614.54082799","2617.54236794","1","2617.55814791","2623.51556206",""
"sujeto_0029146","1","3","20","84","2623.65916705","inverse","4","1","4","¿Cuántos estados tiene la 
República del Perú? ","24","23","","0","0","1","individual","right","2.83493900299","2626.49417686","2.16506099701","2628.81456804","4.28344607353","2633.09805608","1.71655392647","2634.850945","2635.87313199","2635.91801691","2638.92095804","0","2638.93495297","2643.88024402",""
"sujeto_0029146","1","3","21","85","2644.02045488","direct","3","1","3","¿En qué año nació Cristóbal Colón? ","1451","1447","","0","0","1","individual","right","0.677742004395","2644.69827294","4.32225799561","2649.17762899","3.68340206146","2652.86107206","2.31659793854","2655.22785997","2657.07375789","2657.11261892","2660.11557293","0","2660.13070393","2664.35869503",""
"sujeto_0029146","1","3","22","86","2664.54869199","inverse","4","1","4","¿Cuánto mide la 
Montaña Aconcagua? ","6234","6962","","0","0","1","individual","right","0.841391086578","2665.39012599","4.15860891342","2669.70491695","4.67813301086","2674.383111","1.32186698914","2675.73967505","2677.02804899","2677.07329988","2680.07622695","0","2680.09014797","2687.27203298",""
"sujeto_0029146","1","3","23","87","2687.40858006","direct","2","1","4","¿Cuánto mide el punto
 más profundo del océano? ","12508","11003","","0","0","1","individual","left","0.704299926758","2688.11294699","4.29570007324","2692.56508398","3.93800115585","2696.50312591","2.06199884415","2698.61685705","2699.86806107","2699.91857505","2702.92154789","0","2702.93544292","2707.141711",""
"sujeto_0029146","1","3","24","88","2707.28762007","inverse","1","1","3","¿Cuántos álbumes ha publicado 
el cantante Jaime Roos? ","41","34","","0","0","1","individual","right","0.954465866089","2708.24215889","4.04553413391","2712.45998192","3.88106489182","2716.34110498","2.11893510818","2718.51060605","2720.00044203","2720.04496694","2723.047925","0","2723.06309199","2729.25920486",""
"sujeto_0029146","1","3","25","89","2729.41453004","direct","4","1","3","¿En qué año nació el 
ex-presidente Jorge Battle? ","1921","1927","","1","1","1","individual","left","0.592782974243","2730.00736499","4.40721702576","2734.57094908","4.73311710358","2739.30412698","1.26688289642","2740.62301588","2742.35371804","2742.39027405","2745.39323092","1","2745.40736485","2748.89341092",""
"sujeto_0029146","1","3","26","90","2749.05963707","inverse","1","1","3","¿Cuántas presidencias 
constitucionales  hubo en Uruguay? ","41","42","","0","0","1","individual","right","0.653589963913","2749.71327591","4.34641003609","2754.21533394","4.21280288696","2758.42817903","1.78719711304","2760.24912405","2761.45290089","2761.50031185","2764.50326204","0","2764.51711106","2770.30069995",""
"sujeto_0029146","1","3","27","91","2770.43514585","direct","1","1","2","¿Quién escribió mas sinfonías?","Mozart","Haydn","","1","1","0","individual","right","1.20707011223","2771.64226699","3.79292988777","2775.57617807","4.4579539299","2780.03419995","1.5420460701","2781.61037493","2782.82784891","2782.87771988","2785.88068891","1","2785.89468598","2789.64608788",""
"sujeto_0029146","1","3","28","92","2789.79647493","inverse","4","1","2","¿En qué año nació Michael Jackson?","1958","1953","","1","1","1","individual","left","0.707706928253","2790.504251","4.29229307175","2794.95181489","3.47426104546","2798.42613387","2.52573895454","2801.00405097","2802.98229003","2803.02164698","2806.02409291","1","2806.0392189","2811.90154505",""
"sujeto_0029146","1","3","29","93","2812.05794597","direct","3","1","2","¿En qué año entró en vigencia 
la ley antitabaco en Uruguay?","2005","2006","","1","1","1","individual","left","0.636283874512","2812.69430995","4.36371612549","2817.23005295","4.25610089302","2821.48622394","1.74389910698","2823.28145289","2824.87606001","2824.91545296","2827.91606808","1","2827.9333899","2833.26739287",""
"sujeto_0029146","1","3","30","94","2833.41887689","inverse","3","1","1","¿Cuándo se subió el 
primer video a youtube?","2004","2005","","0","0","1","individual","left","0.975280046463","2834.39422393","4.02471995354","2838.57411003","3.68402409554","2842.25817394","2.31597590446","2844.62538695","2845.93103504","2845.97645593","2848.97942185","0","2848.99437404","2856.74407101",""
"sujeto_0029146","1","3","31","95","2856.89589787","direct","2","1","1","¿Cuántos habitantes tiene India?","1200 millones","1300 millones","","0","0","0","individual","left","0.685359954834","2857.58131504","4.31464004517","2862.069628","4.11848115921","2866.18816686","1.88151884079","2868.12112784","2870.09073305","2870.13859892","2873.14155698","0","2873.15663505","2879.20415401",""
"sujeto_0029146","1","3","32","96","2879.34163404","inverse","4","1","2","¿A qué edad murió Bob Marley?","36","37","","0","0","1","individual","right","0.7688601017","2880.11055303","4.2311398983","2884.511446","3.50760602951","2888.01910901","2.49239397049","2890.56496692","2892.46284103","2892.51536989","2895.51833892","0","2895.53342104","2898.63589692",""
"sujeto_0029146","1","4","1","97","3029.42895198","direct","2","1","1","¿Cuantos años dirigió la selección 
uruguaya Tabarez?","15 años","13 años","","0","0","0","individual","left","2.12853312492","3031.55755305","2.87146687508","3034.59252906","3.49856901169","3038.09113789","2.50143098831","3040.64351106","3041.83466887","3041.87804985","3044.880023","0","3044.89488697","3051.96695185","2898.65132189"
"sujeto_0029146","1","4","2","98","3052.09657788","inverse","4","1","1","¿Cuantas teclas tiene un teclado 
de computadora generalmente? ","Entre 99 y 108","Entre 109 y 113","","1","1","1","individual","right","0.997575044632","3053.0941999","4.00242495537","3057.25113106","5.57493710518","3062.82612586","0.425062894821","3063.287256","3064.28996491","3064.33840084","3067.34133291","1","3067.35535908","3069.72682786",""
"sujeto_0029146","1","4","3","99","3069.87368488","direct","1","1","1","¿Cuál Departamento tiene
 mayor superficie?","Río Negro","Soriano","","0","0","0","individual","right","0.588577032089","3070.46231604","4.41142296791","3075.03002906","3.64311599731","3078.67318392","2.35688400269","3081.06436205","3082.77785087","3082.81570601","3085.81863189","0","3085.83276486","3090.15887189",""
"sujeto_0029146","1","4","4","100","3090.33446288","inverse","3","1","2","¿Cuál es el apellido de las 
hermanastras  de  cenicienta?","Tremaine","Truman","","0","0","1","individual","left","0.735780954361","3091.07034993","4.26421904564","3095.50709295","4.3179628849","3099.82511306","1.6820371151","3101.55831885","3103.42787099","3103.47548604","3106.47846007","0","3106.49403","3109.18998504",""
"sujeto_0029146","1","4","5","101","3109.32898307","direct","4","1","4","¿Cuál película ganó un
 Oscar a mejor película?","Alto Impacto","Cache","","0","0","1","individual","left","1.79815101624","3111.12719989","3.20184898376","3114.48245192","4.59967088699","3119.08219004","1.40032911301","3120.53451705","3121.65388393","3121.70126486","3124.70423293","0","3124.71843004","3126.98303199",""
"sujeto_0029146","1","4","6","102","3127.12024403","inverse","1","1","3","¿A cuántos centímetros
equivale la medida pié?","25","30","","0","0","1","individual","left","0.728950023651","3127.84924507","4.27104997635","3132.30867791","4.4993519783","3136.80808401","1.5006480217","3138.36096501","3139.40095687","3139.44500184","3142.44795489","0","3142.46214294","3147.86309695",""
"sujeto_0029146","1","4","7","103","3148.01389384","direct","2","1","2","¿Qué departamento es mas grande?","Cerro Largo","Paysandú","","0","0","0","individual","left","0.751322031021","3148.76528001","4.24867796898","3153.18667603","3.57449698448","3156.76123905","2.42550301552","3159.23722696","3160.83696699","3160.88859701","3163.89157891","0","3163.90669799","3168.01666784",""
"sujeto_0029146","1","4","8","104","3168.15768504","inverse","2","1","3","¿Quién pintó la Mona Lisa?","Picasso","Da Vinci","right","0","0","1","individual","right","0.717653989792","3168.8754189","4.28234601021","3173.33066702","2.94150400162","3176.27223301","3.05849599838","3179.38122296","3180.98707891","3181.03287697","3184.03587699","1","3184.04978585","3186.21211004",""
"sujeto_0029146","1","4","9","105","3186.35122204","direct","4","1","3","¿Cuántos litros hay en un galon?","3.54","3.78","","1","1","1","individual","left","0.642987012863","3186.99427986","4.35701298714","3191.50597191","2.9540989399","3194.460114","3.0459010601","3197.55723095","3199.07509899","3199.12514901","3202.12809396","1","3202.14227605","3207.93462992",""
"sujeto_0029146","1","4","10","106","3208.07785296","inverse","4","1","1","¿Cuántas teclas tiene
 un piano moderno?","80","88","","0","0","1","individual","right","0.7163438797","3208.79427695","4.2836561203","3213.23373008","4.31739497185","3217.55116487","1.68260502815","3219.28521895","3220.29369497","3220.33554506","3223.33605695","0","3223.35318804","3230.15094995",""
"sujeto_0029146","1","4","11","107","3230.28854704","direct","4","1","3","¿Cuántos países hay en África?","54","62","","0","0","1","individual","left","0.668735027313","3230.95735693","4.33126497269","3235.46157289","3.00860404968","3238.470222","2.99139595032","3241.51331592","3243.20384407","3243.24736905","3246.24804688","0","3246.26494598","3254.06971002",""
"sujeto_0029146","1","4","12","108","3254.21659303","inverse","1","1","3","¿En qué siglo se crearon
 las primeras pistolas?","XV","XIII","","1","1","1","individual","left","0.713541030884","3254.93017793","4.28645896912","3259.37343788","4.03470492363","3263.40820193","1.96529507637","3265.42551804","3267.37343502","3267.41026902","3270.41322899","1","3270.42709684","3273.66019988",""
"sujeto_0029146","1","4","13","109","3273.81318092","direct","3","1","4","¿En qué año se estrenó 
la serie friends?","1994","1995","","0","0","1","individual","right","0.615024805069","3274.4282589","4.38497519493","3278.98482704","3.47533416748","3282.46022201","2.52466583252","3285.03619504","3286.91152596","3286.95334387","3289.95603704","0","3289.97107697","3294.97712898",""
"sujeto_0029146","1","4","14","110","3295.12315392","inverse","3","1","4","¿En qué año nació Hitler?","1889","1887","","0","0","1","individual","right","1.09306883812","3296.21626902","3.90693116188","3300.29537392","3.91276192665","3304.20819592","2.08723807335","3306.33026385","3307.44464993","3307.48151994","3310.4844749","0","3310.49860501","3315.525594",""
"sujeto_0029146","1","4","15","111","3315.66689396","direct","1","1","4","¿Cuánto pesa un elefante Africano?","6000 kilos","5400 kilos","","0","0","0","individual","right","0.424371957779","3316.09134388","4.57562804222","3320.82268691","3.95546984673","3324.77819705","2.04453015327","3326.87472892","3328.23064494","3328.27485394","3331.27604008","0","3331.29205489","3337.99910903",""
"sujeto_0029146","1","4","16","112","3338.12712002","inverse","1","1","2","¿Qué porcentaje de 
la población es zurda?","10%","7%","","1","1","0","individual","right","1.08895611763","3339.21620989","3.91104388237","3343.29990697","3.63914299011","3346.93910384","2.36085700989","3349.35153198","3350.59461999","3350.63622999","3353.63917804","1","3353.65357089","3359.63331699",""
"sujeto_0029146","1","4","17","113","3359.78792596","direct","1","1","2","¿En qué año se estrenó
Volver al futuro?","1984","1985","","0","0","1","individual","left","0.645551919937","3360.43357086","4.35444808006","3364.9453249","3.39183807373","3368.33722186","2.60816192627","3370.98025298","3372.54203987","3372.581357","3375.5840559","0","3375.59815097","3382.688061",""
"sujeto_0029146","1","4","18","114","3382.83305407","inverse","3","1","2","¿Cuántos jugadores hay en un 
equipo de baseball?","9","8","","1","1","0","individual","left","0.96214389801","3383.79526687","4.03785610199","3388.007833","4.15928006172","3392.16714907","1.84071993828","3394.04197693","3395.65602899","3395.69344592","3398.69607687","1","3398.7103219","3403.68755388",""
"sujeto_0029146","1","4","19","115","3403.84507799","direct","2","1","1","¿Cuántos Oscar ganó
 la película titanic?","13","11","","1","1","1","individual","right","0.641146183014","3404.48627186","4.35885381699","3409.00184608","3.84130787849","3412.84321594","2.15869212151","3415.03604698","3416.33805394","3416.3873229","3419.39025593","1","3419.40420794","3424.00690603",""
"sujeto_0029146","1","4","20","116","3424.15545893","inverse","4","1","4","¿En qué año comenzó
la segunda guerra mundial?","1939","1976","left","0","0","1","individual","left","0.780726909637","3424.9362309","4.21927309036","3429.32741499","3.36972403526","3432.69719887","2.63027596474","3435.37980199","3437.17969298","3437.23088002","3440.23386407","1","3440.24824595","3444.23534799",""
"sujeto_0029146","1","4","21","117","3444.38321185","direct","2","1","4","¿Cuántos biomas hay en Uruguay?","5","4","","0","0","1","individual","left","0.647017002106","3445.030303","4.35298299789","3449.53962207","3.3215110302","3452.86119294","2.6784889698","3455.59040785","3457.38776803","3457.44124699","3460.44406796","0","3460.45875192","3466.70816088",""
"sujeto_0029146","1","4","22","118","3466.86030698","inverse","2","1","3","¿Cuándo murió Pablo Escobar?","1993","1997","","1","1","1","individual","right","0.599943161011","3467.46032596","4.40005683899","3472.01742506","3.44975090027","3475.46724105","2.55024909973","3478.06808186","3479.85092306","3479.90292788","3482.90586996","1","3482.92005491","3488.62370205",""
"sujeto_0029146","1","4","23","119","3488.75535703","direct","1","1","4","¿Qué serie ha ganado mas premios?","Friends","Murphy Brown","","1","1","0","individual","left","1.15479016304","3489.91019392","3.84520983696","3493.89550686","2.66764307022","3496.56318903","3.33235692978","3499.94586992","3501.29824495","3501.34789896","3504.35090089","1","3504.36475205","3509.92403507",""
"sujeto_0029146","1","4","24","120","3510.06665802","inverse","4","1","2","¿Cuántas fichas tiene el dominó?","26","28","","1","1","1","individual","right","1.00538516045","3511.07216501","3.99461483955","3515.223171","4.84692621231","3520.07013488","1.15307378769","3521.257478","3522.31202698","3522.35857487","3525.36152101","1","3525.37543488","3530.61603093",""
"sujeto_0029146","1","4","25","121","3530.76041198","direct","2","1","4","¿Cuántos son los dientes de leche?","20","25","","0","0","1","individual","left","0.521873950958","3531.28236985","4.47812604904","3535.91714787","2.29405593872","3538.2112639","3.70594406128","3541.95092893","3543.66001701","3543.70280886","3546.705796","0","3546.71978188","3548.86547494",""
"sujeto_0029146","1","4","26","122","3549.00533199","inverse","3","1","3","¿Cuántos gramos son una onza?","22","28","","0","0","1","individual","left","0.927809000015","3549.93318486","4.07219099998","3554.15955997","2.68052101135","3556.840137","3.31947898865","3560.19344401","3562.18806386","3562.22849393","3565.2314589","0","3565.24613285","3571.53639793",""
"sujeto_0029146","1","4","27","123","3571.68071699","direct","3","1","1","¿Cuándo salió el primer album
 de los Beatles?","1963","1962","","1","1","1","individual","right","0.660478115082","3572.34124804","4.33952188492","3576.83793688","3.37422895432","3580.21222401","2.62577104568","3582.88926005","3584.0529089","3584.09012198","3587.09306908","1","3587.10708094","3590.87909102",""
"sujeto_0029146","1","4","28","124","3591.02521706","inverse","3","1","3","¿Quién fundó la empresa apple?","Carlos Slim","Steve Jobs","","1","1","1","individual","right","1.2779481411","3592.30321288","3.7220518589","3596.17980194","3.09136295319","3599.27120996","2.90863704681","3602.23183703","3603.346524","3603.38308597","3606.38604999","1","3606.399791","3612.696064",""
"sujeto_0029146","1","4","29","125","3612.83515501","direct","4","1","2","¿Cuántos municipios hay
 en Montevideo?","8","7","","1","1","1","individual","left","0.697101831436","3613.532336","4.30289816856","3618.00911593","2.63604283333","3620.64520192","3.36395716667","3624.05983186","3625.974612","3626.01175189","3629.01472402","1","3629.02905703","3631.11019588",""
"sujeto_0029146","1","4","30","126","3631.247823","inverse","1","1","1","¿Cuántos kilómetros hay
 de Montevideo a Artigas?","632","599","","0","0","0","individual","left","0.694422006607","3631.94232202","4.30557799339","3636.40187502","3.84323310852","3640.245152","2.15676689148","3642.43661499","3643.91969395","3643.97076988","3646.97367907","0","3646.98770404","3653.0398109",""
"sujeto_0029146","1","4","31","127","3653.17260003","direct","2","1","2","¿En qué año nació 
Leonardo Da Vinci?","1452","1511","","1","1","0","individual","left","0.51669383049","3653.68934989","4.48330616951","3658.34632492","3.90277695656","3662.24915886","2.09722304344","3664.39759898","3666.25117898","3666.29912806","3669.30204201","1","3669.31593084","3672.462363",""
"sujeto_0029146","1","4","32","128","3672.61732888","inverse","3","1","1","¿A qué continente
 pertenece el país Gabón?","Africa","Oceanía","","0","0","1","individual","left","0.816864967346","3673.43424392","4.18313503265","3677.80718088","4.01989507675","3681.82711101","1.98010492325","3683.85813785","3685.66978407","3685.70924592","3688.71208405","0","3688.72632003","3693.96423197",""
