"code","nro_aplicante","nro_bloque","nro_trial_bloque","nro_trial_global","show_game_type","choice_order","rival","pay_individual","pay_competitive","question","answer_left_text","answer_right_text","correct_answer","outcome_individual","outcome_competitive","outcome_rival","game_type","answer","social_time","rt_game_type","feedback_delay","show_question","answer_time","rt_answer_global","feedback_delay_2","show_jitter","jitter_time","show_outcome","outcome_time","outcome_participant_real","show_final_jitter","second_jitter_time","inicio_descanso"
"sujeto_005868","1","1","1","1","37.7815508842","direct","3","1","4","¿Cuántos centímetros corresponden
al talle 36 del calzado?","23","24","","0","0","1","competitive","left","2.61748695374","40.3991348743","2.38251304626","42.9511270523","3.36093497276","46.3121418953","2.63906502724","49.002161026","50.0304529667","50.1036379337","53.1052379608","0","53.1211509705","55.2836749554",""
"sujeto_005868","1","1","2","2","55.4223718643","inverse","3","1","2","¿Cuántas metros mide la Intendencia
Municipal de Montevideo? ","84","78","","0","0","1","competitive","left","2.08674287796","57.5091650486","2.91325712204","60.5933339596","3.31472802162","63.9081039429","2.68527197838","66.629128933","68.507117033","68.580904007","71.5838520527","0","71.5978088379","73.6905720234",""
"sujeto_005868","1","1","3","3","73.8332259655","direct","1","1","3","¿Cuántas La Pasiva
 hay en uruguay?","15","11","","1","1","1","competitive","left","1.89388895035","75.7271609306","3.10611104965","79.0041339397","2.68694996834","81.6911489964","3.31305003166","85.0546469688","86.6652040482","86.7394938469","89.7424669266","1","89.7565209866","94.0331959724",""
"sujeto_005868","1","1","4","4","94.1756198406","inverse","3","1","3","¿De que color es la camiseta de uruguay?","blanca","celeste","right","1","1","1","competitive","right","2.08147406578","96.2571969032","2.91852593422","99.3312289715","1.98284077644","101.314136028","4.01715922356","105.380156994","106.584871054","106.672452927","109.673199892","1","109.683218956","113.137086868",""
"sujeto_005868","1","1","5","5","113.267950058","direct","2","1","1","¿Cuánto metros mide
la torre Eiffel?","333","324","","1","1","1","competitive","left","2.52113294601","115.789168835","2.47886705399","118.425134897","2.08697605133","120.512181997","3.91302394867","124.474427938","125.995806932","126.077012062","129.079975843","1","129.094033957","136.130744934",""
"sujeto_005868","1","1","6","6","136.278673887","inverse","3","1","4","¿Cuantas ciudades existen
 en todo el uruguay?","63","72","","0","0","1","competitive","right","1.88347291946","138.162191868","3.11652708054","141.454041004","3.58105421066","145.035157919","2.41894578934","147.503661871","148.558482885","148.638079882","151.640995026","0","151.655236959","159.281193018",""
"sujeto_005868","1","1","7","7","159.457114935","direct","1","1","1","¿Cuantos estados tiene África?","52","54","","1","1","0","competitive","right","2.93303418159","162.390255928","2.06696581841","164.614165068","2.29192209244","166.906134844","3.70807790756","170.664789915","172.528825045","172.600201845","175.603173971","1","175.617213964","181.37823391",""
"sujeto_005868","1","1","8","8","181.518930912","inverse","4","1","4","¿En qué año nació
 Stephen Hawking?","1952","1942","","0","0","1","competitive","left","1.6512029171","183.170197964","3.3487970829","186.675158024","2.76393604279","189.439139843","3.23606395721","192.710351944","194.154640913","194.229018927","197.231962919","0","197.245895863","203.345254898",""
"sujeto_005868","1","1","9","9","203.48061204","direct","2","1","3","¿Cuánto años tenía Artigas
 cuando se fue a Paraguay?","56","57","","1","1","1","competitive","left","2.17652916908","205.657186985","2.82347083092","208.637541056","2.71455311775","211.35215807","3.28544688225","214.687685013","216.237164974","216.323708057","219.325191021","1","219.340096951","225.38738203",""
"sujeto_005868","1","1","10","10","225.52473402","inverse","1","1","2","¿Cuantos milímetros 
mide una hoja A2?","420x592","420x594","","0","0","1","competitive","right","1.83439803123","227.35917592","3.16560196877","230.682654858","4.14148306847","234.824180841","1.85851693153","236.716270924","238.284648895","238.367707968","241.370676041","0","241.384888887","248.458523989",""
"sujeto_005868","1","1","11","11","248.636817932","direct","3","1","3","¿Cuál es la menor temperatura 
registrada en Uruguay?","-5.4","-7.4","","0","0","1","competitive","right","2.43735003471","251.074238062","2.56264996529","253.793758869","3.64938497543","257.443186998","2.35061502457","259.844634056","261.526674032","261.596019983","264.598953962","0","264.613126993","268.346385002",""
"sujeto_005868","1","1","12","12","268.498895884","inverse","2","1","2","¿Cuantos años hace que 
se fundó facebook?","18","17","","0","0","0","competitive","right","1.9313249588","270.430275917","3.0686750412","273.671885967","3.88427209854","277.556221008","2.11572790146","279.722287893","281.094960928","281.172878981","284.175884962","0","284.18986392","286.96448493",""
"sujeto_005868","1","1","13","13","287.108422995","direct","1","1","4","¿Cuál animal es más
 pesado en promedio?","Rinoceronte","Hipopotamo","","0","0","0","competitive","right","1.8487739563","288.9572649","3.1512260437","292.330508947","3.1946811676","295.525254965","2.8053188324","298.379242897","299.458485842","299.530809879","302.533802032","0","302.547978878","306.388957977",""
"sujeto_005868","1","1","14","14","306.515758991","inverse","1","1","2","¿Qué personaje de dragon ball 
murió más veces?","Chaoz","Krillin","","1","1","0","competitive","right","1.67141413689","308.187243938","3.32858586311","311.67276597","2.90744590759","314.580257893","3.09255409241","317.725074053","319.182942867","319.259048939","322.261982918","1","322.276268959","330.049160957",""
"sujeto_005868","1","1","15","15","330.178205013","direct","3","1","2","La universidad de oxford. 
existe desde:","1096","1249","","1","1","0","competitive","left","2.756057024","332.934371948","2.243942976","335.35036993","3.24983477592","338.600270987","2.75016522408","341.387459993","342.436226845","342.504925013","345.50792098","1","345.522281885","352.213077068",""
"sujeto_005868","1","1","16","16","352.39063406","inverse","3","1","1","¿Qué escritor latino ganó antes
 el premio nobel?"," García Marquez","Neruda","","0","0","1","individual","right","2.39157295227","354.782274008","2.60842704773","357.564465046","3.25779414177","360.822303057","2.74220585823","363.614910841","365.354936838","365.399776936","368.402735949","0","368.416704893","371.877194881",""
"sujeto_005868","1","1","17","17","372.018970966","direct","4","1","3","¿Cuántos dientes tiene un
 tiburón blanco?","6000","3000","","0","0","1","competitive","right","1.96828603745","373.987331867","3.03171396255","377.191642046","3.08655714989","380.278260946","2.91344285011","383.24177599","384.280777931","384.359221935","387.362203836","0","387.376394033","392.186044931",""
"sujeto_005868","1","1","18","18","392.328609943","inverse","4","1","1","¿Cuánto mide el paralelo Ecuador?","40.000km","70.000km","","0","0","1","individual","left","2.67263698578","395.001317024","2.32736301422","397.498375893","3.62185096741","401.120267868","2.37814903259","403.55208087","405.50819993","405.554157019","408.557136059","0","408.571195841","412.173769951",""
"sujeto_005868","1","1","19","19","412.323650837","direct","4","1","2","¿Cuál fue el primer libro 
de Stephen King?","Carrie","The Stand","","1","1","1","competitive","left","3.18360900879","415.507328033","1.81639099121","417.511800051","2.51543593407","420.027299881","3.48456406593","423.561599016","425.305244923","425.38099885","428.383985996","1","428.398086071","432.87251997",""
"sujeto_005868","1","1","20","20","432.999680996","inverse","2","1","3","¿Qué civilización practicaba
 la momificación?","Grecia","Egipto","right","0","0","1","competitive","right","1.29657316208","434.296329021","3.70342683792","438.155130863","3.12012195587","441.275316","2.87987804413","444.20638299","446.14568305","446.224555016","449.227496862","1","449.241490841","453.470280886",""
"sujeto_005868","1","1","21","21","453.609936953","direct","4","1","4","¿Cuántos millones de visitas
 recibe google por minuto?","3.0","4.5","","0","0","1","competitive","right","1.29231286049","454.902294874","3.70768713951","458.766051054","2.97921013832","461.745323896","3.02078986168","464.799473047","466.31435585","466.384078026","469.387038946","0","469.402406931","476.525084019",""
"sujeto_005868","1","1","22","22","476.653182983","inverse","1","1","3","La máquina de fax. se inventó en:","1843","1960","","0","0","1","competitive","right","1.7590918541","478.412353039","3.2409081459","481.812361002","3.35488700867","485.167289972","2.64511299133","487.862664938","489.104763031","489.179966927","492.182976007","0","492.197196007","495.433200836",""
"sujeto_005868","1","1","23","23","495.565995932","direct","2","1","4","En la verdadera historia de los
 300 espartanos. habían:","300 soldados","4300 soldados","","1","1","1","competitive","right","1.47828483582","497.044345856","3.52171516418","500.721827984","4.79446911812","505.516340017","1.20553088188","506.772438049","508.033198833","508.106873035","511.109881878","1","511.123875856","514.925668001",""
"sujeto_005868","1","1","24","24","515.075597048","inverse","1","1","4","¿Cuántos milímetros crece
 el pelo por día?","0.4","0.04","","0","0","0","competitive","left","1.52769207954","516.603356838","3.47230792046","520.230246067","2.75805592537","522.988343","3.24194407463","526.282016993","528.042711973","528.117015839","531.120022058","0","531.133956909","537.869068861",""
"sujeto_005868","1","1","25","25","538.002779007","direct","4","1","1","¿Cuánto mide la baldosa gris 
clásica de Montevideo?","22x22 cm.","20x20 cm.","","1","1","1","individual","right","1.63053297997","539.633358002","3.36946702003","543.157183886","3.85912799835","547.016353846","2.14087200165","549.192996025","551.188195944","551.227900982","554.229184866","1","554.245337009","559.788097858",""
"sujeto_005868","1","1","26","26","559.930273056","inverse","2","1","2","¿Cuántas películas de rápidos
 y furiosos hay?","10","11","","1","1","0","competitive","right","1.83005309105","561.76039505","3.16994690895","565.104703903","1.73462796211","566.839372873","4.26537203789","571.154156923","572.512145042","572.589637041","575.592615843","1","575.606863022","577.641556978",""
"sujeto_005868","1","1","27","27","577.792113066","direct","3","1","1","¿Cuántos masters 1000
 ganó Del Potro?","1","2","","1","1","1","individual","right","2.08725905418","579.87943697","2.91274094582","582.946888924","3.45446205139","586.401417971","2.54553794861","588.997717857","590.752336025","590.799571037","593.802541971","1","593.816958904","601.213289022",""
"sujeto_005868","1","1","28","28","601.351577044","inverse","2","1","4","¿Cuántos meses dura el 
embarazo de una leona?","3 meses","4 meses","","0","0","1","competitive","right","1.46477103233","602.816397905","3.53522896767","606.506937027","2.68038916588","609.187371969","3.31961083412","612.558416843","613.669504881","613.743799925","616.746778011","0","616.760699987","623.481219053",""
"sujeto_005868","1","1","29","29","623.612479925","direct","1","1","1","¿En qué año fue creado
 el sandwich?","1762","1653","","1","1","0","competitive","right","1.74085593224","625.353410959","3.25914406776","628.768643856","3.89169001579","632.660397053","2.10830998421","634.821146011","636.419695854","636.488074064","639.491051912","1","639.506098986","642.976709843",""
"sujeto_005868","1","1","30","30","643.124099016","inverse","4","1","2","El nombre de la moneda de Vietnam es:","Dinar","Dong","","0","0","1","competitive","left","1.85526514053","644.979438066","3.14473485947","648.29814887","3.12519884109","651.423416853","2.87480115891","654.348415852","655.780421019","655.866518974","658.869505882","0","658.883558989","665.049216032",""
"sujeto_005868","1","1","31","31","665.235031843","direct","2","1","1","¿cuantos aleteos puede dar 
un colibrí por segundo?","120","50","","0","0","0","individual","left","2.67336297035","667.908463955","2.32663702965","670.408941031","3.19043207169","673.599442005","2.80956792831","676.460119009","678.192514896","678.244135857","681.245208979","0","681.262094975","685.474364042",""
"sujeto_005868","1","1","32","32","685.613021851","inverse","4","1","3","¿Qué altura promedio tienen
 los hombres uruguayos?","1.73 m","1.72 m","","1","1","1","competitive","left","1.65533089638","687.268421888","3.34466910362","690.771646023","3.19674801826","693.968438864","2.80325198174","696.817149878","698.079535961","698.152710915","701.155671835","1","701.169895887","705.645838022",""
"sujeto_005868","1","2","1","33","831.538596869","direct","1","1","1","¿En qué año nació 
el actor Bradd Pitt?","1967","1963","","1","1","1","individual","left","3.39381504059","834.932476044","1.60618495941","836.691313982","2.98309803009","839.674475908","3.01690196991","842.728647947","843.82444787","843.863165855","846.865264893","1","846.880194902","852.805269957","705.660876036"
"sujeto_005868","1","2","2","34","852.931731939","inverse","2","1","1","¿Cual es el segundo 
monte más alto?","Kanchenjunga","K2","","1","1","1","individual","left","2.07272410393","855.004518986","2.92727589607","858.071763992","3.45156598091","861.523387909","2.54843401909","864.122621059","865.575046062","865.624544859","868.625267982","1","868.641211987","872.069260836",""
"sujeto_005868","1","2","3","35","872.226183891","direct","3","1","1","¿Cuándo finalizó la construcción
 del Palacio Legislativo?","1925","1917","","0","0","1","individual","left","1.43528699875","873.661540031","3.56471300125","877.382031918","3.59745693207","880.979552031","2.40254306793","883.432734966","885.074416876","885.117399931","888.120344877","0","888.134621859","893.832201958",""
"sujeto_005868","1","2","4","36","893.968719959","inverse","3","1","3","¿Cuántos integrantes tenía
 en su inicio  el cuarteto de nos?","3","4","","1","1","1","competitive","right","1.32877898216","895.297543049","3.67122101784","899.110044956","3.93340301514","903.04351306","2.06659698486","905.160440922","906.293536901","906.361283064","909.364275932","1","909.379104853","915.028912067",""
"sujeto_005868","1","2","5","37","915.180755854","direct","2","1","3","¿Qué valor tiene el número pi?","3.14","4.18","left","0","0","1","competitive","left","1.68078899384","916.861588001","3.31921100616","920.338194847","1.89735198021","922.235614061","4.10264801979","926.370028973","927.824249983","927.906544924","930.909520864","1","930.923480988","937.844447851",""
"sujeto_005868","1","2","6","38","937.974858046","inverse","2","1","2","¿Cuál es la esperanza de vida
 en Uruguay?","75","77","","1","1","0","competitive","right","1.62655115128","939.601457834","3.37344884872","943.11559391","3.92286992073","947.038526058","2.07713007927","949.166007042","950.819824934","950.900891066","953.903878927","1","953.91800189","960.377267838",""
"sujeto_005868","1","2","7","39","960.519752979","direct","1","1","2","¿Cuantos pisos tiene la torre 
de las comunicaciones?","26","32","","1","1","0","competitive","left","1.55577707291","962.075604916","3.44422292709","965.661049843","2.39446806908","968.055557966","3.60553193092","971.69449091","973.523300886","973.596524","976.599490881","1","976.613574028","978.759784937",""
"sujeto_005868","1","2","8","40","978.899227858","inverse","2","1","4","¿En qué país sudamericano 
no hay McDonalds?","Bolivia","Venezuela","","0","0","1","competitive","left","1.3542509079","980.253525972","3.6457490921","984.069869041","4.81265997887","988.88259697","1.18734002113","990.121428013","991.430779934","991.504619837","994.50760293","0","994.522835016","1000.88124299",""
"sujeto_005868","1","2","9","41","1001.02435589","direct","3","1","1","¿En qué año empieza
 la Edad Media?","476","512","","1","1","1","individual","right","1.28215909004","1002.30659294","3.71784090996","1006.18208599","2.95742321014","1009.13957286","3.04257678986","1012.23166203","1013.63539791","1013.68405104","1016.68702102","1","1016.70103788","1019.68959594",""
"sujeto_005868","1","2","10","42","1019.81961393","inverse","3","1","4","¿Hace cuántos años surgió
 el ser humano?","200mil","300mil","","0","0","0","competitive","left","1.13092684746","1020.95061088","3.86907315254","1024.99100804","4.21850895882","1029.20958185","1.78149104118","1031.04220986","1032.92826486","1033.009763","1036.01274085","0","1036.02699494","1039.33744097",""
"sujeto_005868","1","2","11","43","1039.47895193","direct","3","1","4","¿Cuántas cuadras tiene
 actualmente 18 de julio? ","36","33","","0","0","1","competitive","right","1.24261593819","1040.72164488","3.75738406181","1044.63455796","1.97895979881","1046.61358905","4.02104020119","1050.66730189","1052.36956787","1052.45382786","1055.45681405","0","1055.47108006","1060.19734406",""
"sujeto_005868","1","2","12","44","1060.35539198","inverse","1","1","4","¿Qué juego de equipo se 
considera mas rápido?","Lacrosse","Badminton","","0","0","0","competitive","left","1.2761721611","1061.631634","3.7238278389","1065.49515986","4.45140910149","1069.94661188","1.54859089851","1071.54632306","1072.78938484","1072.86413789","1075.86711192","0","1075.881073","1083.87323689",""
"sujeto_005868","1","2","13","45","1083.99988604","direct","1","1","3","¿Qué promedio de edad 
vive una jirafa? ","25","20","","0","0","1","competitive","left","1.22865509987","1085.22859097","3.77134490013","1089.15740705","2.23422598839","1091.39167595","3.76577401161","1095.207304","1096.96879792","1097.04247499","1100.04542184","0","1100.06083298","1106.01156092",""
"sujeto_005868","1","2","14","46","1106.145154","inverse","1","1","2","¿Cuántos grandes lagos hay?","7","5","","0","0","1","competitive","left","1.71542716026","1107.86062694","3.28457283974","1111.30137491","2.73527693748","1114.03671789","3.26472306252","1117.35068703","1118.64283705","1118.71956801","1121.72124696","0","1121.7365129","1129.557899",""
"sujeto_005868","1","2","15","47","1129.704175","direct","3","1","2","¿Cuántos discos de estudio
 grabó Johhny Cash? ","54","43","","1","1","0","individual","left","2.11043906212","1131.81466389","2.88956093788","1134.86516595","2.60741114616","1137.47264004","3.39258885384","1140.91504788","1142.19365191","1142.23303103","1145.23601484","1","1145.25022507","1151.89725494",""
"sujeto_005868","1","2","16","48","1152.03575301","inverse","4","1","1","¿Cuántos barrios tiene
 Montevideo? ","71","62","","0","0","1","individual","right","1.94592118263","1153.98175406","3.05407881737","1157.20978284","2.54578089714","1159.75560689","3.45421910286","1163.24352384","1164.25060201","1164.29448986","1167.2974329","0","1167.31158304","1172.77360797",""
"sujeto_005868","1","2","17","49","1172.9134469","direct","3","1","3","¿Qué edad tiene Homero Simpson?","36","42","","0","0","1","competitive","left","1.32314181328","1174.23663807","3.67685818672","1178.07031798","1.89131903648","1179.96168399","4.10868096352","1184.11921096","1185.49525404","1185.57175684","1188.57323194","0","1188.58926892","1192.97802401",""
"sujeto_005868","1","2","18","50","1193.12430286","inverse","4","1","2","¿Cuántos países con monarquía 
hay en europa actualmente? ","6","10","","1","1","1","individual","left","1.63730502129","1194.76165605","3.36269497871","1198.28101993","2.68758487701","1200.96867394","3.31241512299","1204.331182","1205.76945686","1205.81573701","1208.81870389","1","1208.832798","1214.98923898",""
"sujeto_005868","1","2","19","51","1215.13495994","direct","2","1","3","¿Cuántos capítulos de
 Friends existen? ","236","228","","1","1","1","competitive","left","1.8757109642","1217.010741","3.1242890358","1220.30884504","3.51583099365","1223.82473898","2.48416900635","1226.35934401","1227.66491985","1227.74420691","1230.74718904","1","1230.76136589","1233.13700986",""
"sujeto_005868","1","2","20","52","1233.27983594","inverse","1","1","3","¿Cuántas óperas compuso Mozart? ","27","22","","1","1","1","competitive","left","1.31382322311","1234.59372687","3.68617677689","1238.43473792","3.54298400879","1241.97778797","2.45701599121","1244.46858597","1245.76075602","1245.8362689","1248.83925605","1","1248.85325694","1256.16473484",""
"sujeto_005868","1","2","21","53","1256.32216787","direct","4","1","3","¿Cuántos mundiales de fútbol 
femenino ha realizado FIFA? ","9","7","","1","1","1","competitive","right","1.31746983528","1257.63968301","3.68253016472","1261.479599","3.25404310226","1264.73368406","2.74595689774","1267.52999592","1268.7737","1268.8483479","1271.85132694","1","1271.86532187","1277.96775985",""
"sujeto_005868","1","2","22","54","1278.11682701","inverse","3","1","2","¿Cuál es la temperatura 
media anual en Montevideo? ","17.5","16.3","","0","0","1","competitive","left","2.2278881073","1280.34476495","2.7721118927","1283.27458191","3.9750828743","1287.24970698","2.0249171257","1289.30699992","1291.24554086","1291.32386899","1294.32680106","0","1294.34202194","1300.90923405",""
"sujeto_005868","1","2","23","55","1301.043823","direct","2","1","2","¿En qué año se estrenó el
 videojuego The Sims? ","2000","2002","","0","0","0","competitive","right","1.89191412926","1302.9358089","3.10808587074","1306.23607898","3.94257998466","1310.178725","2.05742001534","1312.27036595","1314.13241601","1314.20530605","1317.20830393","0","1317.22266793","1324.6132369",""
"sujeto_005868","1","2","24","56","1324.75760794","inverse","2","1","1","¿Cuál es la canción con 
mas covers? ","Yesterday","Stand by me","","0","0","0","individual","left","1.93217420578","1326.68986392","3.06782579422","1329.93082094","3.62387681007","1333.55476999","2.37612318993","1335.98197699","1337.38052106","1337.41736984","1340.42034101","0","1340.43461204","1344.60545087",""
"sujeto_005868","1","2","25","57","1344.75275683","direct","1","1","4","¿Cuánto duró la guerra
 de los 100 años?","116","123","","0","0","0","competitive","left","1.49992203712","1346.25272894","3.50007796288","1349.92543292","3.1772339344","1353.10271287","2.8227660656","1355.9589839","1357.43980193","1357.51066685","1360.51362586","0","1360.5276649","1362.84745193",""
"sujeto_005868","1","2","26","58","1362.99639297","inverse","4","1","4","¿Qué color tiene la  bandera de Brasil?","Amarillo","Naranja","left","0","0","1","competitive","left","1.18933105469","1364.18581986","3.81066894531","1368.14864397","2.6170899868","1370.7658","3.3829100132","1374.20023799","1375.76676488","1375.85164404","1378.85460186","1","1378.86879086","1381.90124106",""
"sujeto_005868","1","2","27","59","1382.05448389","direct","4","1","3","¿Qué carabela de 
Colon no volvió del viaje?","Santa María","La pinta","","0","0","1","competitive","left","1.39521384239","1383.44974589","3.60478615761","1387.21128702","5.91650605202","1393.12785888","0.0834939479828","1393.26257801","1394.75360298","1394.82924891","1397.83223987","0","1397.84740996","1399.94686985",""
"sujeto_005868","1","2","28","60","1400.08162785","inverse","4","1","4","¿Cuántos huesos tiene
 un adulto humano?","217","206","","0","0","1","competitive","right","1.49608397484","1401.57778096","3.50391602516","1405.21823287","2.43949198723","1407.65779901","3.56050801277","1411.27037001","1412.54144502","1412.62180901","1415.62479591","0","1415.63887787","1423.47657704",""
"sujeto_005868","1","2","29","61","1423.60765004","direct","1","1","1","¿Qué país africano fue 
fundado por esclavos?","Liberia","Chad","","0","0","0","competitive","left","1.49208498001","1425.09980488","3.50791501999","1428.76420093","3.5545809269","1432.31882405","2.4454190731","1434.81712985","1436.80878901","1436.88427186","1439.88723087","0","1439.90216303","1447.89300799",""
"sujeto_005868","1","2","30","62","1448.03627801","inverse","4","1","2","¿A cuánto asciende la cima
 del monte Everest?","7.990 mts","8.848 mts","","0","0","1","individual","left","1.76645994186","1449.80280495","3.23354005814","1453.2120409","2.30868291855","1455.52079391","3.69131708145","1459.24566603","1460.43052006","1460.48059893","1463.48354888","0","1463.49823689","1470.68228507",""
"sujeto_005868","1","2","31","63","1470.81502604","direct","4","1","1","¿Cuál es el país mas chico?","Sealand","Luxemburgo","","1","1","1","individual","right","1.11278510094","1471.92788887","3.88721489906","1476.00605893","2.92368388176","1478.92981386","3.07631611824","1482.05672693","1483.920223","1483.95829988","1486.96122599","1","1486.97590303","1490.09820104",""
"sujeto_005868","1","2","32","64","1490.24469304","inverse","2","1","4","¿Cuántas pirámides hay en Egipto?","10000","11000","","1","1","1","competitive","left","1.25305294991","1491.49779391","3.74694705009","1495.40076804","2.87302398682","1498.273839","3.12697601318","1501.45061994","1502.48422098","1502.56939197","1505.57237291","1","1505.58609796","1510.69516897",""
"sujeto_005868","1","3","1","65","1625.28221583","direct","2","1","2","¿Cuál es el quinto país con 
mas extensión?","Canadá","Brasil","","1","1","0","competitive","right","1.64857292175","1626.93085885","3.35142707825","1630.43717384","4.16266608238","1634.59988689","1.83733391762","1636.48778391","1637.82106996","1637.90525484","1640.90823889","1","1640.92216992","1648.64856887","1510.71029401"
"sujeto_005868","1","3","2","66","1648.79072285","inverse","1","1","2","¿Qué rasgo facial no tiene
 la Mona Lisa?","Cejas","Pómulos","","0","0","1","competitive","","1.36814904213","1650.15893984","3.63185095787","1653.94499493","6","1659.94516993","0","1659.96078396","1661.71114588","1661.78088903","1664.78387189","0","1664.79903793","1671.07036304",""
"sujeto_005868","1","3","3","67","1671.19974995","direct","4","1","3","¿Cuál es el país con 
mayor población?","Esados Unidos","China","right","0","0","1","competitive","right","1.41712784767","1672.61692286","3.58287215233","1676.34255195","2.1743118763","1678.51692796","3.8256881237","1682.39323092","1684.0392139","1684.11181092","1687.11473703","1","1687.12891197","1690.49623585",""
"sujeto_005868","1","3","4","68","1690.6307559","inverse","1","1","1","La palabra dinosaurio significa","Lagarto Terrible","Lagarto Dragón","","1","1","0","individual","right","2.09310793877","1692.72391105","2.90689206123","1695.76996183","4.8139090538","1700.58391404","1.1860909462","1701.82202101","1702.99234891","1703.03858995","1706.0412519","1","1706.05534697","1708.91715193",""
"sujeto_005868","1","3","5","69","1709.057616","direct","2","1","3","¿Qué es el membrillero?","Arbol","Arbusto","","0","0","0","competitive","left","0.995262145996","1710.052948","4.004737854","1714.21220899","3.38765597343","1717.59990597","2.61234402657","1720.26351905","1722.21766305","1722.29768801","1725.30068493","0","1725.31574607","1731.77723503",""
"sujeto_005868","1","3","6","70","1731.91701102","inverse","3","1","3","¿Alrededor de qué planeta orbita 
el satélite Europa?","Jupiter","Saturno","","1","1","1","competitive","left","0.911902189255","1732.82898307","4.08809781075","1737.07156205","2.93639016151","1740.00799584","3.06360983849","1743.12343693","1744.66822386","1744.741431","1747.74441385","1","1747.75858307","1749.963691",""
"sujeto_005868","1","3","7","71","1750.11029291","direct","3","1","1","¿Donde fue el mundial de 
fútbol de 1954?","Suiza","Suecia","","1","1","1","individual","left","1.25164794922","1751.36201191","3.74835205078","1755.25068498","3.58123493195","1758.83195996","2.41876506805","1761.30076098","1762.55338001","1762.60219288","1765.60517287","1","1765.61932898","1769.5311029",""
"sujeto_005868","1","3","8","72","1769.67116594","inverse","1","1","4","¿Cuál de los 7 enanitos
no tenía barba?","Bashful","Mudito","","1","1","0","competitive","right","1.11168479919","1770.78291488","3.88831520081","1774.82685399","4.48607516289","1779.31297588","1.51392483711","1780.87902403","1782.45914102","1782.52945995","1785.53244901","1","1785.54643703","1790.47324491",""
"sujeto_005868","1","3","9","73","1790.59827495","direct","3","1","2","¿Cual red social es
mas utilizada mundialmente?","Instagram","Facebook","","1","1","0","competitive","left","2.11568403244","1792.71403384","2.88431596756","1795.77063394","3.35128903389","1799.12198806","2.64871096611","1801.82170892","1803.73903394","1803.82281089","1806.82518792","1","1806.84025502","1809.77474284",""
"sujeto_005868","1","3","10","74","1809.92547894","inverse","4","1","1","¿Cuándo se inició la copa
 América de fútbol?","1916","1923","","1","1","1","individual","right","1.29849219322","1811.22403884","3.70150780678","1815.08102584","2.48491191864","1817.56598091","3.51508808136","1821.13127303","1823.02873802","1823.06705189","1826.07002091","1","1826.08411288","1828.74022794",""
"sujeto_005868","1","3","11","75","1828.88643694","direct","3","1","4","¿Cuántos presidentes de EEUU
han muerto asesinados?","3","4","","0","0","1","competitive","right","1.11254286766","1829.99902701","3.88745713234","1834.04148293","2.99950885773","1837.04105592","3.00049114227","1840.09093404","1841.57483292","1841.65959907","1844.66258287","0","1844.67659402","1848.31721687",""
"sujeto_005868","1","3","12","76","1848.47918797","inverse","2","1","4","¿Cuántas veces participó EEUU
 en la copa América?","4","5","","0","0","1","competitive","left","1.00777816772","1849.48704386","3.99222183228","1853.63289499","2.27409005165","1855.90703297","3.72590994835","1859.68398499","1861.12810087","1861.20291805","1864.20588899","0","1864.21988702","1870.33707285",""
"sujeto_005868","1","3","13","77","1870.47203207","direct","4","1","1","¿Cuál de estos países 
no formaba la URSS?","Azeribayán","Afganistán","","0","0","1","individual","right","1.16895604134","1871.64103484","3.83104395866","1875.62899303","4.16098713875","1879.79004884","1.83901286125","1881.66289806","1882.9759469","1883.01438498","1886.01719689","0","1886.031461","1894.01155686",""
"sujeto_005868","1","3","14","78","1894.14985394","inverse","1","1","1","¿En qué año se inauguró
 el teatro Solís?","1867","1856","","0","0","0","individual","left","1.84913897514","1895.99906301","3.15086102486","1899.34035993","3.18962097168","1902.53004384","2.81037902832","1905.39258003","1906.44883394","1906.49348783","1909.49646592","0","1909.51068687","1916.15850091",""
"sujeto_005868","1","3","15","79","1916.295856","direct","1","1","4","¿A qué velocidad vuela 
el avión más rápido?","3529","3874","","0","0","0","competitive","left","1.44813513756","1917.74406195","3.55186486244","1921.45318604","3.53078198433","1924.98403001","2.46921801567","1927.50346303","1929.25895095","1929.33879495","1932.34180093","0","1932.35598898","1934.46626687",""
"sujeto_005868","1","3","16","80","1934.607198","inverse","3","1","4","¿De qué año es la primer 
película cinematográfica?","1897","1888","","0","0","0","competitive","left","1.01580095291","1935.62304401","3.98419904709","1939.77753496","3.31147885323","1943.08906198","2.68852114677","1945.81278896","1946.94520307","1947.03086805","1950.03384089","0","1950.04842997","1955.45820284",""
"sujeto_005868","1","3","17","81","1955.59947801","direct","2","1","3","¿Cuántos países 
tiene nuestro planeta?","191","194","","1","1","1","competitive","left","1.05552506447","1956.65504789","3.94447493553","1960.75612903","2.87087202072","1963.62704802","3.12912797928","1966.80667806","1968.16387987","1968.24194503","1971.24488902","1","1971.25897884","1974.49723506",""
"sujeto_005868","1","3","18","82","1974.64326501","inverse","2","1","2","¿Cuántos habitantes
 tiene Buenos Aires?","2.9000.000","3650000","","0","0","0","competitive","left","1.62174701691","1976.26508093","3.37825298309","1979.81666899","3.33730816841","1983.15402007","2.66269183159","1985.86626506","1987.26347899","1987.33458805","1990.33757401","0","1990.35182405","1996.18122292",""
"sujeto_005868","1","3","19","83","1996.32048702","direct","2","1","1","¿Cuántos kilos forman una tonelada?","1000","1500","left","1","1","1","individual","left","1.51764202118","1997.83817506","3.48235797882","2001.49383903","2.74522995949","2004.239115","3.25477004051","2007.52646494","2009.41318703","2009.46182585","2012.46481586","1","2012.47986197","2018.43727803",""
"sujeto_005868","1","3","20","84","2018.58162498","inverse","4","1","4","¿Cuántos estados tiene la 
República del Perú? ","24","23","","0","0","1","competitive","left","1.01744699478","2019.59913993","3.98255300522","2023.75377893","2.4582529068","2026.21207404","3.5417470932","2029.8045969","2030.82678604","2030.90650296","2033.90948987","0","2033.923527","2038.86883688",""
"sujeto_005868","1","3","21","85","2039.00850892","direct","3","1","3","¿En qué año nació Cristóbal Colón? ","1451","1447","","0","0","1","competitive","right","1.05458402634","2040.06314087","3.94541597366","2044.16561985","3.24045205116","2047.406147","2.75954794884","2050.21646094","2052.06236506","2052.13485003","2055.13784099","0","2055.15204597","2059.38002896",""
"sujeto_005868","1","3","22","86","2059.52019405","inverse","4","1","4","¿Cuánto mide la 
Montaña Aconcagua? ","6234","6962","","0","0","1","competitive","left","1.03694200516","2060.55725288","3.96305799484","2064.69341087","3.03465294838","2067.72811103","2.96534705162","2070.74398994","2072.03326488","2072.11204791","2075.11501789","0","2075.12931204","2082.31292605",""
"sujeto_005868","1","3","23","87","2082.46332502","direct","2","1","4","¿Cuánto mide el punto
 más profundo del océano? ","12508","11003","","0","0","1","competitive","left","0.965795993805","2083.42917991","4.0342040062","2087.63854194","2.33850121498","2089.97708893","3.66149878502","2093.68843007","2094.93989992","2095.02330399","2098.02523685","0","2098.04119802","2102.2474699",""
"sujeto_005868","1","3","24","88","2102.39236689","inverse","1","1","3","¿Cuántos álbumes ha publicado 
el cantante Jaime Roos? ","41","34","","0","0","1","competitive","right","1.15675902367","2103.54918003","3.84324097633","2107.56261396","3.08746790886","2110.65012598","2.91253209114","2113.61496305","2115.10482407","2115.18311906","2118.18611002","0","2118.20011091","2124.39626503",""
"sujeto_005868","1","3","25","89","2124.53541088","direct","4","1","3","¿En qué año nació el 
ex-presidente Jorge Battle? ","1921","1927","","1","1","1","competitive","right","1.37670207024","2125.91216397","3.62329792976","2129.69085288","3.5652589798","2133.25618291","2.4347410202","2135.74231291","2137.47297597","2137.54396486","2140.54692292","1","2140.56113887","2144.045192",""
"sujeto_005868","1","3","26","90","2144.17988396","inverse","1","1","3","¿Cuántas presidencias 
constitucionales  hubo en Uruguay? ","41","42","","0","0","1","competitive","right","1.13870501518","2145.31866097","3.86129498482","2149.33645391","3.60767388344","2152.94417286","2.39232611656","2155.38823104","2156.59197402","2156.67179585","2159.67478299","0","2159.68914986","2165.46923685",""
"sujeto_005868","1","3","27","91","2165.60770297","direct","1","1","2","¿Quién escribió mas sinfonías?","Mozart","Haydn","","1","1","0","competitive","right","1.09347677231","2166.70124984","3.90652322769","2170.7643609","3.23583006859","2174.00026488","2.76416993141","2176.81469107","2178.03214002","2178.11629486","2181.11928296","1","2181.1344049","2184.88580084",""
"sujeto_005868","1","3","28","92","2185.03695893","inverse","4","1","2","¿En qué año nació Michael Jackson?","1958","1953","","1","1","1","individual","left","1.58619904518","2186.62320304","3.41380095482","2190.19179106","3.46335792542","2193.65519404","2.53664207458","2196.22500491","2198.20325303","2198.24284601","2201.24581385","1","2201.26088285","2207.123209",""
"sujeto_005868","1","3","29","93","2207.26282001","direct","3","1","2","¿En qué año entró en vigencia 
la ley antitabaco en Uruguay?","2005","2006","","1","1","1","competitive","left","2.83436799049","2210.09723496","2.16563200951","2212.43555999","3.85058116913","2216.28620386","2.14941883087","2218.48685193","2220.08117104","2220.15448594","2223.15746284","1","2223.17265201","2228.50665092",""
"sujeto_005868","1","3","30","94","2228.674371","inverse","3","1","1","¿Cuándo se subió el 
primer video a youtube?","2004","2005","","0","0","1","individual","left","1.34780097008","2230.02221584","3.65219902992","2233.83060193","2.27354598045","2236.10419297","3.72645401955","2239.88024402","2241.18592286","2241.23291993","2244.23324704","0","2244.24948192","2252.00507903",""
"sujeto_005868","1","3","31","95","2252.16749191","direct","2","1","1","¿Cuántos habitantes tiene India?","1200 millones","1300 millones","","0","0","0","individual","left","2.07269406319","2254.24025702","2.92730593681","2257.31021786","1.95594000816","2259.26622295","4.04405999184","2263.35637999","2265.32601094","2265.37552094","2268.37849188","0","2268.39368701","2274.44120002",""
"sujeto_005868","1","3","32","96","2274.62851596","inverse","4","1","2","¿A qué edad murió Bob Marley?","36","37","","0","0","1","competitive","right","1.34468388557","2275.97327089","3.65531611443","2279.78716683","2.06999802589","2281.85722995","3.93000197411","2285.83741593","2287.73524094","2287.80572987","2290.8087039","0","2290.82369089","2293.92520499",""
"sujeto_005868","1","4","1","97","2420.54071188","direct","2","1","1","¿Cuantos años dirigió la selección 
uruguaya Tabarez?","15 años","13 años","","0","0","0","individual","left","1.81354689598","2422.35432386","3.18645310402","2425.69548893","2.18180990219","2427.87737298","3.81819009781","2431.7454989","2432.93663001","2432.98144794","2435.98443198","0","2435.99845195","2443.07048702","2293.93982196"
"sujeto_005868","1","4","2","98","2443.21676207","inverse","4","1","1","¿Cuantas teclas tiene un teclado 
de computadora generalmente? ","Entre 99 y 108","Entre 109 y 113","","1","1","1","individual","right","1.20851993561","2444.425349","3.79148006439","2448.37305188","5.75719308853","2454.13031507","0.242806911469","2454.40955806","2455.41232586","2455.45922184","2458.46219301","1","2458.47610092","2460.84753585",""
"sujeto_005868","1","4","3","99","2460.97793007","direct","1","1","1","¿Cuál Departamento tiene
 mayor superficie?","Río Negro","Soriano","","0","0","0","individual","right","2.15539002419","2463.1333909","2.84460997581","2466.13397503","3.39930105209","2469.53332186","2.60069894791","2472.18362284","2473.89705086","2473.9350009","2476.93718886","0","2476.95303392","2481.27909994",""
"sujeto_005868","1","4","4","100","2481.42123985","inverse","3","1","2","¿Cuál es el apellido de las 
hermanastras  de  cenicienta?","Tremaine","Truman","","0","0","1","competitive","left","1.94319701195","2483.36449099","3.05680298805","2486.62323189","4.38210701942","2491.00540495","1.61789298058","2492.67829394","2494.54780197","2494.62927389","2497.63219094","0","2497.64680099","2500.34117293",""
"sujeto_005868","1","4","5","101","2500.49916196","direct","4","1","4","¿Cuál película ganó un
 Oscar a mejor película?","Alto Impacto","Cache","","0","0","1","competitive","left","1.00917387009","2501.50844193","3.99082612991","2505.65151095","3.74984097481","2509.40141892","2.25015902519","2511.70402288","2512.82340193","2512.90509105","2515.90810394","0","2515.92201591","2518.18664885",""
"sujeto_005868","1","4","6","102","2518.32419801","inverse","1","1","3","¿A cuántos centímetros
equivale la medida pié?","25","30","","0","0","1","competitive","left","1.03311109543","2519.35735393","3.96688890457","2523.49616003","3.48116016388","2526.97736192","2.51883983612","2529.5460639","2530.58607793","2530.66470504","2533.66768885","0","2533.68206191","2539.08302593",""
"sujeto_005868","1","4","7","103","2539.23337197","direct","2","1","2","¿Qué departamento es mas grande?","Cerro Largo","Paysandú","","0","0","0","competitive","right","1.32896709442","2540.56238294","3.67103290558","2544.40685391","2.56050801277","2546.9674089","3.43949198723","2550.44054985","2552.04030299","2552.12595391","2555.12891197","0","2555.14320493","2559.25315499",""
"sujeto_005868","1","4","8","104","2559.39412498","inverse","2","1","3","¿Quién pintó la Mona Lisa?","Picasso","Da Vinci","right","0","0","1","competitive","right","1.23724102974","2560.63143802","3.76275897026","2564.56786299","1.86544919014","2566.43338203","4.13455080986","2570.61722684","2572.22310305","2572.30289292","2575.30587506","1","2575.31986594","2577.48214793",""
"sujeto_005868","1","4","9","105","2577.62204194","direct","4","1","3","¿Cuántos litros hay en un galon?","3.54","3.78","","1","1","1","competitive","right","0.989281892776","2578.61140299","4.01071810722","2582.77591491","3.48442387581","2586.26040506","2.51557612419","2588.82676291","2590.34463501","2590.42802501","2593.42918801","1","2593.44534397","2599.23717403",""
"sujeto_005868","1","4","10","106","2599.39728403","inverse","4","1","1","¿Cuántas teclas tiene
 un piano moderno?","80","88","","0","0","1","individual","left","2.1750869751","2601.57243896","2.8249130249","2604.55561399","2.41173815727","2606.96739388","3.58826184273","2610.60502696","2611.61320496","2611.65682101","2614.65979385","0","2614.67379093","2621.47155905",""
"sujeto_005868","1","4","11","107","2621.64212799","direct","4","1","3","¿Cuántos países hay en África?","54","62","","0","0","1","competitive","right","1.01222515106","2622.65439796","3.98777484894","2626.79925084","2.85517811775","2629.65449595","3.14482188225","2632.84958196","2634.54015303","2634.61740589","2637.62034607","0","2637.63548303","2645.44018888",""
"sujeto_005868","1","4","12","108","2645.57024503","inverse","1","1","3","¿En qué siglo se crearon
 las primeras pistolas?","XV","XIII","","1","1","1","competitive","right","1.13314199448","2646.70343304","3.86685800552","2650.72805405","3.85530114174","2654.58339691","2.14469885826","2656.7792809","2658.72716689","2658.79708004","2661.80008698","1","2661.81399703","2665.04710197",""
"sujeto_005868","1","4","13","109","2665.19898796","direct","3","1","4","¿En qué año se estrenó 
la serie friends?","1994","1995","","0","0","1","competitive","left","0.928416967392","2666.12748194","4.07158303261","2670.35187387","2.55753397942","2672.90945196","3.44246602058","2676.40350389","2678.27884388","2678.35590386","2681.35888886","0","2681.37318897","2686.37923288",""
"sujeto_005868","1","4","14","110","2686.50791693","inverse","3","1","4","¿En qué año nació Hitler?","1889","1887","","0","0","1","competitive","right","0.905529975891","2687.41351485","4.09447002411","2691.68194389","2.80750703812","2694.48950005","3.19249296188","2697.73252797","2698.84690785","2698.91791487","2701.920856","0","2701.93507886","2706.962075",""
"sujeto_005868","1","4","15","111","2707.10327196","direct","1","1","4","¿Cuánto pesa un elefante Africano?","6000 kilos","5400 kilos","","0","0","0","competitive","right","0.971626996994","2708.074965","4.02837300301","2712.29290104","2.68954396248","2714.98251796","3.31045603752","2718.34388089","2719.69980097","2719.77846789","2722.78145194","0","2722.79607391","2729.50315595",""
"sujeto_005868","1","4","16","112","2729.64724588","inverse","1","1","2","¿Qué porcentaje de 
la población es zurda?","10%","7%","","1","1","0","competitive","right","1.10013604164","2730.74742484","3.89986395836","2734.80454898","2.43392395973","2737.23854089","3.56607604027","2740.85461593","2742.09772205","2742.17384386","2745.17682886","1","2745.19074392","2751.17048001",""
"sujeto_005868","1","4","17","113","2751.30931306","direct","1","1","2","¿En qué año se estrenó
Volver al futuro?","1984","1985","","0","0","1","competitive","right","0.879107952118","2752.18846798","4.12089204788","2756.46302485","2.62942504883","2759.0925169","3.37057495117","2762.49814606","2764.05996799","2764.13383007","2767.13682294","0","2767.15113091","2774.24254203",""
"sujeto_005868","1","4","18","114","2774.385607","inverse","3","1","2","¿Cuántos jugadores hay en un 
equipo de baseball?","9","8","","1","1","0","individual","left","1.63587117195","2776.02154589","3.36412882805","2779.54544497","2.87697291374","2782.42245984","3.12302708626","2785.57838297","2787.19261503","2787.22962093","2790.23254704","1","2790.2477119","2795.22126794",""
"sujeto_005868","1","4","19","115","2795.38265896","direct","2","1","1","¿Cuántos Oscar ganó
 la película titanic?","13","11","","1","1","1","individual","left","1.29422903061","2796.67699504","3.70577096939","2800.53950095","2.2549598217","2802.79450583","3.7450401783","2806.58854795","2807.89055395","2807.94053793","2810.94351101","1","2810.95787191","2815.56053495",""
"sujeto_005868","1","4","20","116","2815.72627997","inverse","4","1","4","¿En qué año comenzó
la segunda guerra mundial?","1939","1976","left","0","0","1","competitive","left","1.13782382011","2816.86416984","3.86217617989","2820.88235903","2.45617103577","2823.33857298","3.54382896423","2826.93247485","2828.73231602","2828.81763697","2831.82062697","1","2831.83565307","2835.82280207",""
"sujeto_005868","1","4","21","117","2835.9706769","direct","2","1","4","¿Cuántos biomas hay en Uruguay?","5","4","","0","0","1","competitive","left","0.965842962265","2836.93656492","4.03415703773","2841.12327504","3.25122499466","2844.37454104","2.74877500534","2847.17505383","2848.97237086","2849.04314184","2852.0461309","0","2852.06135106","2858.31076884",""
"sujeto_005868","1","4","22","118","2858.46277905","inverse","2","1","3","¿Cuándo murió Pablo Escobar?","1993","1997","","1","1","1","competitive","right","1.02069401741","2859.48351789","3.97930598259","2863.65413284","3.85635995865","2867.51053786","2.14364004135","2869.70607495","2871.48891592","2871.57340789","2874.57636786","1","2874.59067988","2880.29431891",""
"sujeto_005868","1","4","23","119","2880.44251204","direct","1","1","4","¿Qué serie ha ganado mas premios?","Friends","Murphy Brown","","1","1","0","competitive","left","0.941974163055","2881.38455606","4.05802583694","2885.59923291","2.95628404617","2888.55559087","3.04371595383","2891.64930487","2893.00120687","2893.08427","2896.087255","1","2896.10147285","2901.66309905",""
"sujeto_005868","1","4","24","120","2901.80312896","inverse","4","1","2","¿Cuántas fichas tiene el dominó?","26","28","","1","1","1","individual","right","2.31136989594","2904.11454606","2.68863010406","2906.99074507","3.73873996735","2910.729532","2.26126003265","2913.04447103","2914.09976697","2914.14562798","2917.14860106","1","2917.16263199","2922.40523386",""
"sujeto_005868","1","4","25","121","2922.55052185","direct","2","1","4","¿Cuántos son los dientes de leche?","20","25","","0","0","1","competitive","left","0.942011117935","2923.49257803","4.05798888206","2927.70121193","3.40627288818","2931.10752892","2.59372711182","2933.75402594","2935.46431589","2935.53782797","2938.54077387","0","2938.55602384","2940.70168805",""
"sujeto_005868","1","4","26","122","2940.85752606","inverse","3","1","3","¿Cuántos gramos son una onza?","22","28","","0","0","1","competitive","right","1.82397508621","2942.68157005","3.17602491379","2946.03134298","3.64218616486","2949.67360187","2.35781383514","2952.0647409","2954.05960298","2954.13239193","2957.13536286","0","2957.14973497","2963.43724799",""
"sujeto_005868","1","4","27","123","2963.58506393","direct","3","1","1","¿Cuándo salió el primer album
 de los Beatles?","1963","1962","","1","1","1","individual","left","1.83446502686","2965.41960001","3.16553497314","2968.75897789","3.08757781982","2971.8466239","2.91242218018","2974.80916095","2975.97275901","2976.01149201","2979.0132699","1","2979.028332","2982.8003509",""
"sujeto_005868","1","4","28","124","2982.963727","inverse","3","1","3","¿Quién fundó la empresa apple?","Carlos Slim","Steve Jobs","","1","1","1","competitive","right","0.871843099594","2983.83564997","4.12815690041","2988.11696386","2.37954688072","2990.49657607","3.62045311928","2994.1688199","2995.28343487","2995.35373092","2998.35667205","1","2998.370543","3004.66836095",""
"sujeto_005868","1","4","29","125","3004.80536699","direct","4","1","2","¿Cuántos municipios hay
 en Montevideo?","8","7","","1","1","1","competitive","left","2.32721495628","3007.13265085","2.67278504372","3009.95979595","2.35676717758","3012.316607","3.64323282242","3016.01138592","3017.92526102","3017.99624395","3020.99922705","1","3021.01441789","3023.09556794",""
"sujeto_005868","1","4","30","126","3023.25004292","inverse","1","1","1","¿Cuántos kilómetros hay
 de Montevideo a Artigas?","632","599","","0","0","0","individual","left","1.3455119133","3024.59560084","3.6544880867","3028.40662503","2.79296207428","3031.19963384","3.20703792572","3034.45702386","3035.94015002","3035.9918859","3038.99485898","0","3039.00912786","3045.06124806",""
"sujeto_005868","1","4","31","127","3045.21062589","direct","2","1","2","¿En qué año nació 
Leonardo Da Vinci?","1452","1511","","1","1","0","competitive","left","2.06499195099","3047.27566695","2.93500804901","3050.384444","2.48712801933","3052.87164497","3.51287198067","3056.43467498","3058.28829288","3058.36972404","3061.37270999","1","3061.38763905","3064.53324199",""
"sujeto_005868","1","4","32","128","3064.67267203","inverse","3","1","1","¿A qué continente
 pertenece el país Gabón?","Africa","Oceanía","","0","0","1","individual","left","1.50889205933","3066.18161201","3.49110794067","3069.82755685","2.27703404427","3072.10465789","3.72296595573","3075.87750506","3077.68919492","3077.72993207","3080.73288584","0","3080.74696684","3085.98125196",""
