"code","nro_aplicante","nro_bloque","nro_trial_bloque","nro_trial_global","show_game_type","choice_order","rival","pay_individual","pay_competitive","question","answer_left_text","answer_right_text","correct_answer","outcome_individual","outcome_competitive","outcome_rival","game_type","answer","social_time","rt_game_type","feedback_delay","show_question","answer_time","rt_answer_global","feedback_delay_2","show_jitter","jitter_time","show_outcome","outcome_time","outcome_participant_real","show_final_jitter","second_jitter_time","inicio_descanso"
"sujeto_0bf947ec","2","1","1","1","86.8388798237","direct","3","1","4","¿Cuántos centímetros corresponden
al talle 36 del calzado?","23","24","","0","0","1","competitive","right","1.59041595459","88.4293589592","3.40958404541","91.9940259457","3.78833603859","95.7824289799","2.21166396141","98.0449249744","99.073184967","99.1460478306","102.149037838","0","102.162912846","104.325455904",""
"sujeto_0bf947ec","2","1","2","2","104.465775967","inverse","3","1","2","¿Cuántas metros mide la Intendencia
Municipal de Montevideo? ","84","78","","0","0","1","competitive","left","1.13859415054","105.604434967","3.86140584946","109.602780819","3.36957597733","112.972398996","2.63042402267","115.653271914","117.531263828","117.605140924","120.606830835","0","120.621903896","122.714644909",""
"sujeto_0bf947ec","2","1","3","3","122.86103487","direct","1","1","3","¿Cuántas La Pasiva
 hay en uruguay?","15","11","","1","1","1","competitive","left","1.18935084343","124.050451994","3.81064915657","128.012679815","2.45769810677","130.470419884","3.54230189323","134.062602997","135.674242973","135.747353792","138.750329971","1","138.765160799","143.043497801",""
"sujeto_0bf947ec","2","1","4","4","143.167154789","inverse","3","1","3","¿De que color es la camiseta de uruguay?","blanca","celeste","right","1","1","1","competitive","right","1.05225801468","144.219489813","3.94774198532","148.319798946","2.01264619827","150.332515001","3.98735380173","154.354511976","155.559256792","155.639865875","158.64285183","1","158.65690279","162.110828876",""
"sujeto_0bf947ec","2","1","5","5","162.27736187","direct","2","1","1","¿Cuánto metros mide
la torre Eiffel?","333","324","","1","1","1","competitive","right","1.34003686905","163.61747098","3.65996313095","167.415466785","2.63292598724","170.04846096","3.36707401276","173.466229916","174.987591982","175.067373991","178.070334911","1","178.085482836","185.122174978",""
"sujeto_0bf947ec","2","1","6","6","185.254770994","inverse","3","1","4","¿Cuantas ciudades existen
 en todo el uruguay?","63","72","","0","0","1","competitive","right","0.944628953934","186.199445009","4.05537104607","190.411317825","2.54504489899","192.956425905","3.45495510101","196.444307804","197.498826981","197.579892874","200.582876921","0","200.596951962","208.223541975",""
"sujeto_0bf947ec","2","1","7","7","208.354590893","direct","1","1","1","¿Cuantos estados tiene África?","52","54","","1","1","0","competitive","left","0.992805957794","209.347465992","4.00719404221","213.506162882","3.43520903587","216.941416979","2.56479096413","219.557096958","221.421132803","221.491349936","224.494301796","1","224.509196997","230.270205975",""
"sujeto_0bf947ec","2","1","8","8","230.411605835","inverse","4","1","4","¿En qué año nació
 Stephen Hawking?","1952","1942","","0","0","1","competitive","right","0.968792915344","231.380465984","4.03120708466","235.565998793","3.82439494133","239.390433788","2.17560505867","241.600888014","243.045215845","243.119431019","246.122380972","0","246.136265993","252.235628843",""
"sujeto_0bf947ec","2","1","9","9","252.392040968","direct","2","1","3","¿Cuánto años tenía Artigas
 cuando se fue a Paraguay?","56","57","","1","1","1","competitive","right","1.02636814117","253.41847682","3.97363185883","257.529193878","3.51624488831","261.045480967","2.48375511169","263.579489946","265.128998995","265.214147806","268.217141867","1","268.231192827","274.278504848",""
"sujeto_0bf947ec","2","1","10","10","274.417572975","inverse","1","1","2","¿Cuantos milímetros 
mide una hoja A2?","420x592","420x594","","0","0","1","competitive","right","0.717851161957","275.13546896","4.28214883804","279.57404685","3.59942102432","283.173527956","2.40057897568","285.624724865","287.193180799","287.275301933","290.278218985","0","290.293339014","297.366982937",""
"sujeto_0bf947ec","2","1","11","11","297.529772997","direct","3","1","3","¿Cuál es la menor temperatura 
registrada en Uruguay?","-5.4","-7.4","","0","0","1","competitive","left","0.948676109314","298.478498936","4.05132389069","302.685068846","3.10642790794","305.791555882","2.89357209206","308.735931873","310.417973995","310.487497807","313.490474939","0","313.504437923","317.237740993",""
"sujeto_0bf947ec","2","1","12","12","317.373342991","inverse","2","1","2","¿Cuantos años hace que 
se fundó facebook?","18","17","","0","0","0","competitive","right","0.916123151779","318.289537907","4.08387684822","322.528584003","2.99190211296","325.520546913","3.00809788704","328.5798769","329.952547789","330.030858994","333.033807993","0","333.048610926","335.822865963",""
"sujeto_0bf947ec","2","1","13","13","335.950019836","direct","1","1","4","¿Cuál animal es más
 pesado en promedio?","Rinoceronte","Hipopotamo","","0","0","0","competitive","right","0.95144701004","336.901533842","4.04855298996","341.138474941","3.45706605911","344.59560585","2.54293394089","347.189876795","348.269134998","348.34049201","351.342866898","0","351.358014822","355.19903183",""
"sujeto_0bf947ec","2","1","14","14","355.327682972","inverse","1","1","2","¿Qué personaje de dragon ball 
murió más veces?","Chaoz","Krillin","","1","1","0","competitive","right","0.90780711174","356.235534906","4.09219288826","360.464669943","3.54685401917","364.011571884","2.45314598083","366.516068935","367.973860979","368.050490856","371.050833941","1","371.067978859","378.840916872",""
"sujeto_0bf947ec","2","1","15","15","379.005050898","direct","3","1","2","La universidad de oxford. 
existe desde:","1096","1249","","1","1","0","competitive","right","0.865435838699","379.870563984","4.1345641613","384.177368879","2.97813487053","387.15554595","3.02186512947","390.211011887","391.259819984","391.329401016","394.33235383","1","394.346148968","401.037007809",""
"sujeto_0bf947ec","2","1","16","16","401.167778969","inverse","3","1","1","¿Qué escritor latino ganó antes
 el premio nobel?"," García Marquez","Neruda","","0","0","1","competitive","left","0.884778022766","402.052670956","4.11522197723","406.335877895","3.90565180779","410.241572857","2.09434819221","412.388216972","414.126829863","414.206293821","417.20685482","0","417.22399497","420.684516907",""
"sujeto_0bf947ec","2","1","17","17","420.82719779","direct","4","1","3","¿Cuántos dientes tiene un
 tiburón blanco?","6000","3000","","0","0","1","competitive","right","0.679343938828","421.506608009","4.32065606117","426.015655994","2.85586214066","428.871587992","3.14413785934","432.065845013","433.104844809","433.18430686","436.186856985","0","436.200935841","441.010603905",""
"sujeto_0bf947ec","2","1","18","18","441.1526618","inverse","4","1","1","¿Cuánto mide el paralelo Ecuador?","40.000km","70.000km","","0","0","1","competitive","left","0.75187587738","441.904609919","4.24812412262","446.309700966","2.67779302597","448.987561941","3.32220697403","452.343382835","454.299484968","454.377534866","457.380515814","0","457.395666838","460.998246908",""
"sujeto_0bf947ec","2","1","19","19","461.180806875","direct","4","1","2","¿Cuál fue el primer libro 
de Stephen King?","Carrie","The Stand","","1","1","1","competitive","left","1.05674099922","462.237613916","3.94325900078","466.33628583","2.81822800636","469.154555798","3.18177199364","472.386371851","474.130457878","474.205310822","477.206829786","1","477.222670794","481.697112799",""
"sujeto_0bf947ec","2","1","20","20","481.859844923","inverse","2","1","3","¿Qué civilización practicaba
 la momificación?","Grecia","Egipto","right","0","0","1","competitive","right","0.731737136841","482.591647863","4.26826286316","487.010876894","2.34365701675","489.354575872","3.65634298325","493.045899868","494.985213995","495.064397812","498.067350864","1","498.082500935","502.311292887",""
"sujeto_0bf947ec","2","1","21","21","502.450055838","direct","4","1","4","¿Cuántos millones de visitas
 recibe google por minuto?","3.0","4.5","","0","0","1","competitive","right","0.791517972946","503.241643906","4.20848202705","507.60777092","3.07679390907","510.684626818","2.92320609093","513.64151001","515.15632987","515.226655006","518.229636908","0","518.24374795","525.366407871",""
"sujeto_0bf947ec","2","1","22","22","525.498613834","inverse","1","1","3","La máquina de fax. se inventó en:","1843","1960","","0","0","1","competitive","left","0.88102889061","526.379754782","4.11897110939","530.652747869","2.89480805397","533.547623873","3.10519194603","536.686039925","537.928128958","538.004958868","541.007948875","0","541.022239923","544.25850296",""
"sujeto_0bf947ec","2","1","23","23","544.391937017","direct","2","1","4","En la verdadera historia de los
 300 espartanos. habían:","300 soldados","4300 soldados","","1","1","1","competitive","left","0.779628992081","545.171634912","4.22037100792","549.545217991","4.17939710617","553.724672794","1.82060289383","555.596843004","556.858074903","556.931798935","559.934779882","1","559.94885993","563.750624895",""
"sujeto_0bf947ec","2","1","24","24","563.918943882","inverse","1","1","4","¿Cuántos milímetros crece
 el pelo por día?","0.4","0.04","","0","0","0","competitive","left","0.753659009933","564.672686815","4.24634099007","569.088594913","2.94197916985","572.030614853","3.05802083015","575.139938831","576.900642872","576.974514961","579.97730279","0","579.991613865","586.726740837",""
"sujeto_0bf947ec","2","1","25","25","586.86368084","direct","4","1","1","¿Cuánto mide la baldosa gris 
clásica de Montevideo?","22x22 cm.","20x20 cm.","","1","1","1","competitive","right","0.660975933075","587.524735928","4.33902406693","592.017724991","3.4139149189","595.431680918","2.5860850811","598.068377018","600.062850952","600.13667798","603.139655828","1","603.154040813","608.696846962",""
"sujeto_0bf947ec","2","1","26","26","608.822212934","inverse","2","1","2","¿Cuántas películas de rápidos
 y furiosos hay?","10","11","","1","1","0","competitive","left","0.604442119598","609.4267838","4.3955578804","613.962294817","3.25030899048","617.212643862","2.74969100952","620.012496948","621.370522976","621.44775486","624.450740814","1","624.464698792","626.498447895",""
"sujeto_0bf947ec","2","1","27","27","626.66355896","direct","3","1","1","¿Cuántos masters 1000
 ganó Del Potro?","1","2","","1","1","1","competitive","right","0.73011302948","627.39377594","4.26988697052","631.835653782","3.38595604897","635.221675873","2.61404395103","637.887454987","639.642074823","639.722124815","642.725111008","1","642.73921895","650.135516882",""
"sujeto_0bf947ec","2","1","28","28","650.277868986","inverse","2","1","4","¿Cuántos meses dura el 
embarazo de una leona?","3 meses","4 meses","","0","0","1","competitive","right","0.71875","650.99668479","4.28125","655.43025589","3.02236580849","658.452685833","2.97763419151","661.483215809","662.594311953","662.667248011","665.670250893","0","665.684355974","672.406855822",""
"sujeto_0bf947ec","2","1","29","29","672.536375999","direct","1","1","1","¿En qué año fue creado
 el sandwich?","1762","1653","","1","1","0","competitive","right","0.742321014404","673.278782845","4.2576789856","677.711411953","3.45528101921","681.166782856","2.54471898079","683.762384892","685.360894918","685.430383921","688.433394909","1","688.447532892","691.918177843",""
"sujeto_0bf947ec","2","1","30","30","692.049079895","inverse","4","1","2","El nombre de la moneda de Vietnam es:","Dinar","Dong","","0","0","1","competitive","left","0.762606859207","692.811733007","4.23739314079","697.204904795","2.93674707413","700.141694784","3.06325292587","703.25621891","704.688207865","704.757671833","707.758845806","0","707.774729967","713.94280982",""
"sujeto_0bf947ec","2","1","31","31","714.092824936","direct","2","1","1","¿cuantos aleteos puede dar 
un colibrí por segundo?","120","50","","0","0","0","competitive","left","0.657824039459","714.750741959","4.34217596054","719.248374939","2.97629594803","722.224738836","3.02370405197","725.282821894","727.015192986","727.084383965","730.086848974","0","730.102695942","734.314864874",""
"sujeto_0bf947ec","2","1","32","32","734.454252005","inverse","4","1","3","¿Qué altura promedio tienen
 los hombres uruguayos?","1.73 m","1.72 m","","1","1","1","competitive","left","0.830451965332","735.284775019","4.16954803467","739.626797915","2.61286401749","742.239704847","3.38713598251","745.677155972","746.939538956","747.012312889","750.015291929","1","750.029347897","754.505293846",""
"sujeto_0bf947ec","2","2","1","33","910.664134979","direct","1","1","1","¿En qué año nació 
el actor Bradd Pitt?","1967","1963","","1","1","1","competitive","left","0.788609981537","911.45280695","4.21139001846","915.815979004","3.06379508972","918.879838943","2.93620491028","921.851000786","922.946799994","923.019924879","926.022869825","1","926.0367558","931.964352846","754.52004385"
"sujeto_0bf947ec","2","2","2","34","932.124907017","inverse","2","1","1","¿Cual es el segundo 
monte más alto?","Kanchenjunga","K2","","1","1","1","competitive","right","0.690901041031","932.815893888","4.30909895897","937.278993845","2.72581195831","940.004874945","3.27418804169","943.329569817","944.781963825","944.864418983","947.867402792","1","947.881669998","951.311567783",""
"sujeto_0bf947ec","2","2","3","35","951.451782942","direct","3","1","1","¿Cuándo finalizó la construcción
 del Palacio Legislativo?","1925","1917","","0","0","1","competitive","right","0.675047159195","952.12687397","4.32495284081","956.621281862","3.76251602173","960.383859873","2.23748397827","962.656816959","964.298527956","964.374244928","967.377229929","0","967.391438007","973.089004993",""
"sujeto_0bf947ec","2","2","4","36","973.228971958","inverse","3","1","3","¿Cuántos integrantes tenía
 en su inicio  el cuarteto de nos?","3","4","","1","1","1","competitive","right","0.637861013412","973.866878986","4.36213898659","978.383464813","2.92831802368","981.311842918","3.07168197632","984.417143822","985.55023694","985.635694981","988.638660908","1","988.652598858","994.298841",""
"sujeto_0bf947ec","2","2","5","37","994.440382957","direct","2","1","3","¿Qué valor tiene el número pi?","3.14","4.18","left","0","0","1","competitive","left","0.694490194321","995.134941816","4.30550980568","999.591179848","1.80766391754","1001.39888287","4.19233608246","1005.642802","1007.09702182","1007.17873979","1010.18170595","1","1010.19571781","1017.11485481",""
"sujeto_0bf947ec","2","2","6","38","1017.24752092","inverse","2","1","2","¿Cuál es la esperanza de vida
 en Uruguay?","75","77","","1","1","0","competitive","right","0.729333877563","1017.97692394","4.27066612244","1022.42247486","2.36837983131","1024.79092097","3.63162016869","1028.4721868","1030.12596297","1030.208745","1033.21166182","1","1033.22575998","1039.68681097",""
"sujeto_0bf947ec","2","2","7","39","1039.8101759","direct","1","1","2","¿Cuantos pisos tiene la torre 
de las comunicaciones?","26","32","","1","1","0","competitive","left","0.677652835846","1040.48787498","4.32234716415","1044.96749592","3.66837596893","1048.6359148","2.33162403107","1051.01866579","1052.84752989","1052.91955185","1055.92255497","1","1055.93662","1058.08279586",""
"sujeto_0bf947ec","2","2","8","40","1058.22281885","inverse","2","1","4","¿En qué país sudamericano 
no hay McDonalds?","Bolivia","Venezuela","","0","0","1","competitive","right","0.747025966644","1058.96991181","4.25297403336","1063.37708187","2.92178487778","1066.29893088","3.07821512222","1069.42755294","1070.73688388","1070.81188798","1073.81482983","0","1073.82963586","1080.18936992",""
"sujeto_0bf947ec","2","2","9","41","1080.31480598","direct","3","1","1","¿En qué año empieza
 la Edad Media?","476","512","","1","1","1","competitive","right","0.742052078247","1081.05690384","4.25794792175","1085.45248795","2.95138502121","1088.40391779","3.04861497879","1091.50420499","1092.9068048","1092.98993897","1095.9929328","1","1096.00679898","1098.99535489",""
"sujeto_0bf947ec","2","2","10","42","1099.12468481","inverse","3","1","4","¿Hace cuántos años surgió
 el ser humano?","200mil","300mil","","0","0","0","competitive","left","0.648190021515","1099.77294779","4.35180997849","1104.28104496","3.05880308151","1107.33990884","2.94119691849","1110.31505394","1112.20110393","1112.28362584","1115.28660893","0","1115.30047989","1118.61082101",""
"sujeto_0bf947ec","2","2","11","43","1118.77158689","direct","3","1","4","¿Cuántas cuadras tiene
 actualmente 18 de julio? ","36","33","","0","0","1","competitive","right","0.841298103333","1119.61292791","4.15870189667","1123.94127393","2.63660311699","1126.57794595","3.36339688301","1129.99160695","1131.69387197","1131.77715898","1134.78015089","0","1134.79469991","1139.52099586",""
"sujeto_0bf947ec","2","2","12","44","1139.66317391","inverse","1","1","4","¿Qué juego de equipo se 
considera mas rápido?","Lacrosse","Badminton","","0","0","0","competitive","left","0.688751935959","1140.35203695","4.31124806404","1144.83548498","3.11241316795","1147.94797182","2.88758683205","1150.88611889","1152.12919998","1152.20451379","1155.20750284","0","1155.22152495","1163.21668482",""
"sujeto_0bf947ec","2","2","13","45","1163.35639095","direct","1","1","3","¿Qué promedio de edad 
vive una jirafa? ","25","20","","0","0","1","competitive","left","0.774536132812","1164.13099289","4.22546386719","1168.51225901","2.50465297699","1171.01697898","3.49534702301","1174.56330395","1176.32480001","1176.39856791","1179.40155888","0","1179.41570592","1185.37140894",""
"sujeto_0bf947ec","2","2","14","46","1185.51777101","inverse","1","1","2","¿Cuántos grandes lagos hay?","7","5","","0","0","1","competitive","left","0.602173089981","1186.12005687","4.39782691002","1190.69294381","2.51497483253","1193.2079649","3.48502516747","1196.72631001","1198.0184629","1198.09509492","1201.09808183","0","1201.11218786","1208.93083",""
"sujeto_0bf947ec","2","2","15","47","1209.06293201","direct","3","1","2","¿Cuántos discos de estudio
 grabó Johhny Cash? ","54","43","","1","1","0","competitive","right","0.622015953064","1209.68501782","4.37798404694","1214.23849392","3.07640385628","1217.31496","2.92359614372","1220.27207279","1221.55071998","1221.63955784","1224.64254999","1","1224.65681696","1231.30769396",""
"sujeto_0bf947ec","2","2","16","48","1231.44170594","inverse","4","1","1","¿Cuántos barrios tiene
 Montevideo? ","71","62","","0","0","1","competitive","right","0.734404087067","1232.17618895","4.26559591293","1236.616539","2.01742005348","1238.63399982","3.98257994652","1242.66588283","1243.67295194","1243.75218201","1246.75518179","0","1246.76907396","1252.23109794",""
"sujeto_0bf947ec","2","2","17","49","1252.36954093","direct","3","1","3","¿Qué edad tiene Homero Simpson?","36","42","","0","0","1","competitive","right","0.67541718483","1253.04506087","4.32458281517","1257.54174685","2.3282148838","1259.87000179","3.6717851162","1263.57703781","1264.95304894","1265.0287478","1268.03173685","0","1268.0456059","1272.43436289",""
"sujeto_0bf947ec","2","2","18","50","1272.58334899","inverse","4","1","2","¿Cuántos países con monarquía 
hay en europa actualmente? ","6","10","","1","1","1","competitive","left","0.686628103256","1273.2700448","4.31337189674","1277.77076983","0.119174957275","1277.88998389","5.88082504272","1283.81937289","1285.25768995","1285.33941483","1288.34237885","1","1288.35657191","1294.51339889",""
"sujeto_0bf947ec","2","2","19","51","1294.65823483","direct","2","1","3","¿Cuántos capítulos de
 Friends existen? ","236","228","","1","1","1","competitive","right","0.775729894638","1295.43401098","4.22427010536","1299.83171296","3.29925513268","1303.13100982","2.70074486732","1305.882936","1307.18850493","1307.26714993","1310.27010894","1","1310.2844069","1312.65882897",""
"sujeto_0bf947ec","2","2","20","52","1312.80402088","inverse","1","1","3","¿Cuántas óperas compuso Mozart? ","27","22","","1","1","1","competitive","left","0.712960958481","1313.51702595","4.28703904152","1317.97493482","2.26200795174","1320.23698282","3.73799204826","1324.00847387","1325.30063701","1325.37671995","1328.37972784","1","1328.39465785","1335.70612478",""
"sujeto_0bf947ec","2","2","21","53","1335.8628118","direct","4","1","3","¿Cuántos mundiales de fútbol 
femenino ha realizado FIFA? ","9","7","","1","1","1","competitive","right","0.859210014343","1336.72212601","4.14078998566","1341.03338695","3.05857419968","1344.09200096","2.94142580032","1347.0689168","1348.31262279","1348.38759089","1351.39058781","1","1351.4044838","1357.50679779",""
"sujeto_0bf947ec","2","2","22","54","1357.65955186","inverse","3","1","2","¿Cuál es la temperatura 
media anual en Montevideo? ","17.5","16.3","","0","0","1","competitive","left","0.854197978973","1358.5138278","4.14580202103","1362.83076882","3.33722805977","1366.16806698","2.66277194023","1368.88235283","1370.82093596","1370.90016985","1373.90281296","0","1373.91798091","1380.48751402",""
"sujeto_0bf947ec","2","2","23","55","1380.61953878","direct","2","1","2","¿En qué año se estrenó el
 videojuego The Sims? ","2000","2002","","0","0","0","competitive","left","0.93951010704","1381.55911589","4.06048989296","1385.776263","2.77478504181","1388.55108881","3.22521495819","1391.82750487","1393.68952179","1393.76213598","1396.76284695","0","1396.77905893","1404.17273092",""
"sujeto_0bf947ec","2","2","24","56","1404.31442189","inverse","2","1","1","¿Cuál es la canción con 
mas covers? ","Yesterday","Stand by me","","0","0","0","competitive","left","0.647604942322","1404.96207094","4.35239505768","1409.47190094","3.16509699821","1412.63705993","2.83490300179","1415.52213597","1416.92068887","1416.99077082","1419.99375081","0","1420.00794697","1424.17879295",""
"sujeto_0bf947ec","2","2","25","57","1424.34569287","direct","1","1","4","¿Cuánto duró la guerra
 de los 100 años?","116","123","","0","0","0","competitive","left","0.851819992065","1425.19762683","4.14818000793","1429.51531792","2.38170099258","1431.89706588","3.61829900742","1435.56529093","1437.04609394","1437.11791992","1440.12086987","0","1440.13483095","1442.45461082",""
"sujeto_0bf947ec","2","2","26","58","1442.58706689","inverse","4","1","4","¿Qué color tiene la  bandera de Brasil?","Amarillo","Naranja","left","0","0","1","competitive","left","0.68399810791","1443.27110791","4.31600189209","1447.74159098","2.72943210602","1450.47109389","3.27056789398","1453.79229379","1455.35882497","1455.44410181","1458.44686198","1","1458.46098995","1461.49379683",""
"sujeto_0bf947ec","2","2","27","59","1461.62955999","direct","4","1","3","¿Qué carabela de 
Colon no volvió del viaje?","Santa María","La pinta","","0","0","1","competitive","left","1.09549403191","1462.72509885","3.90450596809","1466.78476501","3.95931601524","1470.74414492","2.04068398476","1472.81971979","1474.31080389","1474.38682485","1477.38980794","0","1477.40397596","1479.50343895",""
"sujeto_0bf947ec","2","2","28","60","1479.67230392","inverse","4","1","4","¿Cuántos huesos tiene
 un adulto humano?","217","206","","0","0","1","competitive","right","0.781746864319","1480.45409799","4.21825313568","1484.82687688","2.83715581894","1487.66409302","3.16284418106","1490.87831187","1492.14934587","1492.22921896","1495.23081088","0","1495.2469089","1503.08461094",""
"sujeto_0bf947ec","2","2","29","61","1503.23574901","direct","1","1","1","¿Qué país africano fue 
fundado por esclavos?","Liberia","Chad","","0","0","0","competitive","left","0.773365974426","1504.009166","4.22663402557","1508.38679886","3.1452999115","1511.532161","2.8547000885","1514.42171288","1516.4133389","1516.4901998","1519.49317479","0","1519.50735998","1527.49821186",""
"sujeto_0bf947ec","2","2","30","62","1527.64209199","inverse","4","1","2","¿A cuánto asciende la cima
 del monte Everest?","7.990 mts","8.848 mts","","0","0","1","competitive","right","0.799019098282","1528.4411869","4.20098090172","1532.80181599","2.97129607201","1535.77318096","3.02870392799","1538.8526628","1540.0374949","1540.12054181","1543.12350297","0","1543.13765883","1550.32170486",""
"sujeto_0bf947ec","2","2","31","63","1550.49106288","direct","4","1","1","¿Cuál es el país mas chico?","Sealand","Luxemburgo","","1","1","1","competitive","right","0.744462966919","1551.23557901","4.25553703308","1555.66394091","2.41514587402","1558.07914901","3.58485412598","1561.71409678","1563.5776298","1563.64884901","1566.65088797","1","1566.66708088","1569.78933382",""
"sujeto_0bf947ec","2","2","32","64","1569.93569279","inverse","2","1","4","¿Cuántas pirámides hay en Egipto?","10000","11000","","1","1","1","competitive","right","1.05638217926","1570.99214387","3.94361782074","1575.09038401","2.97768712044","1578.06811285","3.02231287956","1581.12400198","1582.15759301","1582.22561598","1585.22688198","1","1585.24282384","1590.35086989",""
"sujeto_0bf947ec","2","3","1","65","1803.15522885","direct","2","1","2","¿Cuál es el quinto país con 
mas extensión?","Canadá","Brasil","","1","1","0","competitive","right","1.01097679138","1804.1662488","3.98902320862","1808.31091189","2.92533802986","1811.23631501","3.07466197014","1814.36087584","1815.69416785","1815.76263595","1818.76285386","1","1818.77946496","1826.50585485","1590.36547685"
"sujeto_0bf947ec","2","3","2","66","1826.63151884","inverse","1","1","2","¿Qué rasgo facial no tiene
 la Mona Lisa?","Cejas","Pómulos","","0","0","1","competitive","left","0.6927318573","1827.32431793","4.3072681427","1831.78975987","3.39348292351","1835.18328786","2.60651707649","1837.82317996","1839.57356596","1839.64074993","1842.64280891","0","1842.65878892","1848.93009782",""
"sujeto_0bf947ec","2","3","3","67","1849.07374597","direct","4","1","3","¿Cuál es el país con 
mayor población?","Esados Unidos","China","right","0","0","1","competitive","right","0.779528141022","1849.85337496","4.22047185898","1854.25034499","2.07394695282","1856.32436085","3.92605304718","1860.30146384","1861.94682598","1862.01993179","1865.02288485","1","1865.03784585","1868.40515399",""
"sujeto_0bf947ec","2","3","4","68","1868.53886199","inverse","1","1","1","La palabra dinosaurio significa","Lagarto Terrible","Lagarto Dragón","","1","1","0","competitive","left","0.585438013077","1869.124367","4.41456198692","1873.69409895","3.15316104889","1876.84732795","2.84683895111","1879.74500799","1880.91480899","1880.99632597","1883.99931979","1","1884.01341486","1886.8748548",""
"sujeto_0bf947ec","2","3","5","69","1887.014884","direct","2","1","3","¿Qué es el membrillero?","Arbol","Arbusto","","0","0","0","competitive","left","0.748461961746","1887.76341987","4.25153803825","1892.18693399","1.90030193329","1894.08730483","4.09969806671","1898.23749995","1900.19161701","1900.27208281","1903.27506685","0","1903.29031682","1909.75434089",""
"sujeto_0bf947ec","2","3","6","70","1909.92539001","inverse","3","1","3","¿Alrededor de qué planeta orbita 
el satélite Europa?","Jupiter","Saturno","","1","1","1","competitive","left","0.515872001648","1910.44133186","4.48412799835","1915.09955382","3.49971604347","1918.59931397","2.50028395653","1921.150105","1922.69491887","1922.76739383","1925.77037978","1","1925.78537893","1927.9905498",""
"sujeto_0bf947ec","2","3","7","71","1928.12037182","direct","3","1","1","¿Donde fue el mundial de 
fútbol de 1954?","Suiza","Suecia","","1","1","1","competitive","left","0.642951011658","1928.76338983","4.35704898834","1933.27171588","2.83557581902","1936.10735488","3.16442418098","1939.32410884","1940.57673883","1940.65868783","1943.66165185","1","1943.67577386","1947.58755398",""
"sujeto_0bf947ec","2","3","8","72","1947.76364398","inverse","1","1","4","¿Cuál de los 7 enanitos
no tenía barba?","Bashful","Mudito","","1","1","0","competitive","left","0.568659067154","1948.33234882","4.43134093285","1952.95146084","3.0758459568","1956.02737689","2.9241540432","1959.00229788","1960.58245087","1960.65319896","1963.65612888","1","1963.6713028","1968.59883285",""
"sujeto_0bf947ec","2","3","9","73","1968.73923588","direct","3","1","2","¿Cual red social es
mas utilizada mundialmente?","Instagram","Facebook","","1","1","0","competitive","left","0.704095840454","1969.443398","4.29590415955","1973.91244793","2.56286716461","1976.47537589","3.43713283539","1979.96257496","1981.879951","1981.96519279","1984.96813488","1","1984.98213291","1987.91483378",""
"sujeto_0bf947ec","2","3","10","74","1988.05014181","inverse","4","1","1","¿Cuándo se inició la copa
 América de fútbol?","1916","1923","","1","1","1","competitive","left","0.544196128845","1988.59440184","4.45580387115","1993.22017479","2.90116095543","1996.1213789","3.09883904457","1999.27244091","2001.16990685","2001.25774693","2004.25886202","1","2004.27575779","2006.93188596",""
"sujeto_0bf947ec","2","3","11","75","2007.06062293","direct","3","1","4","¿Cuántos presidentes de EEUU
han muerto asesinados?","3","4","","0","0","1","competitive","left","0.640698194504","2007.70138884","4.3593018055","2012.23164892","2.90266394615","2015.1343739","3.09733605385","2018.28299284","2019.76685381","2019.85157394","2022.85456491","0","2022.86878681","2026.51290083",""
"sujeto_0bf947ec","2","3","12","76","2026.65367079","inverse","2","1","4","¿Cuántas veces participó EEUU
 en la copa América?","4","5","","0","0","1","competitive","left","0.61573600769","2027.26947689","4.38426399231","2031.84203386","3.32235002518","2035.16444492","2.67764997482","2037.89374685","2039.3378489","2039.4106369","2042.41362381","0","2042.42883086","2048.54285097",""
"sujeto_0bf947ec","2","3","13","77","2048.6794939","direct","4","1","1","¿Cuál de estos países 
no formaba la URSS?","Azeribayán","Afganistán","","0","0","1","competitive","left","0.670873165131","2049.35041499","4.32912683487","2053.83708787","2.90824794769","2056.74538398","3.09175205231","2059.88783693","2061.20091391","2061.2721839","2064.27481985","0","2064.28982496","2072.2708478",""
"sujeto_0bf947ec","2","3","14","78","2072.4078238","inverse","1","1","1","¿En qué año se inauguró
 el teatro Solís?","1867","1856","","0","0","0","competitive","right","0.58056306839","2072.98845196","4.41943693161","2077.56301999","2.78929805756","2080.35238481","3.21070194244","2083.61483192","2084.67115378","2084.75008488","2087.75307679","0","2087.76707101","2094.41488099",""
"sujeto_0bf947ec","2","3","15","79","2094.55153298","direct","1","1","4","¿A qué velocidad vuela 
el avión más rápido?","3529","3874","","0","0","0","competitive","left","0.990918159485","2095.54256392","4.00908184052","2099.71055079","4.23983502388","2103.95042586","1.76016497612","2105.762146","2107.517663","2107.59586096","2110.59885883","0","2110.614151","2112.72442889",""
"sujeto_0bf947ec","2","3","16","80","2112.8650949","inverse","3","1","4","¿De qué año es la primer 
película cinematográfica?","1897","1888","","0","0","0","competitive","right","1.6402721405","2114.50543499","3.3597278595","2118.02080083","2.56559085846","2120.58643293","3.43440914154","2124.07048392","2125.20348001","2125.27248788","2128.27615094","0","2128.28964591","2133.69885588",""
"sujeto_0bf947ec","2","3","17","81","2133.84082294","direct","2","1","3","¿Cuántos países 
tiene nuestro planeta?","191","194","","1","1","1","competitive","right","0.652577161789","2134.49345279","4.34742283821","2138.99768901","2.35168600082","2141.34942079","3.64831399918","2145.04751801","2146.40471601","2146.48252702","2149.48551393","1","2149.50061083","2152.73892498",""
"sujeto_0bf947ec","2","3","18","82","2152.8680048","inverse","2","1","2","¿Cuántos habitantes
 tiene Buenos Aires?","2.9000.000","3650000","","0","0","0","competitive","left","0.863389015198","2153.73143888","4.1366109848","2158.02392387","3.57150793076","2161.59550095","2.42849206924","2164.07511091","2165.47235489","2165.5594399","2168.56242681","0","2168.57646585","2174.40586495",""
"sujeto_0bf947ec","2","3","19","83","2174.54471898","direct","2","1","1","¿Cuántos kilos forman una tonelada?","1000","1500","left","1","1","1","competitive","right","0.667682170868","2175.21244788","4.33231782913","2179.71866488","2.60372400284","2182.32243085","3.39627599716","2185.76822782","2187.65481186","2187.73733282","2190.738837","0","2190.75511479","2196.71247888",""
"sujeto_0bf947ec","2","3","20","84","2196.8567009","inverse","4","1","4","¿Cuántos estados tiene la 
República del Perú? ","24","23","","0","0","1","competitive","right","0.617749929428","2197.47452998","4.38225007057","2202.0129149","2.30556797981","2204.31854582","3.69443202019","2208.06391692","2209.08610797","2209.165416","2212.16838193","0","2212.18246984","2217.12777591",""
"sujeto_0bf947ec","2","3","21","85","2217.26779485","direct","3","1","3","¿En qué año nació Cristóbal Colón? ","1451","1447","","0","0","1","competitive","left","0.546634912491","2217.81447601","4.45336508751","2222.42347479","2.11999702454","2224.54351592","3.88000297546","2228.4741888","2230.32007599","2230.39215589","2233.3951509","0","2233.41009784","2237.63810396",""
"sujeto_0bf947ec","2","3","22","86","2237.77908993","inverse","4","1","4","¿Cuánto mide la 
Montaña Aconcagua? ","6234","6962","","0","0","1","competitive","right","0.60539317131","2238.38452983","4.39460682869","2242.95102191","2.73541498184","2245.68650699","3.26458501816","2249.00107384","2250.29041195","2250.37013197","2253.3731389","0","2253.38720489","2260.57084894",""
"sujeto_0bf947ec","2","3","23","87","2260.7045989","direct","2","1","4","¿Cuánto mide el punto
 más profundo del océano? ","12508","11003","","0","0","1","competitive","left","0.737848997116","2261.44251585","4.26215100288","2265.87961483","3.42681789398","2269.30649996","2.57318210602","2271.91359496","2273.16512299","2273.24854183","2276.25153899","0","2276.26584101","2280.47213197",""
"sujeto_0bf947ec","2","3","24","88","2280.61712599","inverse","1","1","3","¿Cuántos álbumes ha publicado 
el cantante Jaime Roos? ","41","34","","0","0","1","competitive","right","0.605370998383","2281.22260189","4.39462900162","2285.80695295","2.75449204445","2288.56148601","3.24550795555","2291.85752487","2293.34678793","2293.42525387","2296.42683101","0","2296.44289088","2302.63905978",""
"sujeto_0bf947ec","2","3","25","89","2302.77778888","direct","4","1","3","¿En qué año nació el 
ex-presidente Jorge Battle? ","1921","1927","","1","1","1","competitive","right","0.654732942581","2303.43257594","4.34526705742","2307.95044184","3.28407096863","2311.23457694","2.71592903137","2314.00193596","2315.73258591","2315.80369401","2318.80664802","1","2318.82112885","2322.30715299",""
"sujeto_0bf947ec","2","3","26","90","2322.45592785","inverse","1","1","3","¿Cuántas presidencias 
constitucionales  hubo en Uruguay? ","41","42","","0","0","1","competitive","right","0.660588979721","2323.11658192","4.33941102028","2327.62483883","2.99666309357","2330.62154388","3.00333690643","2333.65994883","2334.86277986","2334.94536781","2337.94832897","0","2337.96245384","2343.74609995",""
"sujeto_0bf947ec","2","3","27","91","2343.91391492","direct","1","1","2","¿Quién escribió mas sinfonías?","Mozart","Haydn","","1","1","0","competitive","left","0.746581792831","2344.66054797","4.25341820717","2349.08921695","2.44630503654","2351.53556681","3.55369496346","2355.12255788","2356.34004283","2356.4250958","2359.42808199","1","2359.44115186","2363.19256592",""
"sujeto_0bf947ec","2","3","28","92","2363.32658792","inverse","4","1","2","¿En qué año nació Michael Jackson?","1958","1953","","1","1","1","competitive","left","0.609919786453","2363.93655586","4.39008021355","2368.48203897","2.1464881897","2370.62859297","3.8535118103","2374.51615286","2376.49436784","2376.56833482","2379.57130694","1","2379.58526397","2385.44758487",""
"sujeto_0bf947ec","2","3","29","93","2385.58778191","direct","3","1","2","¿En qué año entró en vigencia 
la ley antitabaco en Uruguay?","2005","2006","","1","1","1","competitive","left","0.639741897583","2386.22757792","4.36025810242","2390.75855398","3.29898691177","2394.0575819","2.70101308823","2396.81056285","2398.40533495","2398.47859502","2401.48153996","1","2401.49651885","2406.83047986",""
"sujeto_0bf947ec","2","3","30","94","2406.96434188","inverse","3","1","1","¿Cuándo se subió el 
primer video a youtube?","2004","2005","","0","0","1","individual","left","0.804209947586","2407.76859784","4.19579005241","2412.137995","3.42955613136","2415.56759095","2.57044386864","2418.18909597","2419.494766","2419.54020381","2422.54317784","0","2422.55749989","2430.3131249",""
"sujeto_0bf947ec","2","3","31","95","2430.49675679","direct","2","1","1","¿Cuántos habitantes tiene India?","1200 millones","1300 millones","","0","0","0","competitive","left","0.712836027145","2431.20969486","4.28716397285","2435.66645694","3.25806808472","2438.92459488","2.74193191528","2441.71798682","2443.68685079","2443.76894784","2446.77193499","0","2446.78613091","2452.83077288",""
"sujeto_0bf947ec","2","3","32","96","2452.97216296","inverse","4","1","2","¿A qué edad murió Bob Marley?","36","37","","0","0","1","competitive","right","0.615432024002","2453.58764386","4.384567976","2458.128299","2.3642179966","2460.49258685","3.6357820034","2464.16181588","2466.05881691","2466.13057899","2469.1335609","0","2469.14877486","2472.25127602",""
"sujeto_0bf947ec","2","4","1","97","2593.24524784","direct","2","1","1","¿Cuantos años dirigió la selección 
uruguaya Tabarez?","15 años","13 años","","0","0","0","competitive","left","0.984334945679","2594.22964692","4.01566505432","2598.40117693","2.78339409828","2601.18463683","3.21660590172","2604.45129395","2605.64242601","2605.72009587","2608.72281885","0","2608.73694396","2615.8089788","2472.26649785"
"sujeto_0bf947ec","2","4","2","98","2615.97135282","inverse","4","1","1","¿Cuantas teclas tiene un teclado 
de computadora generalmente? ","Entre 99 y 108","Entre 109 y 113","","1","1","1","competitive","left","0.580306053162","2616.55172682","4.41969394684","2621.12875485","3.70387792587","2624.83267283","2.29612207413","2627.18021584","2628.18297195","2628.26501083","2631.26680684","1","2631.28185391","2633.65330291",""
"sujeto_0bf947ec","2","4","3","99","2633.79959893","direct","1","1","1","¿Cuál Departamento tiene
 mayor superficie?","Río Negro","Soriano","","0","0","0","competitive","left","1.06309199333","2634.86279392","3.93690800667","2638.93804598","2.88261795044","2641.82072496","3.11738204956","2644.98864388","2646.70210481","2646.77413082","2649.77487183","0","2649.79097486","2654.117064",""
"sujeto_0bf947ec","2","4","4","100","2654.259202","inverse","3","1","2","¿Cuál es el apellido de las 
hermanastras  de  cenicienta?","Tremaine","Truman","","0","0","1","competitive","left","0.637523889542","2654.89683199","4.36247611046","2659.41564393","2.92703104019","2662.34273601","3.07296895981","2665.44976187","2667.31880283","2667.40115094","2670.402807","0","2670.41890097","2673.11482787",""
"sujeto_0bf947ec","2","4","5","101","2673.25344896","direct","4","1","4","¿Cuál película ganó un
 Oscar a mejor película?","Alto Impacto","Cache","","0","0","1","competitive","left","0.848253011703","2674.10176992","4.1517469883","2678.42538285","3.03632307053","2681.461766","2.96367692947","2684.47607589","2685.59480882","2685.67809296","2688.6788168","0","2688.69479299","2690.95946288",""
"sujeto_0bf947ec","2","4","6","102","2691.09656501","inverse","1","1","3","¿A cuántos centímetros
equivale la medida pié?","25","30","","0","0","1","competitive","left","0.636215925217","2691.73284793","4.36378407478","2696.26774883","3.04690909386","2699.31472397","2.95309090614","2702.31827497","2703.3576498","2703.4364078","2706.43940687","0","2706.45355797","2711.854527",""
"sujeto_0bf947ec","2","4","7","103","2711.9884429","direct","2","1","2","¿Qué departamento es mas grande?","Cerro Largo","Paysandú","","0","0","0","competitive","right","0.601307868958","2712.589818","4.39869213104","2717.14472795","2.52897906303","2719.67377591","3.47102093697","2723.17880082","2724.77854586","2724.84760785","2727.85057402","0","2727.86477089","2731.9747448",""
"sujeto_0bf947ec","2","4","8","104","2732.11582184","inverse","2","1","3","¿Quién pintó la Mona Lisa?","Picasso","Da Vinci","right","0","0","1","competitive","right","0.645860910416","2732.76172996","4.35413908958","2737.2718699","1.88685798645","2739.15879202","4.11314201355","2743.3222208","2744.92678881","2745.007617","2748.010571","1","2748.02552986","2750.18786287",""
"sujeto_0bf947ec","2","4","9","105","2750.327389","direct","4","1","3","¿Cuántos litros hay en un galon?","3.54","3.78","","1","1","1","competitive","left","0.613322019577","2750.94077897","4.38667798042","2755.47860885","2.96512794495","2758.4437778","3.03487205505","2761.51382184","2763.03164983","2763.11557698","2766.118505","1","2766.13366485","2771.92600179",""
"sujeto_0bf947ec","2","4","10","106","2772.10160279","inverse","4","1","1","¿Cuántas teclas tiene
 un piano moderno?","80","88","","0","0","1","competitive","right","0.710162878036","2772.81183195","4.28983712196","2777.2590189","2.43673801422","2779.69582081","3.56326198578","2783.30986381","2784.31833982","2784.39556193","2787.39853382","0","2787.41163397","2794.20939994",""
"sujeto_0bf947ec","2","4","11","107","2794.3473599","direct","4","1","3","¿Cuántos países hay en África?","54","62","","0","0","1","competitive","left","0.746356964111","2795.09376192","4.25364303589","2799.52132297","2.59337997437","2802.11476493","3.40662002563","2805.55480886","2807.24537683","2807.32319379","2810.3261559","0","2810.340271","2818.14503384",""
"sujeto_0bf947ec","2","4","12","108","2818.29210281","inverse","1","1","3","¿En qué siglo se crearon
 las primeras pistolas?","XV","XIII","","1","1","1","competitive","right","0.833626031876","2819.12577796","4.16637396812","2823.46670294","3.3340651989","2826.80081296","2.6659348011","2829.51690888","2831.46482301","2831.53504086","2834.53801894","1","2834.55310583","2837.78618693",""
"sujeto_0bf947ec","2","4","13","109","2837.92120194","direct","3","1","4","¿En qué año se estrenó 
la serie friends?","1994","1995","","0","0","1","competitive","left","0.671532154083","2838.59278488","4.32846784592","2843.074265","2.7245259285","2845.7988379","3.2754740715","2849.12594891","2851.00127196","2851.07770491","2854.08066487","0","2854.09512591","2859.10115385",""
"sujeto_0bf947ec","2","4","14","110","2859.24618387","inverse","3","1","4","¿En qué año nació Hitler?","1889","1887","","0","0","1","competitive","right","0.732648849487","2859.97891188","4.26735115051","2864.40395784","3.06181788445","2867.46584582","2.93818211555","2870.43824983","2871.55261397","2871.63979793","2874.64278579","0","2874.65682888","2879.68381691",""
"sujeto_0bf947ec","2","4","15","111","2879.82548499","direct","1","1","4","¿Cuánto pesa un elefante Africano?","6000 kilos","5400 kilos","","0","0","0","competitive","right","0.640272140503","2880.46580195","4.3597278595","2884.99797988","2.41885995865","2887.41690397","3.58114004135","2891.04907894","2892.40497184","2892.48333287","2895.48632383","0","2895.50155282","2902.20862079",""
"sujeto_0bf947ec","2","4","16","112","2902.35241485","inverse","1","1","2","¿Qué porcentaje de 
la población es zurda?","10%","7%","","1","1","0","competitive","right","0.75337100029","2903.10583496","4.24662899971","2907.4934268","3.15235590935","2910.64582586","2.84764409065","2913.54359794","2914.7866919","2914.86172986","2917.86468792","1","2917.87973881","2923.85880089",""
"sujeto_0bf947ec","2","4","17","113","2923.9974668","direct","1","1","2","¿En qué año se estrenó
Volver al futuro?","1984","1985","","0","0","1","competitive","right","0.623646974564","2924.62124896","4.37635302544","2929.16935587","2.95949196815","2932.12889099","3.04050803185","2935.20440102","2936.76623297","2936.83936286","2939.84234786","0","2939.85723186","2946.94865799",""
"sujeto_0bf947ec","2","4","18","114","2947.09173799","inverse","3","1","2","¿Cuántos jugadores hay en un 
equipo de baseball?","9","8","","1","1","0","competitive","left","0.729079008102","2947.8208909","4.2709209919","2952.24674201","3.53205108643","2955.77885985","2.46794891357","2958.29851389","2959.91277099","2959.98336887","2962.98635197","1","2963.00163484","2967.978899",""
"sujeto_0bf947ec","2","4","19","115","2968.11966491","direct","2","1","1","¿Cuántos Oscar ganó
 la película titanic?","13","11","","1","1","1","competitive","right","1.2261660099","2969.34587979","3.7738339901","2973.27791786","3.00787401199","2976.28583789","2.99212598801","2979.3279748","2980.63004494","2980.71230578","2983.71529388","1","2983.7304709","2988.33315492",""
"sujeto_0bf947ec","2","4","20","116","2988.48196101","inverse","4","1","4","¿En qué año comenzó
la segunda guerra mundial?","1939","1976","left","0","0","1","competitive","right","0.572855949402","2989.05486393","4.4271440506","2993.63785696","3.35396504402","2996.99189091","2.64603495598","2999.68795586","3001.48779488","3001.57303882","3004.57486081","0","3004.59097099","3008.57812381",""
"sujeto_0bf947ec","2","4","21","117","3008.72544885","direct","2","1","4","¿Cuántos biomas hay en Uruguay?","5","4","","0","0","1","competitive","right","0.705451965332","3009.43095183","4.29454803467","3013.86469102","2.00512194633","3015.86987495","3.99487805367","3019.91486001","3021.71216893","3021.78372788","3024.78663778","0","3024.80067086","3031.04721594",""
"sujeto_0bf947ec","2","4","22","118","3031.1854918","inverse","2","1","3","¿Cuándo murió Pablo Escobar?","1993","1997","","1","1","1","competitive","right","0.537359952927","3031.7229178","4.46264004707","3036.3594048","3.2383980751","3039.59787297","2.7616019249","3042.40995789","3044.19278598","3044.26181698","3047.26476097","1","3047.27876687","3052.9824369",""
"sujeto_0bf947ec","2","4","23","119","3053.1644268","direct","1","1","4","¿Qué serie ha ganado mas premios?","Friends","Murphy Brown","","1","1","0","competitive","left","0.690412044525","3053.85490489","4.30958795547","3058.3369329","2.22995495796","3060.566957","3.77004504204","3064.38730288","3065.73970699","3065.82326984","3068.82625484","1","3068.840518","3074.40213895",""
"sujeto_0bf947ec","2","4","24","120","3074.54138398","inverse","4","1","2","¿Cuántas fichas tiene el dominó?","26","28","","1","1","1","competitive","right","0.591620922089","3075.13311982","4.40837907791","3079.69841599","2.19945311546","3081.89793897","3.80054688454","3085.74838686","3086.80369401","3086.88400698","3089.88700581","1","3089.90115786","3095.14426088",""
"sujeto_0bf947ec","2","4","25","121","3095.28547287","direct","2","1","4","¿Cuántos son los dientes de leche?","20","25","","0","0","1","competitive","left","0.676431894302","3095.96195102","4.3235681057","3100.44249392","2.50546693802","3102.94803095","3.49453306198","3106.49312782","3108.20350599","3108.27845788","3111.28143692","0","3111.29540396","3113.44112301",""
"sujeto_0bf947ec","2","4","26","122","3113.58034992","inverse","3","1","3","¿Cuántos gramos son una onza?","22","28","","0","0","1","competitive","left","1.62760996819","3115.208004","3.37239003181","3118.73650098","2.1014111042","3120.83795285","3.8985888958","3124.78579187","3126.77886391","3126.854357","3129.85483885","0","3129.87223101","3136.15880489",""
"sujeto_0bf947ec","2","4","27","123","3136.32347488","direct","3","1","1","¿Cuándo salió el primer album
 de los Beatles?","1963","1962","","1","1","1","competitive","left","0.659419059753","3136.98293686","4.34058094025","3141.49701381","3.18390607834","3144.68096185","2.81609392166","3147.547858","3148.71149302","3148.7820878","3151.78500986","1","3151.79930687","3155.57083201",""
"sujeto_0bf947ec","2","4","28","124","3155.70104885","inverse","3","1","3","¿Quién fundó la empresa apple?","Carlos Slim","Steve Jobs","","1","1","1","competitive","right","0.632845878601","3156.33396101","4.3671541214","3160.87363195","2.17631912231","3163.04998994","3.82368087769","3166.90716982","3168.02180099","3168.09286785","3171.09583497","1","3171.10985589","3177.40771794",""
"sujeto_0bf947ec","2","4","29","125","3177.54455781","direct","4","1","2","¿Cuántos municipios hay
 en Montevideo?","8","7","","1","1","1","competitive","left","0.707420110703","3178.2520299","4.2925798893","3182.69875383","2.15914702415","3184.8579638","3.84085297585","3188.750144","3190.66490889","3190.75289583","3193.7558589","1","3193.76980686","3195.8509419",""
"sujeto_0bf947ec","2","4","30","126","3195.9878509","inverse","1","1","1","¿Cuántos kilómetros hay
 de Montevideo a Artigas?","632","599","","0","0","0","competitive","left","0.749137878418","3196.7370348","4.25086212158","3201.14376783","3.03621196747","3204.18004894","2.96378803253","3207.19455385","3208.67772198","3208.76323199","3211.76622796","0","3211.78043795","3217.83082986",""
"sujeto_0bf947ec","2","4","31","127","3217.99853683","direct","2","1","2","¿En qué año nació 
Leonardo Da Vinci?","1452","1511","","1","1","0","competitive","left","0.809463024139","3218.80804586","4.19053697586","3223.17264295","1.9083340168","3225.08104086","4.0916659832","3229.22274899","3231.07637286","3231.15777397","3234.160743","1","3234.17596197","3237.32237983",""
"sujeto_0bf947ec","2","4","32","128","3237.46089387","inverse","3","1","1","¿A qué continente
 pertenece el país Gabón?","Africa","Oceanía","","0","0","1","competitive","left","0.65158700943","3238.11253595","4.34841299057","3242.61574292","3.43325281143","3246.04903579","2.56674718857","3248.66605186","3250.47771096","3250.55122089","3253.55420184","0","3253.56838679","3258.80282283",""
