"code","nro_aplicante","nro_bloque","nro_trial_bloque","nro_trial_global","show_game_type","choice_order","rival","pay_individual","pay_competitive","question","answer_left_text","answer_right_text","correct_answer","outcome_individual","outcome_competitive","outcome_rival","game_type","answer","social_time","rt_game_type","feedback_delay","show_question","answer_time","rt_answer_global","feedback_delay_2","show_jitter","jitter_time","show_outcome","outcome_time","outcome_participant_real","show_final_jitter","second_jitter_time","inicio_descanso"
"sujto_e9ec652d","1","1","1","1","440.179898977","direct","3","1","4","¿Cuántos centímetros corresponden
al talle 36 del calzado?","23","24","","0","0","1","competitive","right","2.19071698189","442.370656967","2.80928301811","445.325754166","3.56183791161","448.887661934","2.43816208839","451.35889101","452.387181997","452.4602561","455.463238001","0","455.477306128","457.639832973",""
"sujto_e9ec652d","1","1","2","2","457.779543161","inverse","3","1","2","¿Cuántas metros mide la Intendencia
Municipal de Montevideo? ","84","78","","0","0","1","competitive","left","1.25114417076","459.030753136","3.74885582924","462.935163975","3.21949601173","466.154726982","2.78050398827","468.984761","470.862771988","470.937040091","473.940024137","0","473.953964949","476.046724081",""
"sujto_e9ec652d","1","1","3","3","476.172858","direct","1","1","3","¿Cuántas La Pasiva
 hay en uruguay?","15","11","","1","1","1","competitive","left","2.00581288338","478.178740978","2.99418711662","481.312205076","2.94057202339","484.252819061","3.05942797661","487.362164021","488.973821163","489.046025991","492.048995018","1","492.064116955","496.342478991",""
"sujto_e9ec652d","1","1","4","4","496.481910944","inverse","3","1","3","¿De que color es la camiseta de uruguay?","blanca","celeste","right","1","1","1","competitive","right","1.39090800285","497.872880936","3.60909199715","501.638281107","1.90458297729","503.54293108","4.09541702271","507.688217163","508.892982006","508.97330904","511.976274014","1","511.991181135","515.445101023",""
"sujto_e9ec652d","1","1","5","5","515.575719118","direct","2","1","1","¿Cuánto metros mide
la torre Eiffel?","333","324","","1","1","1","competitive","left","1.43822693825","517.013994932","3.56177306175","520.744838953","2.94805693626","523.692955971","3.05194306374","526.779587984","528.300972939","528.381685972","531.384662151","1","531.398884058","538.43554616",""
"sujto_e9ec652d","1","1","6","6","538.570800066","inverse","3","1","4","¿Cuantas ciudades existen
 en todo el uruguay?","63","72","","0","0","1","competitive","right","1.32623291016","539.897081137","3.67376708984","543.727082968","2.680975914","546.408102036","3.319024086","549.777178049","550.831992149","550.911631107","553.91459012","0","553.928743124","561.555333138",""
"sujto_e9ec652d","1","1","7","7","561.697340965","direct","1","1","1","¿Cuantos estados tiene África?","52","54","","1","1","0","competitive","right","1.2037229538","562.90113306","3.7962770462","566.838787079","2.26831817627","569.107144117","3.73168182373","572.88896513","574.752977133","574.824280024","577.82725215","1","577.841496944","583.602524996",""
"sujto_e9ec652d","1","1","8","8","583.743010998","inverse","4","1","4","¿En qué año nació
 Stephen Hawking?","1952","1942","","0","0","1","competitive","right","1.13823699951","584.881317139","3.86176300049","588.900840044","2.81143498421","591.712337971","3.18856501579","594.933921099","596.378179073","596.452011108","599.454977989","0","599.469835997","605.569175959",""
"sujto_e9ec652d","1","1","9","9","605.704595089","direct","2","1","3","¿Cuánto años tenía Artigas
 cuando se fue a Paraguay?","56","57","","1","1","1","competitive","right","0.944764137268","606.649430037","4.05523586273","610.859357119","4.54201197624","615.401409149","1.45798802376","616.895339012","618.444780111","618.530004978","621.532984018","1","621.547032118","627.594316959",""
"sujto_e9ec652d","1","1","10","10","627.731678963","inverse","1","1","2","¿Cuantos milímetros 
mide una hoja A2?","420x592","420x594","","0","0","1","competitive","right","1.03483200073","628.766555071","3.96516799927","632.906053066","4.63332986832","637.539417982","1.36667013168","638.958024979","640.526448011","640.607922077","643.610898018","0","643.626058102","650.699692011",""
"sujto_e9ec652d","1","1","11","11","650.827553034","direct","3","1","3","¿Cuál es la menor temperatura 
registrada en Uruguay?","-5.4","-7.4","","0","0","1","competitive","left","1.41402983665","652.241632938","3.58597016335","655.984248161","3.72233891487","659.706632137","2.27766108513","662.035504103","663.717529058","663.803872108","666.806857109","0","666.821066141","670.554358006",""
"sujto_e9ec652d","1","1","12","12","670.689319134","inverse","2","1","2","¿Cuantos años hace que 
se fundó facebook?","18","17","","0","0","0","competitive","left","0.969418048859","671.658785105","4.03058195114","675.844902039","2.94982385635","678.794767141","3.05017614365","681.89556694","683.268311024","683.346850157","686.349826097","0","686.364984989","689.139572144",""
"sujto_e9ec652d","1","1","13","13","689.266767025","direct","1","1","4","¿Cuál animal es más
 pesado en promedio?","Rinoceronte","Hipopotamo","","0","0","0","competitive","right","1.1970410347","690.463850975","3.8029589653","694.468780041","4.46205282211","698.930878162","1.53794717789","700.505156994","701.584403038","701.656042099","704.658554077","0","704.672487974","708.513499975",""
"sujto_e9ec652d","1","1","14","14","708.641126156","inverse","1","1","2","¿Qué personaje de dragon ball 
murió más veces?","Chaoz","Krillin","","1","1","0","competitive","right","1.15682697296","709.798020124","3.84317302704","713.79856205","3.7062959671","717.504893064","2.2937040329","719.849825144","721.307642937","721.383319139","724.386301994","1","724.40150404","732.174440145",""
"sujto_e9ec652d","1","1","15","15","732.302119017","direct","3","1","2","La universidad de oxford. 
existe desde:","1096","1249","","1","1","0","competitive","right","1.22691488266","733.529096127","3.77308511734","737.444354057","3.56173992157","741.00613904","2.43826007843","743.477980137","744.526800156","744.595663071","747.598644972","1","747.612828016","754.303676128",""
"sujto_e9ec652d","1","1","16","16","754.431484938","inverse","3","1","1","¿Qué escritor latino ganó antes
 el premio nobel?"," García Marquez","Neruda","","0","0","1","competitive","right","0.984700918198","755.416288137","4.0152990818","759.621618986","3.4395570755","763.061234951","2.5604429245","765.672733068","767.412708998","767.490646124","770.493622065","0","770.508445978","773.966542006",""
"sujto_e9ec652d","1","1","17","17","774.109488964","direct","4","1","3","¿Cuántos dientes tiene un
 tiburón blanco?","6000","3000","","0","0","1","individual","left","0.871928930283","774.981528997","4.12807106972","779.296127081","2.76317405701","782.059360981","3.23682594299","785.331362009","786.370311975","786.416687012","789.41852212","0","789.433576107","794.243227959",""
"sujto_e9ec652d","1","1","18","18","794.384772062","inverse","4","1","1","¿Cuánto mide el paralelo Ecuador?","40.000km","70.000km","","0","0","1","competitive","right","1.12361192703","795.508428097","3.87638807297","799.526049137","4.18137407303","803.707463026","1.81862592697","805.57765913","807.533760071","807.611694098","810.614505053","0","810.629652977","814.232242107",""
"sujto_e9ec652d","1","1","19","19","814.380954027","direct","4","1","2","¿Cuál fue el primer libro 
de Stephen King?","Carrie","The Stand","","1","1","1","competitive","right","1.13557100296","815.516569138","3.86442899704","819.553260088","3.38723707199","822.94055295","2.61276292801","825.603896141","827.346505165","827.421951056","830.424906969","1","830.440093994","834.914481163",""
"sujto_e9ec652d","1","1","20","20","835.041305065","inverse","2","1","3","¿Qué civilización practicaba
 la momificación?","Grecia","Egipto","right","0","0","1","competitive","right","1.77134990692","836.812721968","3.22865009308","840.211703062","3.07293796539","843.284682989","2.92706203461","846.26305294","848.200906992","848.281254053","851.284229994","1","851.299383163","855.528177977",""
"sujto_e9ec652d","1","1","21","21","855.667510986","direct","4","1","4","¿Cuántos millones de visitas
 recibe google por minuto?","3.0","4.5","","0","0","1","competitive","right","1.74036192894","857.407923937","3.25963807106","860.825288057","3.89958190918","864.724938154","2.10041809082","866.875956059","868.390516996","868.476742029","871.478554964","0","871.494742155","878.617419958",""
"sujto_e9ec652d","1","1","22","22","878.746686935","inverse","1","1","3","La máquina de fax. se inventó en:","1843","1960","","0","0","1","competitive","right","1.0032889843","879.750020027","3.9967110157","883.903685093","2.42128014565","886.325026035","3.57871985435","889.954348087","891.196449041","891.272240162","894.275177956","0","894.289338112","897.52564311",""
"sujto_e9ec652d","1","1","23","23","897.657906055","direct","2","1","4","En la verdadera historia de los
 300 espartanos. habían:","300 soldados","4300 soldados","","1","1","1","competitive","left","1.16418790817","898.822139025","3.83581209183","902.813951015","5.1661028862","907.980113983","0.8338971138","908.865658998","910.126542091","910.198591948","913.201575041","1","913.216629028","917.018396139",""
"sujto_e9ec652d","1","1","24","24","917.151107073","inverse","1","1","4","¿Cuántos milímetros crece
 el pelo por día?","0.4","0.04","","0","0","0","competitive","left","1.01303911209","918.164211035","3.98696088791","922.304085016","4.39313602448","926.697288036","1.60686397552","928.340101004","930.100830078","930.173802137","933.176777124","0","933.191893101","939.926998138",""
"sujto_e9ec652d","1","1","25","25","940.109550953","direct","4","1","1","¿Cuánto mide la baldosa gris 
clásica de Montevideo?","22x22 cm.","20x20 cm.","","1","1","1","competitive","right","1.04373693466","941.153362989","3.95626306534","945.265700102","3.13762402534","948.403367043","2.86237597466","951.318206072","953.313439131","953.386160135","956.387980938","1","956.404133081","961.946936131",""
"sujto_e9ec652d","1","1","26","26","962.072242022","inverse","2","1","2","¿Cuántas películas de rápidos
 y furiosos hay?","10","11","","1","1","0","competitive","left","1.02419304848","963.096498966","3.97580695152","967.246142149","3.02437210083","970.270575047","2.97562789917","973.297693968","974.655719042","974.732624054","977.735610008","1","977.749801159","979.784502029",""
"sujto_e9ec652d","1","1","27","27","979.934921026","direct","3","1","1","¿Cuántos masters 1000
 ganó Del Potro?","1","2","","1","1","1","competitive","right","1.15764284134","981.092607975","3.84235715866","985.089475155","4.70917606354","989.798714161","1.29082393646","991.124660015","992.878491163","992.958824158","995.961750031","1","995.975723982","1003.37060404",""
"sujto_e9ec652d","1","1","28","28","1003.51122808","inverse","2","1","4","¿Cuántos meses dura el 
embarazo de una leona?","3 meses","4 meses","","0","0","1","competitive","right","1.25256299973","1004.76385999","3.74743700027","1008.66859508","3.56323122978","1012.23186612","2.43676877022","1014.71940613","1015.83049798","1015.90451503","1018.90654206","0","1018.92143011","1025.64387798",""
"sujto_e9ec652d","1","1","29","29","1025.77301693","direct","1","1","1","¿En qué año fue creado
 el sandwich?","1762","1653","","1","1","0","competitive","right","1.52790808678","1027.30099297","3.47209191322","1030.927109","2.90083193779","1033.82800913","3.09916806221","1036.97833109","1038.576864","1038.66409898","1041.66708493","1","1041.68075204","1045.15139103",""
"sujto_e9ec652d","1","1","30","30","1045.3328011","inverse","4","1","2","El nombre de la moneda de Vietnam es:","Dinar","Dong","","0","0","1","competitive","right","1.0742650032","1046.4071281","3.9257349968","1050.48997903","5.30710792542","1055.79713011","0.692892074585","1056.52511716","1057.95709205","1058.04191613","1061.04490995","0","1061.05912995","1067.227566",""
"sujto_e9ec652d","1","1","31","31","1067.36152601","direct","2","1","1","¿cuantos aleteos puede dar 
un colibrí por segundo?","120","50","","0","0","0","competitive","right","1.12568187714","1068.48727512","3.87431812286","1072.50221896","4.97504210472","1077.47732902","1.02495789528","1078.53692508","1080.26931214","1080.35431004","1083.35519505","0","1083.37122416","1087.58349705",""
"sujto_e9ec652d","1","1","32","32","1087.72276998","inverse","4","1","3","¿Qué altura promedio tienen
 los hombres uruguayos?","1.73 m","1.72 m","","1","1","1","individual","right","1.5955760479","1089.31839609","3.4044239521","1092.89648414","4.3979010582","1097.29447699","1.6020989418","1098.946841","1100.20925713","1100.24688911","1103.249861","1","1103.26478004","1107.74071598",""
"sujto_e9ec652d","1","2","1","33","1255.2627151","direct","1","1","1","¿En qué año nació 
el actor Bradd Pitt?","1967","1963","","1","1","1","competitive","left","1.32882905006","1256.59160399","3.67117094994","1260.41373396","3.82786297798","1264.24165511","2.17213702202","1266.44973302","1267.54558301","1267.63348007","1270.63453412","1","1270.65070915","1276.57830715","1107.75215101"
"sujto_e9ec652d","1","2","2","34","1276.71922302","inverse","2","1","1","¿Cual es el segundo 
monte más alto?","Kanchenjunga","K2","","1","1","1","competitive","left","1.37241292","1278.0916791","3.62758708","1281.86083603","5.18589282036","1287.04677415","0.814107179642","1287.91269493","1289.36508608","1289.44595098","1292.44893193","1","1292.46420598","1295.89408207",""
"sujto_e9ec652d","1","2","3","35","1296.03211403","direct","3","1","1","¿Cuándo finalizó la construcción
 del Palacio Legislativo?","1925","1917","","0","0","1","competitive","right","1.05774283409","1297.08990097","3.94225716591","1301.20450401","4.27732682228","1305.48189497","1.72267317772","1307.23880005","1308.88048911","1308.95630312","1311.95928407","0","1311.97340012","1317.67094302",""
"sujto_e9ec652d","1","2","4","36","1317.80888414","inverse","3","1","3","¿Cuántos integrantes tenía
 en su inicio  el cuarteto de nos?","3","4","","1","1","1","competitive","right","1.07713294029","1318.8860631","3.92286705971","1322.96653914","3.69449305534","1326.66109705","2.30550694466","1328.99971795","1330.132828","1330.21799493","1333.22095394","1","1333.23491812","1338.88473415",""
"sujto_e9ec652d","1","2","5","37","1339.01997113","direct","2","1","3","¿Qué valor tiene el número pi?","3.14","4.18","left","0","0","1","competitive","left","1.28313612938","1340.30315304","3.71686387062","1344.17476511","2.38845705986","1346.56326103","3.61154294014","1350.22516298","1351.67939711","1351.76098514","1354.76399112","1","1354.77811909","1361.69910502",""
"sujto_e9ec652d","1","2","6","38","1361.82967114","inverse","2","1","2","¿Cuál es la esperanza de vida
 en Uruguay?","75","77","","1","1","0","competitive","left","1.08063101768","1362.91037703","3.91936898232","1366.98878813","2.84959602356","1369.83843994","3.15040397644","1373.03876901","1374.69258499","1374.77442503","1377.77739215","1","1377.79154801","1384.25454712",""
"sujto_e9ec652d","1","2","7","39","1384.39332795","direct","1","1","2","¿Cuantos pisos tiene la torre 
de las comunicaciones?","26","32","","1","1","0","competitive","right","1.0641810894","1385.45761704","3.9358189106","1389.55135608","3.14209508896","1392.69350696","2.85790491104","1395.60164905","1397.43043995","1397.50248098","1400.50543714","1","1400.52052116","1402.66655397",""
"sujto_e9ec652d","1","2","8","40","1402.80576396","inverse","2","1","4","¿En qué país sudamericano 
no hay McDonalds?","Bolivia","Venezuela","","0","0","1","competitive","right","1.12991905212","1403.93572807","3.87008094788","1407.9605701","5.73607110977","1413.69668198","0.263928890228","1414.01255393","1415.32188201","1415.39545202","1418.39846611","0","1418.413306","1424.77058315",""
"sujto_e9ec652d","1","2","9","41","1424.91424108","direct","3","1","1","¿En qué año empieza
 la Edad Media?","476","512","","1","1","1","competitive","right","0.994515180588","1425.90882707","4.00548481941","1430.06873798","5.21105504036","1435.27985311","0.788944959641","1436.10543394","1437.50916195","1437.58897114","1440.59195709","1","1440.60614014","1443.59471011",""
"sujto_e9ec652d","1","2","10","42","1443.72442102","inverse","3","1","4","¿Hace cuántos años surgió
 el ser humano?","200mil","300mil","","0","0","0","competitive","right","1.20152497292","1444.92599106","3.79847502708","1448.88206816","4.78692102432","1453.66905093","1.21307897568","1454.93313694","1456.81850505","1456.9003861","1459.90333509","0","1459.91747713","1463.22790504",""
"sujto_e9ec652d","1","2","11","43","1463.35268497","direct","3","1","4","¿Cuántas cuadras tiene
 actualmente 18 de julio? ","36","33","","0","0","1","competitive","left","1.57344508171","1464.9261961","3.42655491829","1468.49199009","3.16615819931","1471.65820694","2.83384180069","1474.54220796","1476.24447799","1476.32772899","1479.33070111","0","1479.34467602","1484.07098699",""
"sujto_e9ec652d","1","2","12","44","1484.19631815","inverse","1","1","4","¿Qué juego de equipo se 
considera mas rápido?","Lacrosse","Badminton","","0","0","0","competitive","left","1.04991006851","1485.24627209","3.95008993149","1489.34961796","4.11465001106","1493.46430802","1.88534998894","1495.40186715","1496.64497805","1496.71960306","1499.72254205","0","1499.73758912","1507.73054099",""
"sujto_e9ec652d","1","2","13","45","1507.85508394","direct","1","1","3","¿Qué promedio de edad 
vive una jirafa? ","25","20","","0","0","1","competitive","right","1.23846101761","1509.09361815","3.76153898239","1512.998806","2.86776089668","1515.86662698","3.13223910332","1519.04854703","1520.81007004","1520.88371611","1523.88670897","0","1523.90076709","1529.85649395",""
"sujto_e9ec652d","1","2","14","46","1529.98616409","inverse","1","1","2","¿Cuántos grandes lagos hay?","7","5","","0","0","1","competitive","left","1.08149909973","1531.0677321","3.91850090027","1535.12687302","3.84886193275","1538.975775","2.15113806725","1541.16052794","1542.45261002","1542.52918506","1545.53216505","0","1545.546345","1553.36654615",""
"sujto_e9ec652d","1","2","15","47","1553.49746704","direct","3","1","2","¿Cuántos discos de estudio
 grabó Johhny Cash? ","54","43","","1","1","0","competitive","right","1.03049898148","1554.52803397","3.96950101852","1558.65566015","3.37436890602","1562.03008699","2.62563109398","1564.705971","1565.98461294","1566.057127","1569.06007004","1","1569.07431698","1575.72518396",""
"sujto_e9ec652d","1","2","16","48","1575.85921097","inverse","4","1","1","¿Cuántos barrios tiene
 Montevideo? ","71","62","","0","0","1","competitive","left","1.51101303101","1577.37026906","3.48898696899","1581.01788807","2.6223487854","1583.64029813","3.3776512146","1587.06789804","1588.07498908","1588.15403414","1591.15454412","0","1591.17048097","1596.63246512",""
"sujto_e9ec652d","1","2","17","49","1596.77128696","direct","3","1","3","¿Qué edad tiene Homero Simpson?","36","42","","0","0","1","competitive","left","1.01309394836","1597.78444695","3.98690605164","1601.925354","5.40713500977","1607.33255816","0.592864990234","1607.96203399","1609.33799911","1609.41209602","1612.41507912","0","1612.43007302","1616.81882501",""
"sujto_e9ec652d","1","2","18","50","1616.96460915","inverse","4","1","2","¿Cuántos países con monarquía 
hay en europa actualmente? ","6","10","","1","1","1","competitive","left","0.959959983826","1617.92461801","4.04004001617","1622.15504599","3.80155491829","1625.95664597","2.19844508171","1628.20619702","1629.64444995","1629.72389317","1632.72687912","1","1632.741153","1638.89455914",""
"sujto_e9ec652d","1","2","19","51","1639.02694798","direct","2","1","3","¿Cuántos capítulos de
 Friends existen? ","236","228","","1","1","1","competitive","right","1.38381886482","1640.41081309","3.61618113518","1644.18393517","3.70587491989","1647.88986707","2.29412508011","1650.23506212","1651.54063511","1651.61974812","1654.62273502","1","1654.63696098","1657.01260495",""
"sujto_e9ec652d","1","2","20","52","1657.15459204","inverse","1","1","3","¿Cuántas óperas compuso Mozart? ","27","22","","1","1","1","competitive","right","0.949373960495","1658.10403204","4.05062603951","1662.30978012","2.88715314865","1665.19699097","3.11284685135","1668.36028099","1669.65243602","1669.72931695","1672.73229194","1","1672.746207","1680.05769205",""
"sujto_e9ec652d","1","2","21","53","1680.19777298","direct","4","1","3","¿Cuántos mundiales de fútbol 
femenino ha realizado FIFA? ","9","7","","1","1","1","competitive","right","0.928426980972","1681.12628198","4.07157301903","1685.35255814","3.46866798401","1688.82126999","2.53133201599","1691.40525007","1692.64896798","1692.72327209","1695.726228","1","1695.74027705","1701.84273911",""
"sujto_e9ec652d","1","2","22","54","1701.97477913","inverse","3","1","2","¿Cuál es la temperatura 
media anual en Montevideo? ","17.5","16.3","","0","0","1","competitive","right","0.950625181198","1702.92547202","4.0493748188","1707.166224","3.72119498253","1710.88747716","2.27880501747","1713.21809411","1715.15665007","1715.23512506","1718.23810601","0","1718.25331306","1724.82284713",""
"sujto_e9ec652d","1","2","23","55","1724.95478415","direct","2","1","2","¿En qué año se estrenó el
 videojuego The Sims? ","2000","2002","","0","0","0","competitive","left","1.42278909683","1726.37764215","3.57721090317","1730.111974","3.45467686653","1733.56669497","2.54532313347","1736.16294909","1738.02497697","1738.09822512","1741.10120702","0","1741.11544013","1748.50656009",""
"sujto_e9ec652d","1","2","24","56","1748.649405","inverse","2","1","1","¿Cuál es la canción con 
mas covers? ","Yesterday","Stand by me","","0","0","0","competitive","right","1.18748402596","1749.83694005","3.81251597404","1753.7916081","5.25827503204","1759.049927","0.741724967957","1759.82622194","1761.22476602","1761.31027007","1764.31325102","0","1764.32738113","1768.49821806",""
"sujto_e9ec652d","1","2","25","57","1768.64541006","direct","1","1","4","¿Cuánto duró la guerra
 de los 100 años?","116","123","","0","0","0","competitive","right","1.02566695213","1769.67120695","3.97433304787","1773.80130911","5.33677101135","1779.13811994","0.663228988647","1779.85336995","1781.3341291","1781.40370798","1784.40654206","0","1784.42142296","1786.74116397",""
"sujto_e9ec652d","1","2","26","58","1786.88995504","inverse","4","1","4","¿Qué color tiene la  bandera de Brasil?","Amarillo","Naranja","left","0","0","1","competitive","left","1.06623196602","1787.95625114","3.93376803398","1792.06121993","2.62502908707","1794.68629098","3.37497091293","1798.11147404","1799.67800808","1799.76315904","1802.76614594","1","1802.78036499","1805.81276011",""
"sujto_e9ec652d","1","2","27","59","1805.94897509","direct","4","1","3","¿Qué carabela de 
Colon no volvió del viaje?","Santa María","La pinta","","0","0","1","competitive","","1.03346800804","1806.98252606","3.96653199196","1811.13817","6","1817.13831401","0","1817.15353203","1818.64458203","1818.72326708","1821.72624898","0","1821.740412","1823.83986712",""
"sujto_e9ec652d","1","2","28","60","1823.99230599","inverse","4","1","4","¿Cuántos huesos tiene
 un adulto humano?","217","206","","0","0","1","competitive","right","1.28826403618","1825.28063202","3.71173596382","1829.13103104","2.2705488205","1831.40162516","3.7294511795","1835.18084598","1836.45185709","1836.53349209","1839.53648305","0","1839.54969311","1847.38652897",""
"sujto_e9ec652d","1","2","29","61","1847.51811814","direct","1","1","1","¿Qué país africano fue 
fundado por esclavos?","Liberia","Chad","","0","0","0","competitive","left","0.976027011871","1848.49419212","4.02397298813","1852.67304516","3.26475214958","1855.93783808","2.73524785042","1858.72508907","1860.7167201","1860.79395008","1863.79692602","0","1863.81121302","1871.80206513",""
"sujto_e9ec652d","1","2","30","62","1871.96300602","inverse","4","1","2","¿A cuánto asciende la cima
 del monte Everest?","7.990 mts","8.848 mts","","0","0","1","competitive","right","1.07795381546","1873.04102397","3.92204618454","1877.13926101","4.22982001305","1881.36912203","1.77017998695","1883.19036698","1884.37449694","1884.45835614","1887.46137404","0","1887.47543406","1894.65949011",""
"sujto_e9ec652d","1","2","31","63","1894.79367304","direct","4","1","1","¿Cuál es el país mas chico?","Sealand","Luxemburgo","","1","1","1","competitive","right","0.904495954514","1895.69823503","4.09550404549","1899.95053506","3.24368286133","1903.19427609","2.75631713867","1905.98493004","1907.848454","1907.91961503","1910.92260003","1","1910.93787098","1914.06016803",""
"sujto_e9ec652d","1","2","32","64","1914.20593214","inverse","2","1","4","¿Cuántas pirámides hay en Egipto?","10000","11000","","1","1","1","competitive","left","0.824532032013","1915.03057313","4.17546796799","1919.37811708","3.26123380661","1922.63941216","2.73876619339","1925.41157103","1926.44513512","1926.53016901","1929.53314209","1","1929.5471251","1934.65619016",""
"sujto_e9ec652d","1","3","1","65","2073.53935099","direct","2","1","2","¿Cuál es el quinto país con 
mas extensión?","Canadá","Brasil","","1","1","0","competitive","left","1.74548387527","2075.28489995","3.25451612473","2078.69536805","3.37253594398","2082.06794906","2.62746405602","2084.74493814","2086.07822895","2086.16391611","2089.16649795","1","2089.18060708","2096.90694904","1934.66761208"
"sujto_e9ec652d","1","3","2","66","2097.08196902","inverse","1","1","2","¿Qué rasgo facial no tiene
 la Mona Lisa?","Cejas","Pómulos","","0","0","1","competitive","","0.834098815918","2097.91618395","4.16590118408","2102.24048495","6","2108.24062109","0","2108.25547504","2110.00588608","2110.07533312","2113.07831597","0","2113.09356093","2119.36253905",""
"sujto_e9ec652d","1","3","3","67","2119.51152301","direct","4","1","3","¿Cuál es el país con 
mayor población?","Esados Unidos","China","right","0","0","1","competitive","right","0.688806056976","2120.20040703","4.31119394302","2124.6690321","2.25428915024","2126.923388","3.74571084976","2130.71879697","2132.36477804","2132.43792605","2135.43854713","1","2135.45482397","2138.82215405",""
"sujto_e9ec652d","1","3","4","68","2138.97329211","inverse","1","1","1","La palabra dinosaurio significa","Lagarto Terrible","Lagarto Dragón","","1","1","0","competitive","right","0.988183021545","2139.96155405","4.01181697845","2144.12847805","5.75499081612","2149.88351011","0.245009183884","2150.18158793","2151.35187912","2151.43141913","2154.434376","1","2154.44834709","2157.31017613",""
"sujto_e9ec652d","1","3","5","69","2157.43291306","direct","2","1","3","¿Qué es el membrillero?","Arbol","Arbusto","","0","0","0","competitive","left","2.02467083931","2159.45764899","2.97532916069","2162.58900309","3.40962004662","2165.99868202","2.59037995338","2168.62272906","2170.57684612","2170.65763617","2173.65854716","0","2173.67534614","2180.13662601",""
"sujto_e9ec652d","1","3","6","70","2180.26034498","inverse","3","1","3","¿Alrededor de qué planeta orbita 
el satélite Europa?","Jupiter","Saturno","","1","1","1","competitive","left","1.04146790504","2181.30187893","3.95853209496","2185.41689205","4.14499282837","2189.56195211","1.85500717163","2191.46853209","2193.01331401","2193.08649898","2196.08948493","1","2196.10383415","2198.30900311",""
"sujto_e9ec652d","1","3","7","71","2198.47157311","direct","3","1","1","¿Donde fue el mundial de 
fútbol de 1954?","Suiza","Suecia","","1","1","1","competitive","left","1.14638400078","2199.61802197","3.85361599922","2203.62739611","4.55964612961","2208.18710303","1.44035387039","2209.66141295","2210.91401815","2210.99559116","2213.9985671","1","2214.01231813","2217.92407203",""
"sujto_e9ec652d","1","3","8","72","2218.06493402","inverse","1","1","4","¿Cuál de los 7 enanitos
no tenía barba?","Bashful","Mudito","","1","1","0","competitive","right","0.906194925308","2218.97118211","4.09380507469","2223.23424101","3.07789897919","2226.31220603","2.92210102081","2229.26938295","2230.84952402","2230.92143798","2233.92442107","1","2233.93871307","2238.86779714",""
"sujto_e9ec652d","1","3","9","73","2239.0066371","direct","3","1","2","¿Cual red social es
mas utilizada mundialmente?","Instagram","Facebook","","1","1","0","competitive","right","1.2837471962","2240.29048014","3.7162528038","2244.16498303","3.86040091515","2248.02544308","2.13959908485","2250.19909596","2252.11647701","2252.19972706","2255.20271111","1","2255.21803403","2258.15253305",""
"sujto_e9ec652d","1","3","10","74","2258.28660798","inverse","4","1","1","¿Cuándo se inició la copa
 América de fútbol?","1916","1923","","1","1","1","competitive","right","0.905884981155","2259.19255614","4.09411501884","2263.45788312","3.27274703979","2266.7306881","2.72725296021","2269.50876093","2271.40619302","2271.49355912","2274.49653602","1","2274.51070809","2277.16682506",""
"sujto_e9ec652d","1","3","11","75","2277.31297302","direct","3","1","4","¿Cuántos presidentes de EEUU
han muerto asesinados?","3","4","","0","0","1","competitive","right","1.18866801262","2278.50168514","3.81133198738","2282.48255515","2.70713210106","2285.18974805","3.29286789894","2288.53428602","2290.01824403","2290.10244107","2293.10542703","0","2293.12035894","2296.76447105",""
"sujto_e9ec652d","1","3","12","76","2296.88839793","inverse","2","1","4","¿Cuántas veces participó EEUU
 en la copa América?","4","5","","0","0","1","competitive","left","0.973509073257","2297.861974","4.02649092674","2302.04453516","2.44134497643","2304.48592401","3.55865502357","2308.09526205","2309.53937197","2309.61390805","2312.61686206","0","2312.63115096","2318.74832511",""
"sujto_e9ec652d","1","3","13","77","2318.88287401","direct","4","1","1","¿Cuál de estos países 
no formaba la URSS?","Azeribayán","Afganistán","","0","0","1","competitive","right","1.11620497704","2319.99913001","3.88379502296","2324.03997493","4.08119297028","2328.12123013","1.91880702972","2330.09157395","2331.40461707","2331.4926331","2334.49562001","0","2334.50892401","2342.49052906",""
"sujto_e9ec652d","1","3","14","78","2342.62779999","inverse","1","1","1","¿En qué año se inauguró
 el teatro Solís?","1867","1856","","0","0","0","competitive","left","1.0624320507","2343.690274","3.9375679493","2347.78552914","4.64283108711","2352.428406","1.35716891289","2353.81986403","2354.87622094","2354.95392013","2357.95689797","0","2357.97095704","2364.61875105",""
"sujto_e9ec652d","1","3","15","79","2364.75648808","direct","1","1","4","¿A qué velocidad vuela 
el avión más rápido?","3529","3874","","0","0","0","competitive","right","2.46496105194","2367.22150016","2.53503894806","2369.92969704","3.05777001381","2372.98752499","2.94222998619","2375.98080301","2377.73634696","2377.815382","2380.81831098","0","2380.83257103","2382.94285107",""
"sujto_e9ec652d","1","3","16","80","2383.08445096","inverse","3","1","4","¿De qué año es la primer 
película cinematográfica?","1897","1888","","0","0","0","competitive","right","0.893162965775","2383.97766614","4.10683703423","2388.23972201","3.27686095238","2391.51662207","2.72313904762","2394.27434301","2395.40647507","2395.49236202","2398.49535608","0","2398.50955296","2403.91933107",""
"sujto_e9ec652d","1","3","17","81","2404.06058097","direct","2","1","3","¿Cuántos países 
tiene nuestro planeta?","191","194","","1","1","1","competitive","right","1.10223388672","2405.16286397","3.89776611328","2409.23482299","4.0940618515","2413.32893014","1.9059381485","2415.26894307","2416.62616611","2416.70269299","2419.70568609","1","2419.71990299","2422.95820808",""
"sujto_e9ec652d","1","3","18","82","2423.08838201","inverse","2","1","2","¿Cuántos habitantes
 tiene Buenos Aires?","2.9000.000","3650000","","0","0","0","competitive","left","0.935007810593","2424.0234921","4.06499218941","2428.27732706","4.21270394325","2432.49009013","1.78729605675","2434.32889915","2435.726161","2435.79600811","2438.79893208","0","2438.81393313","2444.64328408",""
"sujto_e9ec652d","1","3","19","83","2444.78151011","direct","2","1","1","¿Cuántos kilos forman una tonelada?","1000","1500","left","1","1","1","competitive","left","1.08359718323","2445.86517215","3.91640281677","2449.9362731","2.85989999771","2452.79621315","3.14010000229","2455.97148013","2457.85852098","2457.94008613","2460.94306207","1","2460.95716906","2466.91459608",""
"sujto_e9ec652d","1","3","20","84","2467.05876112","inverse","4","1","4","¿Cuántos estados tiene la 
República del Perú? ","24","23","","0","0","1","competitive","right","1.1296350956","2468.1885221","3.8703649044","2472.25063396","3.47773909569","2475.72841716","2.52226090431","2478.2850771","2479.30723906","2479.38606","2482.38905311","0","2482.40323806","2487.34854913",""
"sujto_e9ec652d","1","3","21","85","2487.50428605","direct","3","1","3","¿En qué año nació Cristóbal Colón? ","1451","1447","","0","0","1","competitive","right","0.832254171371","2488.3365891","4.16774582863","2492.66142797","3.60011005402","2496.26159811","2.39988994598","2498.71214509","2500.55802512","2500.63030696","2503.63329196","0","2503.64744806","2507.87544107",""
"sujto_e9ec652d","1","3","22","86","2508.016114","inverse","4","1","4","¿Cuánto mide la 
Montaña Aconcagua? ","6234","6962","","0","0","1","competitive","right","0.986679792404","2509.002913","4.0133202076","2513.18862295","3.23604011536","2516.424721","2.76395988464","2519.23941803","2520.52874207","2520.60771608","2523.61064816","0","2523.62453508","2530.80815196",""
"sujto_e9ec652d","1","3","23","87","2530.94318295","direct","2","1","4","¿Cuánto mide el punto
 más profundo del océano? ","12508","11003","","0","0","1","competitive","right","1.16771292686","2532.11094093","3.83228707314","2536.11628103","3.26067304611","2539.37699199","2.73932695389","2542.15136194","2543.40257907","2543.48695803","2546.48991513","0","2546.50387716","2550.71014714",""
"sujto_e9ec652d","1","3","24","88","2550.85490704","inverse","1","1","3","¿Cuántos álbumes ha publicado 
el cantante Jaime Roos? ","41","34","","0","0","1","competitive","right","0.933176040649","2551.78818893","4.06682395935","2556.02794313","2.87115216255","2558.899158","3.12884783745","2562.07804608","2563.56789994","2563.64710212","2566.65006113","0","2566.66422606","2572.86037993",""
"sujto_e9ec652d","1","3","25","89","2572.99949813","direct","4","1","3","¿En qué año nació el 
ex-presidente Jorge Battle? ","1921","1927","","1","1","1","competitive","left","0.984714984894","2573.98426199","4.01528501511","2578.15581703","5.31940698624","2583.47528505","0.680593013763","2584.20725608","2585.93792915","2586.00756502","2589.01052713","1","2589.02458501","2592.51068807",""
"sujto_e9ec652d","1","3","26","90","2592.6431191","inverse","1","1","3","¿Cuántas presidencias 
constitucionales  hubo en Uruguay? ","41","42","","0","0","1","competitive","left","0.966269016266","2593.60945296","4.03373098373","2597.81626296","3.56418895721","2601.38049102","2.43581104279","2603.867136","2605.07090116","2605.15360212","2608.15657616","0","2608.16843104","2613.95207095",""
"sujto_e9ec652d","1","3","27","91","2614.10314393","direct","1","1","2","¿Quién escribió mas sinfonías?","Mozart","Haydn","","1","1","0","competitive","left","1.17749214172","2615.28070998","3.82250785828","2619.25728011","3.18742012978","2622.4447391","2.81257987022","2625.31035113","2626.52782416","2626.61100101","2629.61399293","1","2629.62814307","2633.37856412",""
"sujto_e9ec652d","1","3","28","92","2633.51288795","inverse","4","1","2","¿En qué año nació Michael Jackson?","1958","1953","","1","1","1","competitive","right","1.23093295097","2634.74388814","3.76906704903","2638.67129517","3.18355798721","2641.85489202","2.81644201279","2644.72195816","2646.70020413","2646.77310109","2649.77454209","1","2649.79084802","2655.65317416",""
"sujto_e9ec652d","1","3","29","93","2655.79231906","direct","3","1","2","¿En qué año entró en vigencia 
la ley antitabaco en Uruguay?","2005","2006","","1","1","1","competitive","right","0.850691795349","2656.64314294","4.14930820465","2660.96574402","3.53227591515","2664.49808002","2.46772408485","2667.01719809","2668.61190104","2668.68530798","2671.68828106","1","2671.70248413","2677.03456497",""
"sujto_e9ec652d","1","3","30","94","2677.17018509","inverse","3","1","1","¿Cuándo se subió el 
primer video a youtube?","2004","2005","","0","0","1","competitive","left","0.969634056091","2678.13993502","4.03036594391","2682.34438896","3.04480290413","2685.38925195","2.95519709587","2688.37729597","2689.68297601","2689.7631321","2692.76608896","0","2692.78002906","2700.53563905",""
"sujto_e9ec652d","1","3","31","95","2700.66478109","direct","2","1","1","¿Cuántos habitantes tiene India?","1200 millones","1300 millones","","0","0","0","competitive","right","1.26853299141","2701.933357","3.73146700859","2705.82087493","3.78148603439","2709.60241699","2.21851396561","2711.87264609","2713.84223413","2713.92383099","2716.92681813","0","2716.94200301","2722.98654103",""
"sujto_e9ec652d","1","3","32","96","2723.10964799","inverse","4","1","2","¿A qué edad murió Bob Marley?","36","37","","0","0","1","competitive","left","1.34185695648","2724.45157695","3.65814304352","2728.26833916","2.10626292229","2730.37464309","3.89373707771","2734.31846404","2736.21632409","2736.30403399","2739.30653405","0","2739.32064605","2742.42311311",""
"sujto_e9ec652d","1","4","1","97","2882.48036003","direct","2","1","1","¿Cuantos años dirigió la selección 
uruguaya Tabarez?","15 años","13 años","","0","0","0","competitive","right","1.32051205635","2883.80094194","3.67948794365","2887.63474107","2.77821803093","2890.41299605","3.22178196907","2893.68478513","2894.87591314","2894.95289898","2897.95454216","0","2897.97064805","2905.04266095","2742.43466806"
"sujto_e9ec652d","1","4","2","98","2905.18875003","inverse","4","1","1","¿Cuantas teclas tiene un teclado 
de computadora generalmente? ","Entre 99 y 108","Entre 109 y 113","","1","1","1","competitive","right","1.48237991333","2906.67117715","3.51762008667","2910.34664297","4.10955691338","2914.45626211","1.89044308662","2916.39765716","2917.40039206","2917.48194695","2920.48491001","1","2920.49886799","2922.87028408",""
"sujto_e9ec652d","1","4","3","99","2923.00063705","direct","1","1","1","¿Cuál Departamento tiene
 mayor superficie?","Río Negro","Soriano","","0","0","0","competitive","left","1.13564991951","2924.13633204","3.86435008049","2928.15615511","4.09816598892","2932.25438094","1.90183401108","2934.20675516","2935.92019916","2935.99120116","2938.99418807","0","2939.00829005","2943.33434296",""
"sujto_e9ec652d","1","4","4","100","2943.47862411","inverse","3","1","2","¿Cuál es el apellido de las 
hermanastras  de  cenicienta?","Tremaine","Truman","","0","0","1","competitive","left","0.814838171005","2944.29353499","4.18516182899","2948.63321996","4.41622495651","2953.049505","1.58377504349","2954.68477893","2956.55428505","2956.63564396","2959.63861895","0","2959.65279698","2962.34653211",""
"sujto_e9ec652d","1","4","5","101","2962.48792911","direct","4","1","4","¿Cuál película ganó un
 Oscar a mejor película?","Alto Impacto","Cache","","0","0","1","competitive","left","1.05470705032","2963.54271197","3.94529294968","2967.64291096","3.87677502632","2971.519732","2.12322497368","2973.67787409","2974.79726315","2974.87845111","2977.88140202","0","2977.89565396","2980.16028094",""
"sujto_e9ec652d","1","4","6","102","2980.29735303","inverse","1","1","3","¿A cuántos centímetros
equivale la medida pié?","25","30","","0","0","1","competitive","right","1.04544782639","2981.34284306","3.95455217361","2985.45203209","3.60174798965","2989.05384707","2.39825201035","2991.50275707","2992.54254913","2992.62154102","2995.62252712","0","2995.63771605","3001.03869104",""
"sujto_e9ec652d","1","4","7","103","3001.1731391","direct","2","1","2","¿Qué departamento es mas grande?","Cerro Largo","Paysandú","","0","0","0","competitive","left","0.946219205856","3002.11943007","4.05378079414","3006.36275315","2.72826099396","3009.09105301","3.27173900604","3012.39679599","3013.99655008","3014.08235693","3017.08536911","0","3017.09948516","3021.20946002",""
"sujto_e9ec652d","1","4","8","104","3021.35128307","inverse","2","1","3","¿Quién pintó la Mona Lisa?","Picasso","Da Vinci","right","0","0","1","competitive","right","1.07677721977","3022.42810297","3.92322278023","3026.50700712","2.33417415619","3028.84124112","3.66582584381","3032.55720711","3034.16304493","3034.24286199","3037.24584198","1","3037.25978899","3039.4220891",""
"sujto_e9ec652d","1","4","9","105","3039.57789207","direct","4","1","3","¿Cuántos litros hay en un galon?","3.54","3.78","","1","1","1","competitive","right","1.52036881447","3041.09830499","3.47963118553","3044.73335004","2.59187889099","3047.32528496","3.40812110901","3050.76676106","3052.28463006","3052.36964417","3055.37259197","1","3055.38677406","3061.17850614",""
"sujto_e9ec652d","1","4","10","106","3061.321841","inverse","4","1","1","¿Cuántas teclas tiene
 un piano moderno?","80","88","","0","0","1","competitive","right","0.783648967743","3062.10553813","4.21635103226","3066.49509311","3.64937496185","3070.14449811","2.35062503815","3072.54582405","3073.55427909","3073.63032103","3076.63048196","0","3076.64769316","3083.4454391",""
"sujto_e9ec652d","1","4","11","107","3083.58235002","direct","4","1","3","¿Cuántos países hay en África?","54","62","","0","0","1","competitive","right","1.13433790207","3084.71674013","3.86566209793","3088.739393","2.04224395752","3090.78169894","3.95775604248","3094.78986597","3096.48038697","3096.55845404","3099.561445","0","3099.57565999","3107.380409",""
"sujto_e9ec652d","1","4","12","108","3107.54352713","inverse","1","1","3","¿En qué siglo se crearon
 las primeras pistolas?","XV","XIII","","1","1","1","competitive","right","0.837368011475","3108.38096213","4.16263198853","3112.71893716","4.10596704483","3116.82494617","1.89403295517","3118.77009296","3120.71800995","3120.80487609","3123.80782413","1","3123.82178211","3127.05482697",""
"sujto_e9ec652d","1","4","13","109","3127.19061613","direct","3","1","4","¿En qué año se estrenó 
la serie friends?","1994","1995","","0","0","1","competitive","left","1.25234699249","3128.44303608","3.74765300751","3132.37709999","3.0239470005","3135.40110612","2.9760529995","3138.42899013","3140.30433607","3140.38049507","3143.38347697","0","3143.39839101","3148.40449309",""
"sujto_e9ec652d","1","4","14","110","3148.53356695","inverse","3","1","4","¿En qué año nació Hitler?","1889","1887","","0","0","1","competitive","right","0.884669065475","3149.41833997","4.11533093452","3153.72431397","2.45492506027","3156.17929816","3.54507493973","3159.77413106","3160.888484","3160.95931697","3163.96228194","0","3163.97629714","3169.00325203",""
"sujto_e9ec652d","1","4","15","111","3169.144701","direct","1","1","4","¿Cuánto pesa un elefante Africano?","6000 kilos","5400 kilos","","0","0","0","competitive","right","1.11363101006","3170.25839806","3.88636898994","3174.33401299","4.16439700127","3178.49846101","1.83560299873","3180.3856101","3181.74152398","3181.81933999","3184.82230616","0","3184.83770299","3191.54476595",""
"sujto_e9ec652d","1","4","16","112","3191.67135715","inverse","1","1","2","¿Qué porcentaje de 
la población es zurda?","10%","7%","","1","1","0","competitive","right","0.918213129044","3192.58962011","4.08178687096","3196.82923508","4.26136684418","3201.09064698","1.73863315582","3202.86417007","3204.10727596","3204.18119693","3207.18417096","1","3207.19916296","3213.17890406",""
"sujto_e9ec652d","1","4","17","113","3213.33315897","direct","1","1","2","¿En qué año se estrenó
Volver al futuro?","1984","1985","","0","0","1","competitive","right","0.898590087891","3214.23179507","4.10140991211","3218.50624895","3.07553100586","3221.58181906","2.92446899414","3224.55807805","3226.11990213","3226.19326806","3229.19620109","0","3229.21012211","3236.30157709",""
"sujto_e9ec652d","1","4","18","114","3236.44533515","inverse","3","1","2","¿Cuántos jugadores hay en un 
equipo de baseball?","9","8","","1","1","0","competitive","right","0.759634971619","3237.205024","4.24036502838","3241.60315013","3.28574895859","3244.888937","2.71425104141","3247.65389895","3249.26819301","3249.33809996","3252.34107804","1","3252.35618806","3257.33054614",""
"sujto_e9ec652d","1","4","19","115","3257.45761204","direct","2","1","1","¿Cuántos Oscar ganó
 la película titanic?","13","11","","1","1","1","competitive","right","0.921942949295","3258.37962604","4.0780570507","3262.63030601","2.88083600998","3265.5112021","3.11916399002","3268.66423106","3269.96624494","3270.04945016","3273.05239296","1","3273.06610203","3277.66650701",""
"sujto_e9ec652d","1","4","20","116","3277.80179405","inverse","4","1","4","¿En qué año comenzó
la segunda guerra mundial?","1939","1976","left","0","0","1","competitive","left","0.875525951385","3278.67738914","4.12447404861","3282.95809102","3.32422184944","3286.28235197","2.67577815056","3289.00861216","3290.80847907","3290.89346814","3293.89645314","1","3293.910815","3297.89797997",""
"sujto_e9ec652d","1","4","21","117","3298.02913809","direct","2","1","4","¿Cuántos biomas hay en Uruguay?","5","4","","0","0","1","competitive","left","0.906382083893","3298.93557","4.09361791611","3303.16823316","3.00132107735","3306.1695931","2.99867892265","3309.21884799","3311.01621413","3311.08772016","3314.09063911","0","3314.10446405","3320.35047507",""
"sujto_e9ec652d","1","4","22","118","3320.47286797","inverse","2","1","3","¿Cuándo murió Pablo Escobar?","1993","1997","","1","1","1","competitive","right","0.988867044449","3321.46181703","4.01113295555","3325.61306405","2.36565184593","3327.97878098","3.63434815407","3331.64679503","3333.42961311","3333.49923015","3336.50221205","1","3336.51630116","3342.21997309",""
"sujto_e9ec652d","1","4","23","119","3342.35157704","direct","1","1","4","¿Qué serie ha ganado mas premios?","Friends","Murphy Brown","","1","1","0","competitive","left","0.952269792557","3343.30389094","4.04773020744","3347.52546501","3.30145192146","3350.82696009","2.69854807854","3353.57553911","3354.92794704","3355.01085401","3358.01381707","1","3358.02810001","3363.58973908",""
"sujto_e9ec652d","1","4","24","120","3363.76283908","inverse","4","1","2","¿Cuántas fichas tiene el dominó?","26","28","","1","1","1","competitive","right","0.739208221436","3364.50211501","4.26079177856","3368.95321298","2.23883795738","3371.19211411","3.76116204262","3375.00304699","3376.05836511","3376.15524697","3379.15819597","1","3379.17231202","3384.4154191",""
"sujto_e9ec652d","1","4","25","121","3384.55746913","direct","2","1","4","¿Cuántos son los dientes de leche?","20","25","","0","0","1","competitive","left","0.78876709938","3385.34630704","4.21123290062","3389.69526315","3.19093608856","3392.88624096","2.80906391144","3395.74808812","3397.45845008","3397.5323751","3400.53535414","0","3400.55033493","3402.69606805",""
"sujto_e9ec652d","1","4","26","122","3402.85134196","inverse","3","1","3","¿Cuántos gramos son una onza?","22","28","","0","0","1","competitive","right","0.817009925842","3403.66842198","4.18299007416","3408.00653911","3.12189102173","3411.12849212","2.87810897827","3414.05704808","3416.05192399","3416.12512016","3419.12810516","0","3419.14317393","3425.43339396",""
"sujto_e9ec652d","1","4","27","123","3425.57817316","direct","3","1","1","¿Cuándo salió el primer album
 de los Beatles?","1963","1962","","1","1","1","competitive","right","1.15841507912","3426.736655","3.84158492088","3430.73507595","3.70553898811","3434.44068193","2.29446101189","3436.78650093","3437.95013309","3438.02049804","3441.0225091","1","3441.03776908","3444.80980706",""
"sujto_e9ec652d","1","4","28","124","3444.95554614","inverse","3","1","3","¿Quién fundó la empresa apple?","Carlos Slim","Steve Jobs","","1","1","1","competitive","right","0.761142969131","3445.71673393","4.23885703087","3450.11208797","2.9976849556","3453.10983396","3.0023150444","3456.16288304","3457.27756596","3457.34797215","3460.35092211","1","3460.36487412","3466.66270995",""
"sujto_e9ec652d","1","4","29","125","3466.79949999","direct","4","1","2","¿Cuántos municipios hay
 en Montevideo?","8","7","","1","1","1","competitive","right","0.891403913498","3467.69101","4.1085960865","3471.98730803","3.7716448307","3475.75901699","2.2283551693","3478.04012203","3479.95488095","3480.04081798","3483.04381704","1","3483.05882907","3485.13854194",""
"sujto_e9ec652d","1","4","30","126","3485.27660394","inverse","1","1","1","¿Cuántos kilómetros hay
 de Montevideo a Artigas?","632","599","","0","0","0","competitive","left","0.940488100052","3486.21713805","4.05951189995","3490.43311214","3.29900097847","3493.73217511","2.70099902153","3496.48411512","3497.96722102","3498.03516412","3501.03812003","0","3501.05245304","3507.10457611",""
"sujto_e9ec652d","1","4","31","127","3507.25449705","direct","2","1","2","¿En qué año nació 
Leonardo Da Vinci?","1452","1511","","1","1","0","competitive","left","1.03472280502","3508.28929496","3.96527719498","3512.41130996","3.54200601578","3515.95335507","2.45799398422","3518.44578409","3520.29851508","3520.38018703","3523.38318706","1","3523.39735699","3526.54250503",""
"sujto_e9ec652d","1","4","32","128","3526.71630716","inverse","3","1","1","¿A qué continente
 pertenece el país Gabón?","Africa","Oceanía","","0","0","1","competitive","left","1.95118498802","3528.66761112","3.04881501198","3531.88876414","3.82069396973","3535.70951915","2.17930603027","3537.93905497","3539.75069809","3539.82388496","3542.82653809","0","3542.84140205","3548.07849813",""
